Database of Origin,University of Winnipeg Spectrophotometer Facility
Sample Description,8. Sulfates - Jim Crowley (USGS) IR spectra /  Crowley IR spectra
Date Added,2016-07-15 22:04:24.357686

Data ID,CWL_SUL_27          
Sample ID,Thenardite
Mineral Name,Thenardite
Locality,"Saline Valley, CA"
Grain Size,~250
Viewing Geometry,unknown
Resolution,0.08-40
Material Class,Sulfate

Wavelength
2083.55,0.3352
2084.39,0.3374
2085.23,0.3352
2086.06,0.3344
2086.9,0.3391
2087.74,0.3423
2088.58,0.3418
2089.43,0.3426
2090.27,0.343
2091.11,0.3466
2091.95,0.3461
2092.8,0.3452
2093.64,0.3435
2094.49,0.3431
2095.33,0.3448
2096.18,0.3482
2097.03,0.3485
2097.88,0.3462
2098.73,0.3426
2099.58,0.3433
2100.43,0.3424
2101.28,0.3423
2102.13,0.3436
2102.98,0.3477
2103.83,0.3521
2104.69,0.3554
2105.54,0.3544
2106.4,0.3539
2107.25,0.3556
2108.11,0.3566
2108.97,0.3555
2109.83,0.3549
2110.68,0.3503
2111.54,0.3496
2112.4,0.3481
2113.27,0.3484
2114.13,0.3503
2114.99,0.3525
2115.85,0.3502
2116.72,0.3471
2117.58,0.3446
2118.44,0.3436
2119.31,0.3419
2120.18,0.3404
2121.04,0.3413
2121.91,0.3466
2122.78,0.3454
2123.65,0.34
2124.52,0.3432
2125.39,0.3483
2126.26,0.347
2127.13,0.3434
2128.01,0.3393
2128.88,0.3369
2129.75,0.3356
2130.63,0.3367
2131.5,0.3382
2132.38,0.3408
2133.26,0.3411
2134.14,0.3383
2135.01,0.3386
2135.89,0.3431
2136.77,0.3413
2137.65,0.3402
2138.54,0.3436
2139.42,0.3453
2140.3,0.3417
2141.18,0.3416
2142.07,0.3438
2142.95,0.3418
2143.84,0.3364
2144.73,0.3374
2145.61,0.3396
2146.5,0.3401
2147.39,0.3362
2148.28,0.3358
2149.17,0.3372
2150.06,0.3403
2150.95,0.3415
2151.85,0.3398
2152.74,0.3374
2153.63,0.3397
2154.53,0.3409
2155.42,0.3374
2156.32,0.3348
2157.22,0.3359
2158.11,0.338
2159.01,0.3411
2159.91,0.3419
2160.81,0.3404
2161.71,0.337
2162.61,0.3373
2163.52,0.334
2164.42,0.3339
2165.32,0.3352
2166.23,0.3367
2167.13,0.3391
2168.04,0.3389
2168.94,0.3347
2169.85,0.3351
2170.76,0.3369
2171.67,0.3393
2172.58,0.3408
2173.49,0.3418
2174.4,0.341
2175.31,0.3407
2176.23,0.3396
2177.14,0.3399
2178.05,0.3376
2178.97,0.3367
2179.89,0.3367
2180.8,0.3374
2181.72,0.3339
2182.64,0.3299
2183.56,0.3284
2184.48,0.3278
2185.4,0.3263
2186.32,0.3293
2187.24,0.3303
2188.16,0.3335
2189.09,0.332
2190.01,0.329
2190.94,0.3301
2191.86,0.33
2192.79,0.3287
2193.72,0.3301
2194.64,0.3282
2195.57,0.3302
2196.5,0.3308
2197.43,0.3271
2198.37,0.326
2199.3,0.3278
2200.23,0.3289
2201.16,0.3299
2202.1,0.3301
2203.03,0.3276
2203.97,0.3266
2204.91,0.3289
2205.85,0.3268
2206.78,0.3272
2207.72,0.3302
2208.66,0.329
2209.61,0.327
2210.55,0.3256
2211.49,0.3267
2212.43,0.3272
2213.38,0.3262
2214.32,0.329
2215.27,0.3297
2216.21,0.3303
2217.16,0.33
2218.11,0.3286
2219.06,0.3271
2220.01,0.3263
2220.96,0.3251
2221.91,0.327
2222.86,0.3254
2223.82,0.3228
2224.77,0.3246
2225.73,0.3268
2226.68,0.3269
2227.64,0.3272
2228.6,0.3265
2229.55,0.3265
2230.51,0.3238
2231.47,0.3241
2232.43,0.3261
2233.39,0.3288
2234.36,0.3244
2235.32,0.323
2236.28,0.3204
2237.25,0.3205
2238.21,0.3222
2239.18,0.3214
2240.15,0.3217
2241.12,0.3238
2242.08,0.3236
2243.05,0.3221
2244.02,0.322
2245.0,0.3255
2245.97,0.3239
2246.94,0.3214
2247.91,0.3222
2248.89,0.3252
2249.87,0.3248
2250.84,0.3236
2251.82,0.3228
2252.8,0.3219
2253.78,0.3187
2254.76,0.3196
2255.74,0.3186
2256.72,0.3188
2257.7,0.3216
2258.68,0.3221
2259.67,0.3183
2260.65,0.3187
2261.64,0.318
2262.63,0.318
2263.61,0.3178
2264.6,0.3179
2265.59,0.3167
2266.58,0.3166
2267.57,0.3153
2268.56,0.3179
2269.56,0.3195
2270.55,0.3177
2271.55,0.3159
2272.54,0.3169
2273.54,0.3152
2274.53,0.3144
2275.53,0.3133
2276.53,0.3144
2277.53,0.3168
2278.53,0.3176
2279.53,0.3185
2280.54,0.3219
2281.54,0.3218
2282.54,0.3203
2283.55,0.3191
2284.55,0.3184
2285.56,0.3171
2286.57,0.3143
2287.58,0.3151
2288.59,0.3203
2289.6,0.3191
2290.61,0.3191
2291.62,0.3239
2292.63,0.3218
2293.65,0.3195
2294.66,0.3223
2295.68,0.3241
2296.69,0.3221
2297.71,0.3206
2298.73,0.3211
2299.75,0.3179
2300.77,0.3199
2301.79,0.3225
2302.81,0.3226
2303.84,0.3239
2304.86,0.3246
2305.88,0.3232
2306.91,0.325
2307.94,0.3283
2308.96,0.328
2309.99,0.3244
2311.02,0.3258
2312.05,0.3289
2313.08,0.3285
2314.12,0.3247
2315.15,0.3261
2316.18,0.3271
2317.22,0.3268
2318.25,0.3266
2319.29,0.3269
2320.33,0.3278
2321.37,0.328
2322.41,0.3273
2323.45,0.3293
2324.49,0.3326
2325.53,0.3324
2326.57,0.3323
2327.62,0.334
2328.66,0.3319
2329.71,0.3306
2330.76,0.3323
2331.8,0.3358
2332.85,0.3366
2333.9,0.3379
2334.95,0.3377
2336.01,0.3383
2337.06,0.3383
2338.11,0.3386
2339.17,0.341
2340.22,0.3444
2341.28,0.3453
2342.34,0.3431
2343.39,0.3445
2344.45,0.3472
2345.51,0.3464
2346.57,0.3469
2347.64,0.3491
2348.7,0.3503
2349.76,0.3502
2350.83,0.3501
2351.9,0.3497
2352.96,0.3512
2354.03,0.3509
2355.1,0.3513
2356.17,0.3546
2357.24,0.3561
2358.31,0.3564
2359.39,0.3611
2360.46,0.3612
2361.53,0.3597
2362.61,0.361
2363.69,0.3619
2364.76,0.3616
2365.84,0.365
2366.92,0.3634
2368.0,0.3627
2369.09,0.3642
2370.17,0.3662
2371.25,0.3676
2372.34,0.3687
2373.42,0.3673
2374.51,0.3662
2375.6,0.3638
2376.69,0.3644
2377.78,0.3665
2378.87,0.369
2379.96,0.3662
2381.05,0.3685
2382.14,0.3718
2383.24,0.3677
2384.33,0.3658
2385.43,0.3679
2386.53,0.3665
2387.63,0.3652
2388.73,0.3682
2389.83,0.3686
2390.93,0.3675
2392.03,0.3684
2393.14,0.3666
2394.24,0.3646
2395.35,0.3638
2396.45,0.3655
2397.56,0.3667
2398.67,0.3707
2399.78,0.3705
2400.89,0.3668
2402.0,0.3642
2403.12,0.3631
2404.23,0.3639
2405.35,0.3697
2406.46,0.3734
2407.58,0.3736
2408.7,0.3717
2409.82,0.3739
2410.94,0.3757
2412.06,0.3764
2413.18,0.3748
2414.3,0.3762
2415.43,0.3805
2416.55,0.3826
2417.68,0.3808
2418.81,0.3779
2419.94,0.3766
2421.07,0.38
2422.2,0.3809
2423.33,0.3836
2424.46,0.3853
2425.6,0.3867
2426.73,0.3873
2427.87,0.3868
2429.0,0.3886
2430.14,0.3912
2431.28,0.3903
2432.42,0.3902
2433.56,0.3907
2434.71,0.3895
2435.85,0.3897
2436.99,0.391
2438.14,0.3902
2439.29,0.3894
2440.43,0.3895
2441.58,0.3897
2442.73,0.3883
2443.88,0.3896
2445.04,0.3899
2446.19,0.3894
2447.34,0.3884
2448.5,0.3891
2449.66,0.3886
2450.81,0.3901
2451.97,0.3917
2453.13,0.3918
2454.29,0.3927
2455.45,0.3947
2456.62,0.3932
2457.78,0.3939
2458.95,0.3941
2460.11,0.395
2461.28,0.3956
2462.45,0.3977
2463.62,0.4024
2464.79,0.4048
2465.96,0.4035
2467.14,0.4043
2468.31,0.4048
2469.49,0.4043
2470.66,0.4061
2471.84,0.4081
2473.02,0.4085
2474.2,0.4101
2475.38,0.4102
2476.56,0.4128
2477.74,0.4133
2478.93,0.4116
2480.11,0.4121
2481.3,0.4141
2482.49,0.4139
2483.68,0.4124
2484.87,0.4095
2486.06,0.4072
2487.25,0.4066
2488.44,0.4082
2489.64,0.4067
2490.83,0.406
2492.03,0.4068
2493.23,0.4069
2494.43,0.4065
2495.63,0.4067
2496.83,0.4077
2498.03,0.4098
2499.24,0.4102
2500.44,0.4089
2501.65,0.4102
2502.86,0.4112
2504.06,0.412
2505.27,0.4125
2506.48,0.4115
2507.7,0.4123
2508.91,0.4143
2510.12,0.415
2511.34,0.4145
2512.56,0.4171
2513.77,0.4174
2514.99,0.4156
2516.21,0.4153
2517.43,0.4163
2518.66,0.4165
2519.88,0.4131
2521.11,0.4128
2522.33,0.4164
2523.56,0.4177
2524.79,0.4177
2526.02,0.417
2527.25,0.4148
2528.48,0.4144
2529.71,0.4161
2530.95,0.4174
2532.18,0.4182
2533.42,0.4178
2534.66,0.4191
2535.9,0.4196
2537.14,0.4211
2538.38,0.4202
2539.62,0.4211
2540.87,0.4222
2542.11,0.4223
2543.36,0.4203
2544.61,0.4227
2545.86,0.4237
2547.11,0.4244
2548.36,0.4215
2549.61,0.4186
2550.87,0.417
2552.12,0.4159
2553.38,0.4164
2554.64,0.4148
2555.89,0.4142
2557.16,0.4148
2558.42,0.4128
2559.68,0.412
2560.94,0.4145
2562.21,0.415
2563.48,0.4134
2564.74,0.4122
2566.01,0.4117
2567.28,0.4106
2568.55,0.4113
2569.83,0.4135
2571.1,0.4134
2572.38,0.4124
2573.65,0.4116
2574.93,0.4119
2576.21,0.4122
2577.49,0.413
2578.77,0.4113
2580.05,0.4104
2581.34,0.4111
2582.62,0.4103
2583.91,0.4094
2585.2,0.4107
2586.49,0.4122
2587.78,0.4135
2589.07,0.4126
2590.36,0.4116
2591.66,0.4107
2592.95,0.4102
2594.25,0.4101
2595.55,0.4125
2596.85,0.414
2598.15,0.4141
2599.45,0.4143
2600.76,0.4152
2602.06,0.4143
2603.37,0.4138
2604.67,0.4148
2605.98,0.4155
2607.29,0.4151
2608.6,0.4156
2609.92,0.4162
2611.23,0.4184
2612.55,0.4185
2613.86,0.4183
2615.18,0.4189
2616.5,0.4217
2617.82,0.4236
2619.14,0.4233
2620.47,0.422
2621.79,0.4233
2623.12,0.4245
2624.45,0.426
2625.77,0.4262
2627.1,0.4276
2628.44,0.4283
2629.77,0.4283
2631.1,0.4303
2632.44,0.434
2633.78,0.436
2635.11,0.438
2636.45,0.4364
2637.79,0.4358
2639.14,0.4385
2640.48,0.4416
2641.83,0.4418
2643.17,0.4429
2644.52,0.4464
2645.87,0.4493
2647.22,0.4506
2648.57,0.4538
2649.92,0.4547
2651.28,0.4566
2652.64,0.4597
2653.99,0.4616
2655.35,0.4632
2656.71,0.4661
2658.07,0.4688
2659.44,0.4723
2660.8,0.4761
2662.17,0.4806
2663.53,0.4833
2664.9,0.4854
2666.27,0.4857
2667.64,0.4873
2669.02,0.4889
2670.39,0.4912
2671.77,0.4954
2673.14,0.5
2674.52,0.5023
2675.9,0.5064
2677.28,0.5113
2678.67,0.5146
2680.05,0.5165
2681.44,0.5234
2682.82,0.5279
2684.21,0.5314
2685.6,0.5374
2686.99,0.5446
2688.39,0.5519
2689.78,0.561
2691.18,0.5699
2692.57,0.5774
2693.97,0.5864
2695.37,0.5963
2696.77,0.6064
2698.18,0.6191
2699.58,0.6309
2700.99,0.6429
2702.4,0.653
2703.8,0.6637
2705.22,0.6699
2706.63,0.6723
2708.04,0.674
2709.45,0.6775
2710.87,0.6808
2712.29,0.6859
2713.71,0.6934
2715.13,0.7019
2716.55,0.7098
2717.97,0.7174
2719.4,0.7241
2720.83,0.7327
2722.25,0.7388
2723.68,0.7454
2725.12,0.7532
2726.55,0.7607
2727.98,0.7671
2729.42,0.774
2730.86,0.7813
2732.29,0.7879
2733.73,0.7926
2735.18,0.7997
2736.62,0.8064
2738.06,0.8115
2739.51,0.816
2740.96,0.8205
2742.41,0.8247
2743.86,0.8291
2745.31,0.8338
2746.77,0.8379
2748.22,0.8411
2749.68,0.8459
2751.14,0.851
2752.6,0.8558
2754.06,0.8589
2755.52,0.862
2756.99,0.865
2758.45,0.8674
2759.92,0.8697
2761.39,0.8732
2762.86,0.8757
2764.33,0.8767
2765.81,0.8776
2767.28,0.878
2768.76,0.8791
2770.24,0.8822
2771.72,0.8847
2773.2,0.887
2774.69,0.8899
2776.17,0.893
2777.66,0.8945
2779.15,0.8953
2780.64,0.896
2782.13,0.8983
2783.62,0.899
2785.12,0.9006
2786.61,0.9022
2788.11,0.9027
2789.61,0.9038
2791.11,0.9049
2792.62,0.9058
2794.12,0.9078
2795.63,0.9097
2797.14,0.9108
2798.64,0.9113
2800.16,0.9127
2801.67,0.9124
2803.18,0.913
2804.7,0.9156
2806.22,0.9169
2807.74,0.9178
2809.26,0.9176
2810.78,0.9165
2812.3,0.919
2813.83,0.922
2815.36,0.9231
2816.89,0.9242
2818.42,0.9266
2819.95,0.927
2821.48,0.9292
2823.02,0.9306
2824.56,0.9305
2826.1,0.9303
2827.64,0.9316
2829.18,0.9329
2830.72,0.9351
2832.27,0.9359
2833.82,0.9381
2835.37,0.9411
2836.92,0.9439
2838.47,0.9462
2840.02,0.9487
2841.58,0.9517
2843.14,0.9538
2844.7,0.9563
2846.26,0.9595
2847.82,0.9612
2849.39,0.9626
2850.95,0.9636
2852.52,0.965
2854.09,0.9653
2855.66,0.9629
2857.24,0.9591
2858.81,0.9561
2860.39,0.9547
2861.97,0.9546
2863.55,0.954
2865.13,0.953
2866.71,0.9508
2868.3,0.9492
2869.88,0.948
2871.47,0.9464
2873.06,0.9443
2874.66,0.943
2876.25,0.9422
2877.85,0.9426
2879.45,0.9425
2881.04,0.9411
2882.65,0.9404
2884.25,0.9405
2885.85,0.9403
2887.46,0.9413
2889.07,0.94
2890.68,0.9391
2892.29,0.9383
2893.91,0.9378
2895.52,0.9383
2897.14,0.9397
2898.76,0.9388
2900.38,0.9384
2902.0,0.9389
2903.63,0.9391
2905.25,0.9375
2906.88,0.9377
2908.51,0.9388
2910.14,0.9398
2911.78,0.9383
2913.41,0.9373
2915.05,0.9387
2916.69,0.9402
2918.33,0.9401
2919.98,0.9396
2921.62,0.9392
2923.27,0.9406
2924.92,0.9404
2926.57,0.9397
2928.22,0.9399
2929.87,0.941
2931.53,0.9409
2933.19,0.9404
2934.85,0.9405
2936.51,0.9403
2938.17,0.939
2939.84,0.937
2941.51,0.935
2943.18,0.9359
2944.85,0.9371
2946.52,0.9375
2948.19,0.9381
2949.87,0.9388
2951.55,0.9377
2953.23,0.9371
2954.91,0.9366
2956.6,0.936
2958.28,0.9347
2959.97,0.9343
2961.66,0.9343
2963.36,0.9339
2965.05,0.9337
2966.75,0.9334
2968.44,0.9338
2970.14,0.9353
2971.85,0.9339
2973.55,0.9311
2975.26,0.93
2976.96,0.9312
2978.67,0.932
2980.39,0.9316
2982.1,0.9304
2983.82,0.9306
2985.53,0.9315
2987.25,0.9309
2988.97,0.9295
2990.7,0.9289
2992.42,0.9281
2994.15,0.9276
2995.88,0.9271
2997.61,0.9274
2999.35,0.9278
3001.08,0.9277
3002.82,0.9263
3004.56,0.926
3006.3,0.9254
3008.04,0.9252
3009.79,0.9245
3011.54,0.9244
3013.29,0.9233
3015.04,0.9228
3016.79,0.9232
3018.55,0.923
3020.31,0.9228
3022.07,0.9224
3023.83,0.921
3025.59,0.9198
3027.36,0.9194
3029.13,0.9197
3030.9,0.9183
3032.67,0.9193
3034.44,0.9204
3036.22,0.92
3038.0,0.9186
3039.78,0.9189
3041.56,0.9191
3043.35,0.9185
3045.14,0.9179
3046.92,0.918
3048.72,0.9172
3050.51,0.9172
3052.3,0.9174
3054.1,0.9173
3055.9,0.9174
3057.7,0.9164
3059.51,0.9149
3061.31,0.9161
3063.12,0.9162
3064.93,0.9153
3066.74,0.9145
3068.56,0.9139
3070.37,0.9129
3072.19,0.9128
3074.01,0.9122
3075.84,0.9127
3077.66,0.9127
3079.49,0.9116
3081.32,0.9111
3083.15,0.9114
3084.99,0.9106
3086.82,0.9101
3088.66,0.9101
3090.5,0.91
3092.34,0.9098
3094.19,0.91
3096.04,0.9087
3097.89,0.9083
3099.74,0.9082
3101.59,0.9079
3103.45,0.9077
3105.31,0.9075
3107.17,0.9069
3109.03,0.9072
3110.89,0.9078
3112.76,0.9072
3114.63,0.9065
3116.5,0.9065
3118.38,0.9058
3120.25,0.9045
3122.13,0.9036
3124.01,0.9034
3125.89,0.9019
3127.78,0.9004
3129.67,0.8995
3131.56,0.8985
3133.45,0.8968
3135.34,0.8967
3137.24,0.8962
3139.14,0.8952
3141.04,0.8946
3142.94,0.8943
3144.85,0.8929
3146.76,0.8919
3148.67,0.892
3150.58,0.8914
3152.5,0.8901
3154.41,0.889
3156.33,0.8889
3158.25,0.8889
3160.18,0.8877
3162.11,0.8871
3164.04,0.8866
3165.97,0.8857
3167.9,0.8843
3169.84,0.8838
3171.78,0.8834
3173.72,0.8833
3175.66,0.8822
3177.61,0.8812
3179.55,0.8805
3181.5,0.8808
3183.46,0.8801
3185.41,0.8794
3187.37,0.8787
3189.33,0.8786
3191.29,0.8783
3193.26,0.8786
3195.23,0.8774
3197.2,0.8768
3199.17,0.8759
3201.14,0.8755
3203.12,0.8754
3205.1,0.8754
3207.08,0.8747
3209.07,0.874
3211.05,0.873
3213.04,0.8729
3215.03,0.8734
3217.03,0.8742
3219.03,0.8742
3221.02,0.8744
3223.03,0.8752
3225.03,0.8758
3227.04,0.8759
3229.05,0.8758
3231.06,0.8752
3233.07,0.8748
3235.09,0.8743
3237.11,0.8749
3239.13,0.8758
3241.15,0.877
3243.18,0.8773
3245.21,0.8769
3247.24,0.8749
3249.28,0.8717
3251.31,0.8683
3253.35,0.8649
3255.4,0.8615
3257.44,0.8594
3259.49,0.8572
3261.54,0.855
3263.59,0.853
3265.65,0.8515
3267.7,0.8501
3269.76,0.8496
3271.83,0.8477
3273.89,0.8458
3275.96,0.8449
3278.03,0.8445
3280.1,0.8431
3282.18,0.8417
3284.26,0.8409
3286.34,0.8398
3288.42,0.8383
3290.51,0.8382
3292.6,0.8379
3294.69,0.8368
3296.78,0.8353
3298.88,0.8339
3300.98,0.8331
3303.08,0.832
3305.19,0.8307
3307.3,0.8302
3309.41,0.829
3311.52,0.828
3313.64,0.8265
3315.75,0.8253
3317.88,0.8252
3320.0,0.8245
3322.13,0.8247
3324.26,0.8256
3326.39,0.8253
3328.52,0.8245
3330.66,0.824
3332.8,0.8239
3334.94,0.8226
3337.09,0.8223
3339.24,0.8225
3341.39,0.8225
3343.54,0.8211
3345.7,0.8201
3347.86,0.8191
3350.02,0.8191
3352.19,0.8179
3354.36,0.8166
3356.53,0.8153
3358.7,0.8142
3360.88,0.813
3363.06,0.8122
3365.24,0.8108
3367.43,0.8103
3369.61,0.809
3371.8,0.8075
3374.0,0.8062
3376.19,0.8049
3378.39,0.803
3380.6,0.802
3382.8,0.7998
3385.01,0.7984
3387.22,0.7975
3389.43,0.7969
3391.65,0.7958
3393.87,0.7948
3396.09,0.7938
3398.32,0.7929
3400.55,0.7907
3402.78,0.7895
3405.01,0.7892
3407.25,0.7881
3409.49,0.7865
3411.73,0.7854
3413.98,0.7835
3416.23,0.7819
3418.48,0.7806
3420.73,0.7787
3422.99,0.7763
3425.25,0.775
3427.51,0.7741
3429.78,0.773
3432.05,0.7715
3434.32,0.77
3436.6,0.7672
3438.88,0.7655
3441.16,0.7653
3443.45,0.7652
3445.73,0.7632
3448.02,0.7618
3450.32,0.7605
3452.61,0.7591
3454.91,0.7577
3457.22,0.7566
3459.52,0.7562
3461.83,0.7561
3464.15,0.7555
3466.46,0.7555
3468.78,0.7558
3471.1,0.7557
3473.43,0.7539
3475.75,0.7527
3478.09,0.7513
3480.42,0.7498
3482.76,0.7489
3485.1,0.7483
3487.44,0.746
3489.79,0.7436
3492.14,0.7417
3494.49,0.7404
3496.85,0.7393
3499.21,0.7385
3501.57,0.7367
3503.93,0.7343
3506.3,0.7308
3508.68,0.7284
3511.05,0.7278
3513.43,0.7266
3515.81,0.7248
3518.2,0.7235
3520.58,0.7218
3522.98,0.7198
3525.37,0.718
3527.77,0.7161
3530.17,0.7137
3532.57,0.7122
3534.98,0.7105
3537.39,0.7087
3539.81,0.7064
3542.23,0.7054
3544.65,0.7042
3547.07,0.7022
3549.5,0.7001
3551.93,0.6986
3554.36,0.6974
3556.8,0.6966
3559.24,0.695
3561.69,0.6928
3564.14,0.6905
3566.59,0.6888
3569.04,0.6881
3571.5,0.6873
3573.96,0.6849
3576.42,0.6831
3578.89,0.6816
3581.36,0.6807
3583.84,0.6795
3586.32,0.6777
3588.8,0.6758
3591.28,0.6747
3593.77,0.6734
3596.26,0.6719
3598.76,0.6707
3601.26,0.67
3603.76,0.6691
3606.27,0.668
3608.78,0.6666
3611.29,0.6657
3613.81,0.6647
3616.33,0.6637
3618.85,0.6625
3621.38,0.6613
3623.91,0.6601
3626.44,0.6597
3628.98,0.6588
3631.52,0.6579
3634.06,0.6577
3636.61,0.6578
3639.16,0.6577
3641.72,0.6576
3644.28,0.6567
3646.84,0.6565
3649.41,0.6558
3651.98,0.6548
3654.55,0.6537
3657.13,0.6534
3659.71,0.6534
3662.29,0.6531
3664.88,0.6523
3667.47,0.6518
3670.07,0.6515
3672.67,0.6512
3675.27,0.6506
3677.88,0.6497
3680.49,0.6491
3683.1,0.6487
3685.72,0.6486
3688.34,0.6481
3690.96,0.6468
3693.59,0.646
3696.23,0.6454
3698.86,0.6444
3701.5,0.6429
3704.15,0.6417
3706.79,0.6417
3709.44,0.6421
3712.1,0.6423
3714.76,0.6425
3717.42,0.6421
3720.09,0.6421
3722.76,0.643
3725.43,0.6439
3728.11,0.645
3730.79,0.6467
3733.48,0.6482
3736.17,0.651
3738.86,0.653
3741.56,0.6544
3744.26,0.6559
3746.97,0.6582
3749.67,0.6608
3752.39,0.6631
3755.1,0.6642
3757.83,0.6664
3760.55,0.6683
3763.28,0.6701
3766.01,0.672
3768.75,0.6742
3771.49,0.6751
3774.23,0.6755
3776.98,0.6761
3779.74,0.6765
3782.49,0.6759
3785.25,0.6755
3788.02,0.6753
3790.79,0.6761
3793.56,0.6779
3796.34,0.6798
3799.12,0.6812
3801.9,0.6824
3804.69,0.6812
3807.48,0.6788
3810.28,0.676
3813.08,0.6731
3815.89,0.6712
3818.7,0.6707
3821.51,0.6705
3824.33,0.6719
3827.15,0.6741
3829.98,0.6762
3832.81,0.6779
3835.64,0.6785
3838.48,0.6784
3841.33,0.6781
3844.17,0.6792
3847.03,0.6805
3849.88,0.6808
3852.74,0.6792
3855.61,0.6758
3858.47,0.6718
3861.35,0.6675
3864.22,0.6641
3867.11,0.6613
3869.99,0.6598
3872.88,0.6587
3875.78,0.658
3878.67,0.6571
3881.58,0.6557
3884.48,0.6547
3887.4,0.6551
3890.31,0.6558
3893.23,0.6557
3896.16,0.6545
3899.09,0.6533
3902.02,0.6526
3904.96,0.6523
3907.9,0.6528
3910.85,0.6532
3913.8,0.6525
3916.76,0.6525
3919.72,0.6531
3922.68,0.6546
3925.65,0.6559
3928.62,0.6561
3931.6,0.6555
3934.58,0.6546
3937.57,0.6539
3940.56,0.6551
3943.56,0.6569
3946.56,0.6594
3949.57,0.6604
3952.58,0.6614
3955.59,0.6633
3958.61,0.6665
3961.63,0.6688
3964.66,0.6709
3967.7,0.6729
3970.73,0.6737
3973.78,0.6742
3976.82,0.6756
3979.88,0.6768
3982.93,0.6774
3985.99,0.6777
3989.06,0.6785
3992.13,0.6785
3995.21,0.6776
3998.29,0.6763
4001.37,0.6755
4004.46,0.6751
4007.55,0.676
4010.65,0.6771
4013.76,0.6782
4016.87,0.6791
4019.98,0.681
4023.1,0.684
4026.22,0.6863
4029.35,0.6862
4032.48,0.686
4035.62,0.6873
4038.76,0.6897
4041.91,0.6912
4045.06,0.6924
4048.22,0.6936
4051.38,0.6948
4054.55,0.6956
4057.72,0.697
4060.9,0.6993
4064.08,0.7023
4067.27,0.7043
4070.46,0.7052
4073.66,0.7058
4076.86,0.7072
4080.07,0.7093
4083.28,0.712
4086.5,0.7139
4089.72,0.7164
4092.95,0.7176
4096.18,0.7193
4099.42,0.7216
4102.66,0.7237
4105.91,0.7254
4109.16,0.7276
4112.42,0.7298
4115.69,0.7315
4118.96,0.7335
4122.23,0.736
4125.51,0.7384
4128.79,0.741
4132.08,0.7429
4135.38,0.7445
4138.68,0.7468
4141.98,0.7499
4145.29,0.7521
4148.61,0.7544
4151.93,0.7571
4155.26,0.76
4158.59,0.7623
4161.93,0.7648
4165.27,0.7681
4168.62,0.7711
4171.97,0.774
4175.33,0.7775
4178.69,0.7798
4182.06,0.782
4185.44,0.7844
4188.82,0.787
4192.21,0.7898
4195.6,0.7929
4198.99,0.796
4202.4,0.7988
4205.8,0.8011
4209.22,0.8045
4212.64,0.808
4216.06,0.8119
4219.49,0.8154
4222.93,0.8189
4226.37,0.823
4229.82,0.8284
4233.27,0.8347
4236.73,0.8419
4240.19,0.8496
4243.66,0.8595
4247.14,0.8718
4250.62,0.8859
4254.1,0.8993
4257.6,0.9113
4261.09,0.9218
4264.6,0.9299
4268.11,0.9332
4271.62,0.9328
4275.14,0.9306
4278.67,0.9305
4282.2,0.9322
4285.74,0.9357
4289.29,0.9403
4292.84,0.9455
4296.4,0.9499
4299.96,0.9541
4303.53,0.9569
4307.1,0.9591
4310.68,0.9604
4314.27,0.9618
4317.86,0.9638
4321.46,0.9655
4325.06,0.9661
4328.67,0.9671
4332.29,0.9683
4335.91,0.9693
4339.54,0.9706
4343.17,0.9716
4346.81,0.9721
4350.46,0.9731
4354.11,0.9734
4357.77,0.9731
4361.43,0.9729
4365.1,0.9727
4368.78,0.9724
4372.46,0.9726
4376.15,0.9716
4379.85,0.9712
4383.55,0.9716
4387.26,0.9725
4390.97,0.9726
4394.69,0.9727
4398.42,0.9729
4402.16,0.9734
4405.9,0.9734
4409.64,0.9739
4413.39,0.9747
4417.15,0.975
4420.92,0.9749
4424.69,0.9753
4428.47,0.9756
4432.25,0.9762
4436.04,0.9763
4439.84,0.9764
4443.65,0.9763
4447.46,0.9766
4451.27,0.9766
4455.1,0.9764
4458.93,0.9758
4462.77,0.976
4466.61,0.9762
4470.46,0.9764
4474.32,0.9762
4478.18,0.9761
4482.05,0.9761
4485.93,0.9762
4489.81,0.9757
4493.7,0.9756
4497.6,0.9751
4501.5,0.974
4505.41,0.9724
4509.33,0.9714
4513.25,0.9697
4517.18,0.9672
4521.12,0.9637
4525.07,0.9597
4529.02,0.9556
4532.98,0.9518
4536.94,0.9496
4540.92,0.9503
4544.9,0.954
4548.88,0.9599
4552.88,0.9657
4556.88,0.97
4560.88,0.9729
4564.9,0.9751
4568.92,0.9764
4572.95,0.9767
4576.98,0.9768
4581.03,0.9774
4585.08,0.9773
4589.13,0.9769
4593.2,0.9764
4597.27,0.9758
4601.35,0.9745
4605.44,0.974
4609.53,0.9735
4613.63,0.9723
4617.74,0.9715
4621.85,0.9722
4625.97,0.9729
4630.1,0.974
4634.24,0.975
4638.39,0.9752
4642.54,0.9755
4646.7,0.9759
4650.87,0.9764
4655.04,0.977
4659.22,0.9768
4663.41,0.9771
4667.61,0.9767
4671.81,0.9766
4676.03,0.9765
4680.25,0.9762
4684.47,0.9763
4688.71,0.9768
4692.95,0.9774
4697.2,0.9785
4701.46,0.9789
4705.73,0.9789
4710.0,0.9789
4714.28,0.9796
4718.57,0.9804
4722.87,0.9811
4727.17,0.9809
4731.49,0.9812
4735.81,0.9811
4740.13,0.9813
4744.47,0.9814
4748.82,0.9813
4753.17,0.981
4757.53,0.9811
4761.9,0.9811
4766.27,0.981
4770.66,0.9806
4775.05,0.9805
4779.45,0.98
4783.86,0.9795
4788.28,0.9783
4792.7,0.9763
4797.13,0.9733
4801.58,0.9696
4806.03,0.9654
4810.48,0.9605
4814.95,0.9544
4819.42,0.9477
4823.91,0.9411
4828.4,0.9349
4832.9,0.9295
4837.4,0.9241
4841.92,0.9167
4846.45,0.9083
4850.98,0.9
4855.52,0.8917
4860.07,0.8836
4864.63,0.8772
4869.2,0.8705
4873.77,0.8634
4878.36,0.8567
4882.95,0.851
4887.55,0.8453
4892.16,0.8395
4896.78,0.8338
4901.41,0.8285
4906.05,0.8232
4910.69,0.8185
4915.35,0.8142
4920.01,0.8103
4924.68,0.806
4929.36,0.8019
4934.05,0.7977
4938.75,0.794
4943.46,0.7908
4948.18,0.7881
4952.9,0.785
4957.64,0.7821
4962.38,0.7793
4967.13,0.7774
4971.89,0.7754
4976.67,0.7727
4981.45,0.7699
4986.23,0.7677
4991.03,0.7658
4995.84,0.7636
5000.66,0.7612
5005.49,0.7593
5010.32,0.7568
5015.17,0.7541
5020.02,0.752
5024.88,0.751
5029.76,0.7499
5034.64,0.7482
5039.53,0.7461
5044.43,0.7444
5049.35,0.7425
5054.27,0.7412
5059.2,0.7395
5064.14,0.7375
5069.09,0.7361
5074.05,0.7351
5079.02,0.7337
5084.0,0.7318
5088.98,0.7295
5093.98,0.7277
5098.99,0.726
5104.01,0.7246
5109.04,0.7232
5114.08,0.7232
5119.12,0.7239
5124.18,0.7247
5129.25,0.7235
5134.33,0.7199
5139.42,0.7165
5144.51,0.7143
5149.62,0.7124
5154.74,0.7112
5159.87,0.7099
5165.01,0.7092
5170.16,0.7086
5175.32,0.7081
5180.49,0.7075
5185.67,0.707
5190.86,0.7066
5196.06,0.7072
5201.27,0.7076
5206.49,0.7078
5211.72,0.7084
5216.96,0.7093
5222.22,0.7103
5227.48,0.7115
5232.76,0.7131
5238.04,0.7144
5243.34,0.7154
5248.64,0.7168
5253.96,0.7183
5259.29,0.7195
5264.63,0.7196
5269.98,0.7197
5275.34,0.72
5280.71,0.7206
5286.09,0.7211
5291.49,0.7213
5296.89,0.7204
5302.31,0.7198
5307.73,0.7197
5313.17,0.7197
5318.62,0.7199
5324.08,0.7206
5329.55,0.7215
5335.03,0.7229
5340.53,0.7234
5346.03,0.7242
5351.55,0.7252
5357.08,0.7261
5362.62,0.7268
5368.17,0.7279
5373.73,0.7291
5379.3,0.7308
5384.89,0.7327
5390.49,0.7361
5396.09,0.7408
5401.71,0.7474
5407.35,0.7542
5412.99,0.7603
5418.65,0.7651
5424.31,0.7695
5429.99,0.7735
5435.68,0.7779
5441.39,0.7833
5447.1,0.7905
5452.83,0.799
5458.57,0.8089
5464.32,0.8182
5470.08,0.8259
5475.86,0.8316
5481.65,0.8354
5487.45,0.8372
5493.26,0.8378
5499.08,0.8378
5504.92,0.8378
5510.77,0.8378
5516.63,0.8378
5522.51,0.8376
5528.39,0.838
5534.29,0.8385
5540.21,0.8394
5546.13,0.8407
5552.07,0.8417
5558.02,0.8422
5563.98,0.8433
5569.96,0.8441
5575.95,0.8442
5581.95,0.8436
5587.96,0.8439
5593.99,0.8449
5600.03,0.847
5606.08,0.8497
5612.15,0.8537
5618.23,0.8581
5624.32,0.8627
5630.43,0.8669
5636.55,0.8717
5642.68,0.8763
5648.83,0.8805
5654.99,0.8843
5661.16,0.8872
5667.35,0.8895
5673.55,0.892
5679.76,0.8949
5685.99,0.8988
5692.23,0.9031
5698.48,0.9077
5704.75,0.9113
5711.03,0.9125
5717.33,0.9113
5723.64,0.9095
5729.96,0.9083
5736.3,0.9078
5742.65,0.907
5749.02,0.9065
5755.4,0.9056
5761.79,0.9049
5768.2,0.9041
5774.62,0.9037
5781.06,0.9027
5787.51,0.9006
5793.98,0.8972
5800.46,0.8932
5806.95,0.8884
5813.46,0.884
5819.98,0.8813
5826.52,0.8808
5833.08,0.8816
5839.64,0.8852
5846.23,0.8899
5852.83,0.8959
5859.44,0.9012
5866.07,0.9044
5872.71,0.908
5879.37,0.9164
5886.04,0.9256
5892.73,0.9339
5899.43,0.9406
5906.15,0.9452
5912.88,0.9475
5919.63,0.9494
5926.4,0.9513
5933.18,0.9534
5939.97,0.9547
5946.78,0.9545
5953.61,0.9518
5960.45,0.9483
5967.31,0.9438
5974.18,0.9397
5981.07,0.9371
5987.98,0.9356
5994.9,0.9348
6001.84,0.9349
6008.79,0.9348
6015.76,0.9356
6022.75,0.9365
6029.75,0.9374
6036.77,0.9388
6043.81,0.9419
6050.86,0.9455
6057.93,0.9488
6065.01,0.9531
6072.11,0.9593
6079.23,0.9643
6086.36,0.9674
6093.51,0.9683
6100.68,0.9675
6107.87,0.9658
6115.07,0.9636
6122.29,0.9608
6129.52,0.9591
6136.78,0.9593
6144.05,0.9619
6151.34,0.9655
6158.64,0.9693
6165.96,0.972
6173.3,0.9735
6180.66,0.9739
6188.03,0.9744
6195.43,0.9748
6202.84,0.9758
6210.26,0.9768
6217.71,0.9769
6225.17,0.9759
6232.65,0.9744
6240.15,0.9726
6247.67,0.9719
6255.21,0.9712
6262.76,0.97
6270.33,0.9696
6277.92,0.97
6285.53,0.97
6293.16,0.9702
6300.8,0.9701
6308.47,0.9701
6316.15,0.9696
6323.85,0.9682
6331.57,0.9674
6339.31,0.9672
6347.07,0.9668
6354.85,0.9665
6362.65,0.9656
6370.46,0.9652
6378.3,0.9646
6386.15,0.9642
6394.02,0.9639
6401.92,0.9636
6409.83,0.9626
6417.76,0.9612
6425.71,0.958
6433.68,0.9541
6441.67,0.9486
6449.69,0.9423
6457.72,0.9353
6465.77,0.9277
6473.84,0.9211
6481.93,0.9164
6490.04,0.9114
6498.17,0.9075
6506.33,0.9048
6514.5,0.9027
6522.69,0.9011
6530.91,0.9002
6539.14,0.8996
6547.4,0.9001
6555.67,0.9004
6563.97,0.9013
6572.29,0.9031
6580.63,0.9049
6588.99,0.9063
6597.37,0.9076
6605.77,0.9083
6614.2,0.9103
6622.65,0.912
6631.11,0.914
6639.6,0.9157
6648.11,0.9179
6656.65,0.9201
6665.2,0.9225
6673.78,0.9245
6682.38,0.9269
6691.0,0.9289
6699.64,0.9306
6708.31,0.9324
6717.0,0.9346
6725.71,0.9369
6734.44,0.9401
6743.2,0.9447
6751.98,0.9509
6760.78,0.9528
6769.61,0.9506
6778.45,0.9479
6787.32,0.9461
6796.22,0.9456
6805.14,0.946
6814.08,0.9458
6823.04,0.9463
6832.03,0.9469
6841.04,0.9473
6850.08,0.9475
6859.14,0.9483
6868.22,0.9493
6877.33,0.9504
6886.46,0.951
6895.62,0.9522
6904.8,0.9532
6914.01,0.9542
6923.24,0.956
6932.49,0.9581
6941.77,0.9602
6951.07,0.964
6960.4,0.9683
6969.76,0.9688
6979.14,0.9652
6988.54,0.9639
6997.97,0.9649
7007.43,0.967
7016.91,0.9695
7026.41,0.97
7035.95,0.9681
7045.51,0.9664
7055.09,0.9655
7064.7,0.966
7074.34,0.9671
7084.0,0.9689
7093.69,0.9704
7103.41,0.9726
7113.15,0.9737
7122.92,0.9737
7132.71,0.9738
7142.54,0.9741
7152.39,0.9742
7162.27,0.9753
7172.17,0.9756
7182.1,0.9758
7192.06,0.9757
7202.05,0.9761
7212.07,0.9767
7222.11,0.9774
7232.18,0.9778
7242.28,0.9788
7252.41,0.9796
7262.57,0.9806
7272.75,0.9813
7282.96,0.9818
7293.21,0.9823
7303.48,0.9833
7313.78,0.9838
7324.1,0.9842
7334.46,0.9842
7344.85,0.9848
7355.27,0.9855
7365.71,0.9861
7376.19,0.986
7386.7,0.9866
7397.23,0.9863
7407.8,0.9863
7418.39,0.9868
7429.02,0.9867
7439.68,0.9863
7450.37,0.9867
7461.08,0.9867
7471.83,0.9871
7482.61,0.9874
7493.43,0.9874
7504.27,0.9872
7515.14,0.9877
7526.05,0.9874
7536.99,0.9877
7547.96,0.988
7558.96,0.9878
7569.99,0.988
7581.06,0.9888
7592.15,0.9889
7603.28,0.9891
7614.45,0.9892
7625.64,0.9894
7636.87,0.9892
7648.14,0.9891
7659.43,0.989
7670.76,0.9893
7682.12,0.9896
7693.52,0.9901
7704.95,0.9902
7716.41,0.9903
7727.91,0.9902
7739.44,0.9902
7751.01,0.9898
7762.61,0.9899
7774.25,0.99
7785.92,0.9905
7797.63,0.99
7809.37,0.9901
7821.15,0.9904
7832.96,0.9906
7844.81,0.9906
7856.69,0.9908
7868.61,0.9904
7880.57,0.9904
7892.56,0.9898
7904.59,0.9896
7916.66,0.9893
7928.76,0.9891
7940.9,0.9887
7953.08,0.9884
7965.29,0.9878
7977.55,0.9878
7989.84,0.9872
8002.17,0.9865
8014.53,0.986
8026.94,0.9852
8039.38,0.9841
8051.86,0.9834
8064.38,0.9827
8076.94,0.9812
8089.54,0.9785
8102.18,0.9758
8114.86,0.9724
8127.57,0.9684
8140.33,0.9634
8153.13,0.9574
8165.96,0.9506
8178.84,0.9427
8191.76,0.9329
8204.72,0.9219
8217.72,0.9088
8230.76,0.8928
8243.85,0.8739
8256.97,0.8525
8270.14,0.8276
8283.35,0.7998
8296.6,0.773
8309.89,0.7538
8323.23,0.7424
8336.61,0.735
8350.03,0.7273
8363.5,0.7186
8377.01,0.7077
8390.56,0.6945
8404.16,0.6771
8417.8,0.6542
8431.48,0.626
8445.21,0.5997
8458.99,0.5843
8472.81,0.5833
8486.67,0.5894
8500.58,0.5984
8514.54,0.6093
8528.54,0.6205
8542.59,0.6309
8556.68,0.6394
8570.83,0.6455
8585.01,0.6492
8599.25,0.6498
8613.53,0.6495
8627.86,0.6486
8642.24,0.648
8656.66,0.6462
8671.14,0.6428
8685.66,0.6395
8700.23,0.6362
8714.85,0.6314
8729.52,0.626
8744.24,0.62
8759.01,0.6159
8773.83,0.6117
8788.69,0.6087
8803.61,0.6075
8818.58,0.6083
8833.6,0.6113
8848.68,0.6193
8863.8,0.6347
8878.97,0.6557
8894.2,0.6784
8909.48,0.7035
8924.81,0.7274
8940.2,0.7487
8955.64,0.7663
8971.13,0.7818
8986.67,0.7946
9002.27,0.8066
9017.93,0.8178
9033.64,0.8296
9049.4,0.8419
9065.22,0.8562
9081.09,0.8698
9097.02,0.8792
9113.0,0.8851
9129.04,0.892
9145.14,0.8984
9161.3,0.9044
9177.51,0.9097
9193.78,0.9129
9210.11,0.9158
9226.49,0.9196
9242.94,0.9226
9259.44,0.9255
9276.0,0.9278
9292.62,0.9295
9309.3,0.9305
9326.04,0.9324
9342.84,0.934
9359.7,0.9361
9376.63,0.9378
9393.61,0.9382
9410.66,0.9384
9427.76,0.9403
9444.93,0.9411
9462.17,0.9422
9479.46,0.9429
9496.82,0.9444
9514.24,0.9447
9531.73,0.9449
9549.28,0.9458
9566.89,0.9471
9584.58,0.9471
9602.32,0.9472
9620.13,0.9476
9638.01,0.9489
9655.96,0.949
9673.97,0.9499
9692.05,0.951
9710.19,0.952
9728.41,0.952
9746.69,0.9523
9765.04,0.9521
9783.47,0.9524
9801.96,0.9527
9820.52,0.9537
9839.15,0.9537
9857.85,0.9539
9876.62,0.9539
9895.47,0.9554
9914.39,0.9568
9933.38,0.9576
9952.44,0.9576
9971.58,0.9579
9990.78,0.958
10010.07,0.9583
10029.43,0.9583
10048.86,0.9583
10068.37,0.9593
10087.95,0.9598
10107.61,0.9592
10127.35,0.9599
10147.17,0.9609
10167.06,0.9617
10187.03,0.9611
10207.08,0.9619
10227.21,0.9627
10247.42,0.9624
10267.71,0.9623
10288.07,0.963
10308.52,0.9627
10329.06,0.9628
10349.67,0.9629
10370.36,0.9631
10391.14,0.9624
10412.0,0.9627
10432.95,0.9622
10453.98,0.9629
10475.1,0.9633
10496.3,0.963
10517.58,0.9627
10538.96,0.9631
10560.42,0.9632
10582.0,0.9631
10603.6,0.9624
10625.3,0.9628
10647.1,0.9635
10669.0,0.9644
10691.0,0.9648
10713.1,0.9647
10735.3,0.9649
10757.6,0.9654
10779.9,0.9653
10802.4,0.9651
10824.9,0.9639
10847.6,0.9629
10870.3,0.9622
10893.1,0.9629
10916.1,0.9633
10939.1,0.9632
10962.2,0.9629
10985.4,0.9625
11008.7,0.9623
11032.2,0.9629
11055.7,0.9629
11079.3,0.9631
11103.0,0.9627
11126.9,0.9623
11150.8,0.9618
11174.8,0.9624
11198.9,0.9626
11223.2,0.9634
11247.5,0.9633
11271.9,0.964
11296.5,0.9646
11321.2,0.9644
11345.9,0.9623
11370.8,0.9618
11395.8,0.9616
11420.9,0.9613
11446.1,0.9606
11471.4,0.9611
11496.8,0.9607
11522.4,0.9604
11548.0,0.96
11573.8,0.9606
11599.7,0.9606
11625.7,0.9602
11651.8,0.9601
11678.1,0.96
11704.4,0.9592
11730.9,0.9602
11757.5,0.9602
11784.2,0.9601
11811.0,0.9607
11838.0,0.9612
11865.1,0.9601
11892.3,0.9605
11919.6,0.9607
11947.1,0.9611
11974.7,0.9613
12002.4,0.962
12030.2,0.962
12058.2,0.9631
12086.3,0.9642
12114.5,0.9651
12142.9,0.9651
12171.4,0.9661
12200.0,0.9663
12228.8,0.9661
12257.7,0.9655
12286.7,0.9667
12315.9,0.9673
12345.2,0.9682
12374.7,0.9681
12404.3,0.9688
12434.0,0.9691
12463.9,0.9697
12493.9,0.9698
12524.1,0.9699
12554.4,0.9704
12584.9,0.9712
12615.5,0.9715
12646.3,0.9721
12677.2,0.9716
12708.2,0.9715
12739.5,0.9714
12770.8,0.9721
12802.4,0.9723
12834.0,0.9723
12865.9,0.9722
12897.9,0.9727
12930.0,0.9726
12962.3,0.9733
12994.8,0.9729
13027.5,0.9725
13060.3,0.9723
13093.3,0.9728
13126.4,0.9726
13159.7,0.9734
13193.2,0.9739
13226.8,0.9735
13260.6,0.9729
13294.6,0.9739
13328.8,0.9743
13363.2,0.9744
13397.7,0.974
13432.4,0.9744
13467.2,0.9746
13502.3,0.9759
13537.6,0.9756
13573.0,0.9762
13608.6,0.9761
13644.4,0.9761
13680.4,0.976
13716.6,0.9771
13753.0,0.9767
13789.5,0.9762
13826.3,0.9756
13863.3,0.977
13900.4,0.9787
13937.8,0.9802
13975.3,0.9786
14013.1,0.9793
14051.1,0.9792
14089.2,0.9777
14127.6,0.9772
14166.2,0.9804
14205.0,0.9819
14244.0,0.9805
14283.2,0.978
14322.7,0.9792
14362.4,0.9792
14402.2,0.9826
14442.3,0.9827
14482.7,0.9828
14523.2,0.9819
14564.0,0.9862
14605.0,0.9869
14646.3,0.9883
14687.8,0.9878
14729.5,0.9893
14771.4,0.9867
14813.6,0.981
14856.0,0.9671
14898.7,0.9745
14941.7,0.9809
14984.8,0.9912
15028.3,0.992
15071.9,0.9948
15115.9,0.9906
15160.0,0.9901
