Database of Origin,University of Winnipeg Spectrophotometer Facility
Sample Description,8. Sulfates - Jim Crowley (USGS) IR spectra /  Crowley IR spectra
Date Added,2016-07-15 22:04:24.183224

Data ID,CWL_SUL_19          
Sample ID,Gypsum
Mineral Name,Gypsum
Locality,"Baja California, Mexico"
Grain Size,~250
Viewing Geometry,unknown
Resolution,0.08-40
Material Class,Sulfate

Wavelength
2083.55,0.7456
2084.39,0.7436
2085.23,0.7446
2086.06,0.7474
2086.9,0.7471
2087.74,0.7448
2088.58,0.7448
2089.43,0.7426
2090.27,0.7421
2091.11,0.7454
2091.95,0.7456
2092.8,0.7475
2093.64,0.7496
2094.49,0.748
2095.33,0.748
2096.18,0.7477
2097.03,0.7488
2097.88,0.748
2098.73,0.7467
2099.58,0.7467
2100.43,0.7492
2101.28,0.7527
2102.13,0.7538
2102.98,0.7525
2103.83,0.7529
2104.69,0.754
2105.54,0.7564
2106.4,0.7565
2107.25,0.7532
2108.11,0.7509
2108.97,0.7523
2109.83,0.7539
2110.68,0.7559
2111.54,0.7566
2112.4,0.7561
2113.27,0.7562
2114.13,0.7618
2114.99,0.7641
2115.85,0.7612
2116.72,0.7583
2117.58,0.7594
2118.44,0.7601
2119.31,0.7612
2120.18,0.7627
2121.04,0.7648
2121.91,0.7642
2122.78,0.7614
2123.65,0.7631
2124.52,0.7642
2125.39,0.7633
2126.26,0.765
2127.13,0.7674
2128.01,0.7673
2128.88,0.7651
2129.75,0.7669
2130.63,0.7688
2131.5,0.7692
2132.38,0.7679
2133.26,0.7681
2134.14,0.7673
2135.01,0.768
2135.89,0.7678
2136.77,0.7684
2137.65,0.7687
2138.54,0.7691
2139.42,0.7689
2140.3,0.7678
2141.18,0.7684
2142.07,0.7714
2142.95,0.7734
2143.84,0.7743
2144.73,0.7751
2145.61,0.7743
2146.5,0.7721
2147.39,0.7701
2148.28,0.7712
2149.17,0.7731
2150.06,0.7753
2150.95,0.777
2151.85,0.777
2152.74,0.7762
2153.63,0.7752
2154.53,0.7778
2155.42,0.7789
2156.32,0.7786
2157.22,0.7811
2158.11,0.7826
2159.01,0.7818
2159.91,0.7822
2160.81,0.7817
2161.71,0.7819
2162.61,0.7819
2163.52,0.7822
2164.42,0.7826
2165.32,0.784
2166.23,0.7854
2167.13,0.7856
2168.04,0.7862
2168.94,0.7883
2169.85,0.7873
2170.76,0.7887
2171.67,0.7892
2172.58,0.7894
2173.49,0.7882
2174.4,0.7885
2175.31,0.7893
2176.23,0.7893
2177.14,0.7907
2178.05,0.7909
2178.97,0.7904
2179.89,0.7908
2180.8,0.7901
2181.72,0.7913
2182.64,0.791
2183.56,0.7914
2184.48,0.7908
2185.4,0.7906
2186.32,0.7891
2187.24,0.7916
2188.16,0.7949
2189.09,0.7938
2190.01,0.7927
2190.94,0.7941
2191.86,0.7923
2192.79,0.7929
2193.72,0.7946
2194.64,0.7956
2195.57,0.7933
2196.5,0.7937
2197.43,0.7948
2198.37,0.7955
2199.3,0.7964
2200.23,0.797
2201.16,0.7963
2202.1,0.7979
2203.03,0.7998
2203.97,0.8009
2204.91,0.8001
2205.85,0.8014
2206.78,0.8021
2207.72,0.8031
2208.66,0.8043
2209.61,0.8056
2210.55,0.8074
2211.49,0.8065
2212.43,0.8056
2213.38,0.8063
2214.32,0.8058
2215.27,0.8066
2216.21,0.8077
2217.16,0.8065
2218.11,0.805
2219.06,0.8073
2220.01,0.8096
2220.96,0.8104
2221.91,0.809
2222.86,0.8068
2223.82,0.8048
2224.77,0.8022
2225.73,0.8012
2226.68,0.802
2227.64,0.8009
2228.6,0.7982
2229.55,0.795
2230.51,0.7934
2231.47,0.7942
2232.43,0.7931
2233.39,0.7906
2234.36,0.7917
2235.32,0.7909
2236.28,0.791
2237.25,0.7908
2238.21,0.7899
2239.18,0.7896
2240.15,0.7881
2241.12,0.7863
2242.08,0.7867
2243.05,0.7883
2244.02,0.7902
2245.0,0.7888
2245.97,0.7867
2246.94,0.7877
2247.91,0.7876
2248.89,0.7863
2249.87,0.7887
2250.84,0.7902
2251.82,0.7898
2252.8,0.79
2253.78,0.789
2254.76,0.7883
2255.74,0.7903
2256.72,0.7894
2257.7,0.7881
2258.68,0.7888
2259.67,0.7914
2260.65,0.7925
2261.64,0.795
2262.63,0.7944
2263.61,0.7935
2264.6,0.7949
2265.59,0.7941
2266.58,0.7921
2267.57,0.7936
2268.56,0.7952
2269.56,0.7956
2270.55,0.7936
2271.55,0.7945
2272.54,0.7938
2273.54,0.7915
2274.53,0.7905
2275.53,0.7906
2276.53,0.7906
2277.53,0.7895
2278.53,0.7875
2279.53,0.7881
2280.54,0.7885
2281.54,0.7887
2282.54,0.7882
2283.55,0.7865
2284.55,0.7849
2285.56,0.7858
2286.57,0.7849
2287.58,0.7849
2288.59,0.7849
2289.6,0.7836
2290.61,0.7819
2291.62,0.7808
2292.63,0.7802
2293.65,0.7811
2294.66,0.7823
2295.68,0.7833
2296.69,0.7836
2297.71,0.7826
2298.73,0.782
2299.75,0.7823
2300.77,0.7833
2301.79,0.7844
2302.81,0.7828
2303.84,0.783
2304.86,0.7829
2305.88,0.7819
2306.91,0.7814
2307.94,0.7821
2308.96,0.7817
2309.99,0.7832
2311.02,0.7858
2312.05,0.7873
2313.08,0.7867
2314.12,0.7871
2315.15,0.7865
2316.18,0.7846
2317.22,0.7836
2318.25,0.7833
2319.29,0.7844
2320.33,0.7858
2321.37,0.7877
2322.41,0.7884
2323.45,0.7868
2324.49,0.7846
2325.53,0.7839
2326.57,0.7865
2327.62,0.7878
2328.66,0.7879
2329.71,0.7877
2330.76,0.7873
2331.8,0.788
2332.85,0.7891
2333.9,0.7903
2334.95,0.791
2336.01,0.7921
2337.06,0.7924
2338.11,0.7906
2339.17,0.7923
2340.22,0.7939
2341.28,0.7955
2342.34,0.7953
2343.39,0.7957
2344.45,0.7971
2345.51,0.799
2346.57,0.8004
2347.64,0.8006
2348.7,0.7993
2349.76,0.8001
2350.83,0.8006
2351.9,0.8023
2352.96,0.8046
2354.03,0.806
2355.1,0.8056
2356.17,0.8056
2357.24,0.8089
2358.31,0.8126
2359.39,0.8118
2360.46,0.8105
2361.53,0.8124
2362.61,0.8139
2363.69,0.8138
2364.76,0.8151
2365.84,0.8163
2366.92,0.8196
2368.0,0.822
2369.09,0.8235
2370.17,0.8234
2371.25,0.8225
2372.34,0.8231
2373.42,0.8264
2374.51,0.8287
2375.6,0.8302
2376.69,0.8324
2377.78,0.8349
2378.87,0.8368
2379.96,0.8379
2381.05,0.8373
2382.14,0.8393
2383.24,0.8422
2384.33,0.8444
2385.43,0.8456
2386.53,0.8469
2387.63,0.8475
2388.73,0.8492
2389.83,0.8511
2390.93,0.855
2392.03,0.8568
2393.14,0.8575
2394.24,0.8576
2395.35,0.86
2396.45,0.8634
2397.56,0.8661
2398.67,0.8677
2399.78,0.8687
2400.89,0.8693
2402.0,0.8709
2403.12,0.8718
2404.23,0.8735
2405.35,0.8762
2406.46,0.878
2407.58,0.8782
2408.7,0.8798
2409.82,0.8808
2410.94,0.8806
2412.06,0.8823
2413.18,0.8842
2414.3,0.8835
2415.43,0.8854
2416.55,0.8865
2417.68,0.8854
2418.81,0.8853
2419.94,0.8893
2421.07,0.8917
2422.2,0.8902
2423.33,0.8893
2424.46,0.8914
2425.6,0.8922
2426.73,0.891
2427.87,0.8896
2429.0,0.8906
2430.14,0.8912
2431.28,0.8931
2432.42,0.8927
2433.56,0.8921
2434.71,0.8922
2435.85,0.8945
2436.99,0.8965
2438.14,0.8954
2439.29,0.8958
2440.43,0.8964
2441.58,0.8962
2442.73,0.8946
2443.88,0.8945
2445.04,0.8956
2446.19,0.8967
2447.34,0.8987
2448.5,0.8987
2449.66,0.8973
2450.81,0.8966
2451.97,0.8973
2453.13,0.8971
2454.29,0.8968
2455.45,0.8986
2456.62,0.9004
2457.78,0.8994
2458.95,0.8999
2460.11,0.8996
2461.28,0.9002
2462.45,0.9013
2463.62,0.9024
2464.79,0.9019
2465.96,0.9027
2467.14,0.9031
2468.31,0.9026
2469.49,0.9017
2470.66,0.9027
2471.84,0.9031
2473.02,0.904
2474.2,0.9053
2475.38,0.9064
2476.56,0.907
2477.74,0.908
2478.93,0.9068
2480.11,0.9072
2481.3,0.9075
2482.49,0.9059
2483.68,0.9046
2484.87,0.906
2486.06,0.907
2487.25,0.9079
2488.44,0.9072
2489.64,0.9066
2490.83,0.9056
2492.03,0.9061
2493.23,0.9063
2494.43,0.9064
2495.63,0.9063
2496.83,0.9066
2498.03,0.9068
2499.24,0.9068
2500.44,0.9062
2501.65,0.9076
2502.86,0.9065
2504.06,0.9046
2505.27,0.9044
2506.48,0.9044
2507.7,0.9047
2508.91,0.9056
2510.12,0.9058
2511.34,0.9034
2512.56,0.9015
2513.77,0.9037
2514.99,0.9038
2516.21,0.9038
2517.43,0.9031
2518.66,0.9046
2519.88,0.9038
2521.11,0.9028
2522.33,0.9031
2523.56,0.9039
2524.79,0.9032
2526.02,0.9033
2527.25,0.9038
2528.48,0.9032
2529.71,0.9019
2530.95,0.9014
2532.18,0.9013
2533.42,0.9024
2534.66,0.9014
2535.9,0.9016
2537.14,0.9028
2538.38,0.9023
2539.62,0.9021
2540.87,0.9015
2542.11,0.9013
2543.36,0.9038
2544.61,0.9041
2545.86,0.9041
2547.11,0.9051
2548.36,0.9042
2549.61,0.9028
2550.87,0.9034
2552.12,0.9038
2553.38,0.904
2554.64,0.905
2555.89,0.9062
2557.16,0.9077
2558.42,0.9094
2559.68,0.9085
2560.94,0.9077
2562.21,0.9077
2563.48,0.9075
2564.74,0.9068
2566.01,0.9076
2567.28,0.909
2568.55,0.9085
2569.83,0.9077
2571.1,0.9089
2572.38,0.9078
2573.65,0.908
2574.93,0.9078
2576.21,0.9074
2577.49,0.908
2578.77,0.9086
2580.05,0.9082
2581.34,0.9073
2582.62,0.9064
2583.91,0.907
2585.2,0.909
2586.49,0.9083
2587.78,0.9075
2589.07,0.9096
2590.36,0.9107
2591.66,0.9111
2592.95,0.9106
2594.25,0.9092
2595.55,0.9073
2596.85,0.9083
2598.15,0.9085
2599.45,0.9086
2600.76,0.9084
2602.06,0.9084
2603.37,0.9085
2604.67,0.9098
2605.98,0.9102
2607.29,0.9113
2608.6,0.9126
2609.92,0.9123
2611.23,0.9112
2612.55,0.9105
2613.86,0.9099
2615.18,0.9109
2616.5,0.9117
2617.82,0.9115
2619.14,0.9125
2620.47,0.9154
2621.79,0.915
2623.12,0.9129
2624.45,0.9117
2625.77,0.9131
2627.1,0.9138
2628.44,0.9148
2629.77,0.9149
2631.1,0.9154
2632.44,0.916
2633.78,0.9151
2635.11,0.9137
2636.45,0.9147
2637.79,0.9167
2639.14,0.9181
2640.48,0.9172
2641.83,0.9176
2643.17,0.9182
2644.52,0.9182
2645.87,0.9188
2647.22,0.9205
2648.57,0.9212
2649.92,0.9213
2651.28,0.9212
2652.64,0.9229
2653.99,0.9233
2655.35,0.9232
2656.71,0.9245
2658.07,0.9264
2659.44,0.9271
2660.8,0.928
2662.17,0.9299
2663.53,0.9304
2664.9,0.9304
2666.27,0.9314
2667.64,0.9314
2669.02,0.9323
2670.39,0.9333
2671.77,0.9351
2673.14,0.9359
2674.52,0.9356
2675.9,0.9369
2677.28,0.9387
2678.67,0.9403
2680.05,0.9421
2681.44,0.9433
2682.82,0.9443
2684.21,0.9448
2685.6,0.9466
2686.99,0.9479
2688.39,0.9501
2689.78,0.9522
2691.18,0.9528
2692.57,0.9538
2693.97,0.9556
2695.37,0.9565
2696.77,0.9582
2698.18,0.9589
2699.58,0.9608
2700.99,0.9626
2702.4,0.9642
2703.8,0.9659
2705.22,0.9666
2706.63,0.967
2708.04,0.9674
2709.45,0.9672
2710.87,0.9689
2712.29,0.9701
2713.71,0.9707
2715.13,0.9708
2716.55,0.9726
2717.97,0.973
2719.4,0.9738
2720.83,0.9743
2722.25,0.9751
2723.68,0.976
2725.12,0.9757
2726.55,0.9756
2727.98,0.9754
2729.42,0.9755
2730.86,0.9773
2732.29,0.9775
2733.73,0.9787
2735.18,0.9796
2736.62,0.9787
2738.06,0.9769
2739.51,0.9779
2740.96,0.9797
2742.41,0.9807
2743.86,0.9811
2745.31,0.9815
2746.77,0.9816
2748.22,0.9824
2749.68,0.9824
2751.14,0.9826
2752.6,0.9832
2754.06,0.9846
2755.52,0.9846
2756.99,0.9844
2758.45,0.9849
2759.92,0.9855
2761.39,0.9849
2762.86,0.9846
2764.33,0.9844
2765.81,0.9845
2767.28,0.9849
2768.76,0.9863
2770.24,0.9866
2771.72,0.9853
2773.2,0.9847
2774.69,0.986
2776.17,0.9867
2777.66,0.9859
2779.15,0.9844
2780.64,0.9848
2782.13,0.9857
2783.62,0.9862
2785.12,0.9853
2786.61,0.9845
2788.11,0.9852
2789.61,0.9858
2791.11,0.9842
2792.62,0.9841
2794.12,0.9855
2795.63,0.9859
2797.14,0.9852
2798.64,0.9852
2800.16,0.9855
2801.67,0.9849
2803.18,0.9837
2804.7,0.9828
2806.22,0.9832
2807.74,0.9831
2809.26,0.9822
2810.78,0.9833
2812.3,0.9838
2813.83,0.9823
2815.36,0.9812
2816.89,0.9819
2818.42,0.9821
2819.95,0.9824
2821.48,0.9826
2823.02,0.9829
2824.56,0.9827
2826.1,0.9821
2827.64,0.9819
2829.18,0.982
2830.72,0.9821
2832.27,0.9835
2833.82,0.9833
2835.37,0.9816
2836.92,0.9816
2838.47,0.9833
2840.02,0.984
2841.58,0.9842
2843.14,0.9847
2844.7,0.985
2846.26,0.985
2847.82,0.9852
2849.39,0.9847
2850.95,0.9848
2852.52,0.9847
2854.09,0.9857
2855.66,0.9852
2857.24,0.9852
2858.81,0.986
2860.39,0.9854
2861.97,0.9846
2863.55,0.9849
2865.13,0.9852
2866.71,0.9861
2868.3,0.9864
2869.88,0.9865
2871.47,0.9865
2873.06,0.9862
2874.66,0.986
2876.25,0.9863
2877.85,0.9862
2879.45,0.9862
2881.04,0.986
2882.65,0.986
2884.25,0.9856
2885.85,0.9859
2887.46,0.9854
2889.07,0.9848
2890.68,0.9851
2892.29,0.9859
2893.91,0.9863
2895.52,0.9861
2897.14,0.9854
2898.76,0.9846
2900.38,0.9845
2902.0,0.9847
2903.63,0.985
2905.25,0.985
2906.88,0.9846
2908.51,0.9846
2910.14,0.9835
2911.78,0.9828
2913.41,0.9822
2915.05,0.9819
2916.69,0.9816
2918.33,0.9809
2919.98,0.9806
2921.62,0.9815
2923.27,0.9812
2924.92,0.9801
2926.57,0.9793
2928.22,0.9792
2929.87,0.9783
2931.53,0.9783
2933.19,0.9788
2934.85,0.9792
2936.51,0.9791
2938.17,0.9796
2939.84,0.9804
2941.51,0.9806
2943.18,0.98
2944.85,0.9804
2946.52,0.9809
2948.19,0.9814
2949.87,0.9819
2951.55,0.9826
2953.23,0.9824
2954.91,0.9821
2956.6,0.9817
2958.28,0.9813
2959.97,0.9814
2961.66,0.9826
2963.36,0.9835
2965.05,0.9834
2966.75,0.9832
2968.44,0.9829
2970.14,0.9822
2971.85,0.9823
2973.55,0.9828
2975.26,0.983
2976.96,0.9829
2978.67,0.9835
2980.39,0.9827
2982.1,0.9832
2983.82,0.9836
2985.53,0.9833
2987.25,0.9827
2988.97,0.983
2990.7,0.9826
2992.42,0.9824
2994.15,0.983
2995.88,0.9833
2997.61,0.9829
2999.35,0.9827
3001.08,0.9828
3002.82,0.9834
3004.56,0.9833
3006.3,0.9834
3008.04,0.9835
3009.79,0.9834
3011.54,0.9831
3013.29,0.9839
3015.04,0.9841
3016.79,0.9839
3018.55,0.9833
3020.31,0.9831
3022.07,0.9823
3023.83,0.982
3025.59,0.983
3027.36,0.9839
3029.13,0.9832
3030.9,0.9835
3032.67,0.9838
3034.44,0.9832
3036.22,0.9825
3038.0,0.9824
3039.78,0.9823
3041.56,0.9821
3043.35,0.9826
3045.14,0.9829
3046.92,0.9822
3048.72,0.9817
3050.51,0.982
3052.3,0.9825
3054.1,0.9824
3055.9,0.9829
3057.7,0.9831
3059.51,0.9824
3061.31,0.9819
3063.12,0.9824
3064.93,0.9823
3066.74,0.9821
3068.56,0.9816
3070.37,0.9816
3072.19,0.9818
3074.01,0.9828
3075.84,0.983
3077.66,0.9822
3079.49,0.9819
3081.32,0.9827
3083.15,0.983
3084.99,0.9826
3086.82,0.9818
3088.66,0.9815
3090.5,0.9812
3092.34,0.981
3094.19,0.9811
3096.04,0.9816
3097.89,0.9813
3099.74,0.9809
3101.59,0.9811
3103.45,0.9813
3105.31,0.9813
3107.17,0.9815
3109.03,0.9811
3110.89,0.9806
3112.76,0.9804
3114.63,0.9806
3116.5,0.9803
3118.38,0.9802
3120.25,0.9798
3122.13,0.9803
3124.01,0.9804
3125.89,0.9797
3127.78,0.9792
3129.67,0.9793
3131.56,0.9797
3133.45,0.9797
3135.34,0.9792
3137.24,0.9793
3139.14,0.9793
3141.04,0.979
3142.94,0.9781
3144.85,0.9784
3146.76,0.9785
3148.67,0.9787
3150.58,0.9786
3152.5,0.9781
3154.41,0.9776
3156.33,0.9777
3158.25,0.9779
3160.18,0.9773
3162.11,0.976
3164.04,0.9753
3165.97,0.9755
3167.9,0.9758
3169.84,0.9755
3171.78,0.9756
3173.72,0.9756
3175.66,0.9755
3177.61,0.9758
3179.55,0.9757
3181.5,0.9748
3183.46,0.9742
3185.41,0.9741
3187.37,0.9742
3189.33,0.974
3191.29,0.974
3193.26,0.9734
3195.23,0.9733
3197.2,0.9726
3199.17,0.9724
3201.14,0.9719
3203.12,0.9714
3205.1,0.9714
3207.08,0.9719
3209.07,0.9718
3211.05,0.9717
3213.04,0.9712
3215.03,0.9708
3217.03,0.9704
3219.03,0.9705
3221.02,0.9701
3223.03,0.9697
3225.03,0.9696
3227.04,0.9692
3229.05,0.9684
3231.06,0.9683
3233.07,0.968
3235.09,0.9678
3237.11,0.9676
3239.13,0.9674
3241.15,0.967
3243.18,0.9663
3245.21,0.966
3247.24,0.9665
3249.28,0.9664
3251.31,0.9665
3253.35,0.9657
3255.4,0.9647
3257.44,0.9642
3259.49,0.9645
3261.54,0.9643
3263.59,0.9637
3265.65,0.9632
3267.7,0.9629
3269.76,0.9622
3271.83,0.9619
3273.89,0.962
3275.96,0.9622
3278.03,0.9615
3280.1,0.9608
3282.18,0.9607
3284.26,0.9602
3286.34,0.9595
3288.42,0.9593
3290.51,0.9584
3292.6,0.9582
3294.69,0.958
3296.78,0.9578
3298.88,0.9575
3300.98,0.9572
3303.08,0.9564
3305.19,0.9556
3307.3,0.9549
3309.41,0.9552
3311.52,0.955
3313.64,0.9538
3315.75,0.9533
3317.88,0.9537
3320.0,0.9533
3322.13,0.9525
3324.26,0.9516
3326.39,0.951
3328.52,0.9506
3330.66,0.95
3332.8,0.9496
3334.94,0.9498
3337.09,0.9496
3339.24,0.9493
3341.39,0.9489
3343.54,0.948
3345.7,0.9469
3347.86,0.9465
3350.02,0.9462
3352.19,0.9454
3354.36,0.9445
3356.53,0.9444
3358.7,0.9442
3360.88,0.9436
3363.06,0.9427
3365.24,0.9427
3367.43,0.9424
3369.61,0.9418
3371.8,0.9409
3374.0,0.9403
3376.19,0.9398
3378.39,0.9395
3380.6,0.9389
3382.8,0.9383
3385.01,0.9372
3387.22,0.9362
3389.43,0.9357
3391.65,0.9358
3393.87,0.9351
3396.09,0.934
3398.32,0.9335
3400.55,0.9332
3402.78,0.933
3405.01,0.9326
3407.25,0.9318
3409.49,0.9313
3411.73,0.9306
3413.98,0.9296
3416.23,0.9282
3418.48,0.9278
3420.73,0.9282
3422.99,0.9277
3425.25,0.9264
3427.51,0.9263
3429.78,0.926
3432.05,0.9253
3434.32,0.925
3436.6,0.9248
3438.88,0.924
3441.16,0.9232
3443.45,0.9231
3445.73,0.9227
3448.02,0.9219
3450.32,0.9218
3452.61,0.9215
3454.91,0.921
3457.22,0.9197
3459.52,0.9191
3461.83,0.9186
3464.15,0.9183
3466.46,0.9178
3468.78,0.9172
3471.1,0.9162
3473.43,0.9158
3475.75,0.9159
3478.09,0.9155
3480.42,0.9143
3482.76,0.9138
3485.1,0.9136
3487.44,0.9128
3489.79,0.9114
3492.14,0.9105
3494.49,0.9101
3496.85,0.9103
3499.21,0.9095
3501.57,0.9086
3503.93,0.9079
3506.3,0.9074
3508.68,0.907
3511.05,0.9067
3513.43,0.9056
3515.81,0.905
3518.2,0.905
3520.58,0.9052
3522.98,0.9048
3525.37,0.9039
3527.77,0.9033
3530.17,0.9026
3532.57,0.9018
3534.98,0.9014
3537.39,0.9008
3539.81,0.901
3542.23,0.9007
3544.65,0.9
3547.07,0.8994
3549.5,0.8986
3551.93,0.8975
3554.36,0.8973
3556.8,0.8971
3559.24,0.8968
3561.69,0.896
3564.14,0.8956
3566.59,0.8951
3569.04,0.8943
3571.5,0.8935
3573.96,0.8928
3576.42,0.8921
3578.89,0.8915
3581.36,0.8907
3583.84,0.8901
3586.32,0.8897
3588.8,0.8897
3591.28,0.8891
3593.77,0.8877
3596.26,0.8865
3598.76,0.8857
3601.26,0.8851
3603.76,0.8848
3606.27,0.8839
3608.78,0.8831
3611.29,0.8829
3613.81,0.8824
3616.33,0.8814
3618.85,0.8805
3621.38,0.88
3623.91,0.8799
3626.44,0.8789
3628.98,0.8779
3631.52,0.8772
3634.06,0.8769
3636.61,0.8762
3639.16,0.8758
3641.72,0.8753
3644.28,0.8746
3646.84,0.8736
3649.41,0.8727
3651.98,0.8718
3654.55,0.8721
3657.13,0.8714
3659.71,0.8702
3662.29,0.8697
3664.88,0.869
3667.47,0.8681
3670.07,0.8681
3672.67,0.8679
3675.27,0.8677
3677.88,0.8667
3680.49,0.866
3683.1,0.8659
3685.72,0.8656
3688.34,0.8649
3690.96,0.8644
3693.59,0.8635
3696.23,0.8626
3698.86,0.8619
3701.5,0.862
3704.15,0.8624
3706.79,0.8624
3709.44,0.8619
3712.1,0.8617
3714.76,0.8616
3717.42,0.861
3720.09,0.8606
3722.76,0.8607
3725.43,0.8603
3728.11,0.8598
3730.79,0.8591
3733.48,0.8586
3736.17,0.8582
3738.86,0.8582
3741.56,0.8577
3744.26,0.8572
3746.97,0.8573
3749.67,0.857
3752.39,0.8564
3755.1,0.8565
3757.83,0.8567
3760.55,0.8561
3763.28,0.8554
3766.01,0.8552
3768.75,0.8554
3771.49,0.8561
3774.23,0.8561
3776.98,0.8551
3779.74,0.8547
3782.49,0.8548
3785.25,0.8549
3788.02,0.8557
3790.79,0.8558
3793.56,0.8554
3796.34,0.855
3799.12,0.855
3801.9,0.8548
3804.69,0.8545
3807.48,0.8546
3810.28,0.8553
3813.08,0.8552
3815.89,0.8548
3818.7,0.8542
3821.51,0.8542
3824.33,0.8542
3827.15,0.8544
3829.98,0.8543
3832.81,0.8538
3835.64,0.8535
3838.48,0.8537
3841.33,0.854
3844.17,0.8548
3847.03,0.8557
3849.88,0.8558
3852.74,0.856
3855.61,0.8567
3858.47,0.8573
3861.35,0.8587
3864.22,0.8604
3867.11,0.8619
3869.99,0.8623
3872.88,0.8622
3875.78,0.862
3878.67,0.8611
3881.58,0.8599
3884.48,0.8597
3887.4,0.8595
3890.31,0.8589
3893.23,0.8588
3896.16,0.8595
3899.09,0.8596
3902.02,0.8597
3904.96,0.8599
3907.9,0.8606
3910.85,0.8612
3913.8,0.862
3916.76,0.8623
3919.72,0.8621
3922.68,0.8621
3925.65,0.8632
3928.62,0.864
3931.6,0.8648
3934.58,0.865
3937.57,0.8655
3940.56,0.8663
3943.56,0.8672
3946.56,0.8679
3949.57,0.8686
3952.58,0.8701
3955.59,0.8718
3958.61,0.8731
3961.63,0.8745
3964.66,0.8754
3967.7,0.8766
3970.73,0.8776
3973.78,0.8783
3976.82,0.8781
3979.88,0.8776
3982.93,0.8771
3985.99,0.877
3989.06,0.8772
3992.13,0.8775
3995.21,0.8778
3998.29,0.8784
4001.37,0.8785
4004.46,0.8796
4007.55,0.8805
4010.65,0.8813
4013.76,0.8814
4016.87,0.8817
4019.98,0.8824
4023.1,0.8831
4026.22,0.8836
4029.35,0.8849
4032.48,0.8858
4035.62,0.8867
4038.76,0.8876
4041.91,0.8879
4045.06,0.8882
4048.22,0.8895
4051.38,0.8904
4054.55,0.8911
4057.72,0.8925
4060.9,0.8931
4064.08,0.8932
4067.27,0.8939
4070.46,0.8952
4073.66,0.8963
4076.86,0.897
4080.07,0.8977
4083.28,0.8988
4086.5,0.8998
4089.72,0.9003
4092.95,0.9013
4096.18,0.9024
4099.42,0.9033
4102.66,0.9037
4105.91,0.9047
4109.16,0.9056
4112.42,0.9064
4115.69,0.9068
4118.96,0.9077
4122.23,0.9088
4125.51,0.9095
4128.79,0.9099
4132.08,0.9111
4135.38,0.9122
4138.68,0.9128
4141.98,0.9137
4145.29,0.9149
4148.61,0.9158
4151.93,0.9162
4155.26,0.9167
4158.59,0.9176
4161.93,0.9186
4165.27,0.9195
4168.62,0.9202
4171.97,0.9211
4175.33,0.9218
4178.69,0.9226
4182.06,0.9235
4185.44,0.9247
4188.82,0.9256
4192.21,0.9263
4195.6,0.9271
4198.99,0.928
4202.4,0.9289
4205.8,0.9297
4209.22,0.9301
4212.64,0.9311
4216.06,0.9319
4219.49,0.9325
4222.93,0.9334
4226.37,0.9345
4229.82,0.9351
4233.27,0.9361
4236.73,0.9371
4240.19,0.9378
4243.66,0.9382
4247.14,0.9397
4250.62,0.9408
4254.1,0.9416
4257.6,0.9425
4261.09,0.9432
4264.6,0.9441
4268.11,0.945
4271.62,0.9456
4275.14,0.9463
4278.67,0.9472
4282.2,0.9481
4285.74,0.9491
4289.29,0.9501
4292.84,0.9505
4296.4,0.9513
4299.96,0.9522
4303.53,0.9529
4307.1,0.9537
4310.68,0.9544
4314.27,0.9548
4317.86,0.9555
4321.46,0.9566
4325.06,0.9574
4328.67,0.9578
4332.29,0.9584
4335.91,0.9589
4339.54,0.9594
4343.17,0.9598
4346.81,0.9603
4350.46,0.9607
4354.11,0.961
4357.77,0.9612
4361.43,0.9615
4365.1,0.9617
4368.78,0.9617
4372.46,0.9621
4376.15,0.963
4379.85,0.9635
4383.55,0.9632
4387.26,0.9634
4390.97,0.9636
4394.69,0.9638
4398.42,0.9644
4402.16,0.9653
4405.9,0.9659
4409.64,0.9661
4413.39,0.9658
4417.15,0.9657
4420.92,0.9662
4424.69,0.9665
4428.47,0.9668
4432.25,0.967
4436.04,0.9676
4439.84,0.9681
4443.65,0.9685
4447.46,0.9683
4451.27,0.968
4455.1,0.9681
4458.93,0.9682
4462.77,0.9679
4466.61,0.9682
4470.46,0.9687
4474.32,0.9686
4478.18,0.9682
4482.05,0.968
4485.93,0.9677
4489.81,0.968
4493.7,0.9685
4497.6,0.9685
4501.5,0.9683
4505.41,0.9684
4509.33,0.9681
4513.25,0.9681
4517.18,0.9685
4521.12,0.9686
4525.07,0.9685
4529.02,0.9685
4532.98,0.9681
4536.94,0.9678
4540.92,0.9676
4544.9,0.9672
4548.88,0.9672
4552.88,0.9672
4556.88,0.9669
4560.88,0.9665
4564.9,0.9663
4568.92,0.9658
4572.95,0.9652
4576.98,0.9648
4581.03,0.9646
4585.08,0.9642
4589.13,0.9637
4593.2,0.9631
4597.27,0.9625
4601.35,0.9623
4605.44,0.9623
4609.53,0.9624
4613.63,0.9622
4617.74,0.9618
4621.85,0.9614
4625.97,0.9615
4630.1,0.9614
4634.24,0.9614
4638.39,0.9614
4642.54,0.9615
4646.7,0.9612
4650.87,0.9614
4655.04,0.9618
4659.22,0.9618
4663.41,0.9622
4667.61,0.9631
4671.81,0.9632
4676.03,0.9631
4680.25,0.9634
4684.47,0.9636
4688.71,0.9636
4692.95,0.9634
4697.2,0.9633
4701.46,0.9638
4705.73,0.9638
4710.0,0.9634
4714.28,0.9632
4718.57,0.9634
4722.87,0.964
4727.17,0.9643
4731.49,0.9641
4735.81,0.9633
4740.13,0.9625
4744.47,0.9611
4748.82,0.9597
4753.17,0.9585
4757.53,0.9569
4761.9,0.9553
4766.27,0.9538
4770.66,0.9522
4775.05,0.9511
4779.45,0.9501
4783.86,0.9491
4788.28,0.9478
4792.7,0.9463
4797.13,0.9457
4801.58,0.9448
4806.03,0.9436
4810.48,0.9423
4814.95,0.9413
4819.42,0.941
4823.91,0.9403
4828.4,0.9394
4832.9,0.939
4837.4,0.9385
4841.92,0.9378
4846.45,0.9374
4850.98,0.9371
4855.52,0.9366
4860.07,0.9359
4864.63,0.9354
4869.2,0.9352
4873.77,0.9351
4878.36,0.9348
4882.95,0.9345
4887.55,0.9339
4892.16,0.9333
4896.78,0.9329
4901.41,0.9329
4906.05,0.9328
4910.69,0.9323
4915.35,0.9319
4920.01,0.9316
4924.68,0.9315
4929.36,0.9314
4934.05,0.9312
4938.75,0.9307
4943.46,0.9305
4948.18,0.9307
4952.9,0.9307
4957.64,0.931
4962.38,0.9318
4967.13,0.9327
4971.89,0.9331
4976.67,0.9327
4981.45,0.9318
4986.23,0.9307
4991.03,0.9302
4995.84,0.9303
5000.66,0.9303
5005.49,0.9297
5010.32,0.9292
5015.17,0.9292
5020.02,0.9293
5024.88,0.9293
5029.76,0.929
5034.64,0.9288
5039.53,0.9288
5044.43,0.9289
5049.35,0.9289
5054.27,0.9286
5059.2,0.9282
5064.14,0.9281
5069.09,0.9279
5074.05,0.9276
5079.02,0.9276
5084.0,0.9276
5088.98,0.9275
5093.98,0.9274
5098.99,0.927
5104.01,0.9268
5109.04,0.9268
5114.08,0.9267
5119.12,0.9267
5124.18,0.9269
5129.25,0.9267
5134.33,0.9264
5139.42,0.9261
5144.51,0.9259
5149.62,0.9258
5154.74,0.9254
5159.87,0.9254
5165.01,0.9254
5170.16,0.9254
5175.32,0.9254
5180.49,0.9252
5185.67,0.9251
5190.86,0.9249
5196.06,0.9248
5201.27,0.9244
5206.49,0.9245
5211.72,0.9247
5216.96,0.925
5222.22,0.9252
5227.48,0.9253
5232.76,0.9254
5238.04,0.9259
5243.34,0.9265
5248.64,0.9268
5253.96,0.9267
5259.29,0.9271
5264.63,0.9279
5269.98,0.9281
5275.34,0.9285
5280.71,0.9289
5286.09,0.9288
5291.49,0.929
5296.89,0.9294
5302.31,0.9297
5307.73,0.9302
5313.17,0.9306
5318.62,0.9306
5324.08,0.9308
5329.55,0.9313
5335.03,0.9316
5340.53,0.9321
5346.03,0.9325
5351.55,0.9324
5357.08,0.9326
5362.62,0.9327
5368.17,0.9328
5373.73,0.9329
5379.3,0.933
5384.89,0.9329
5390.49,0.9331
5396.09,0.9333
5401.71,0.9333
5407.35,0.9333
5412.99,0.9337
5418.65,0.934
5424.31,0.9341
5429.99,0.9345
5435.68,0.935
5441.39,0.9354
5447.1,0.9357
5452.83,0.9363
5458.57,0.9367
5464.32,0.9373
5470.08,0.9377
5475.86,0.9382
5481.65,0.9389
5487.45,0.9394
5493.26,0.9399
5499.08,0.9403
5504.92,0.941
5510.77,0.9421
5516.63,0.943
5522.51,0.9433
5528.39,0.9438
5534.29,0.9446
5540.21,0.9453
5546.13,0.9458
5552.07,0.9463
5558.02,0.9465
5563.98,0.9468
5569.96,0.9474
5575.95,0.9478
5581.95,0.9482
5587.96,0.9486
5593.99,0.949
5600.03,0.9496
5606.08,0.95
5612.15,0.9504
5618.23,0.9509
5624.32,0.9515
5630.43,0.9518
5636.55,0.9521
5642.68,0.9528
5648.83,0.9534
5654.99,0.9537
5661.16,0.9541
5667.35,0.9547
5673.55,0.9551
5679.76,0.9552
5685.99,0.9558
5692.23,0.9565
5698.48,0.9572
5704.75,0.958
5711.03,0.9588
5717.33,0.9591
5723.64,0.9595
5729.96,0.9599
5736.3,0.9607
5742.65,0.9614
5749.02,0.9619
5755.4,0.9626
5761.79,0.9638
5768.2,0.9646
5774.62,0.9653
5781.06,0.9657
5787.51,0.9662
5793.98,0.9668
5800.46,0.9681
5806.95,0.9689
5813.46,0.9696
5819.98,0.9703
5826.52,0.9712
5833.08,0.9722
5839.64,0.9732
5846.23,0.9741
5852.83,0.975
5859.44,0.9758
5866.07,0.9769
5872.71,0.9777
5879.37,0.9786
5886.04,0.9793
5892.73,0.9802
5899.43,0.9814
5906.15,0.9824
5912.88,0.9828
5919.63,0.9828
5926.4,0.983
5933.18,0.9831
5939.97,0.9828
5946.78,0.9827
5953.61,0.9828
5960.45,0.9828
5967.31,0.9827
5974.18,0.9829
5981.07,0.9824
5987.98,0.9823
5994.9,0.9825
6001.84,0.9827
6008.79,0.9828
6015.76,0.9832
6022.75,0.9833
6029.75,0.9833
6036.77,0.9835
6043.81,0.9837
6050.86,0.9835
6057.93,0.9841
6065.01,0.9849
6072.11,0.9855
6079.23,0.9856
6086.36,0.9857
6093.51,0.9859
6100.68,0.986
6107.87,0.9858
6115.07,0.9856
6122.29,0.9854
6129.52,0.9849
6136.78,0.9836
6144.05,0.9823
6151.34,0.9809
6158.64,0.9801
6165.96,0.9802
6173.3,0.9812
6180.66,0.9815
6188.03,0.9813
6195.43,0.9814
6202.84,0.9815
6210.26,0.981
6217.71,0.9809
6225.17,0.9807
6232.65,0.9798
6240.15,0.9791
6247.67,0.979
6255.21,0.9781
6262.76,0.9775
6270.33,0.9771
6277.92,0.9767
6285.53,0.9762
6293.16,0.9758
6300.8,0.975
6308.47,0.9744
6316.15,0.9737
6323.85,0.9736
6331.57,0.973
6339.31,0.9726
6347.07,0.9723
6354.85,0.972
6362.65,0.9715
6370.46,0.9713
6378.3,0.9713
6386.15,0.9713
6394.02,0.9708
6401.92,0.9705
6409.83,0.971
6417.76,0.9712
6425.71,0.9707
6433.68,0.9706
6441.67,0.9702
6449.69,0.9702
6457.72,0.9701
6465.77,0.97
6473.84,0.9699
6481.93,0.97
6490.04,0.9702
6498.17,0.9704
6506.33,0.97
6514.5,0.9702
6522.69,0.9703
6530.91,0.9702
6539.14,0.9699
6547.4,0.9698
6555.67,0.9697
6563.97,0.9696
6572.29,0.9697
6580.63,0.9698
6588.99,0.9693
6597.37,0.9693
6605.77,0.9693
6614.2,0.9693
6622.65,0.9695
6631.11,0.9697
6639.6,0.9697
6648.11,0.9697
6656.65,0.9696
6665.2,0.9698
6673.78,0.9701
6682.38,0.9704
6691.0,0.9703
6699.64,0.9705
6708.31,0.9705
6717.0,0.9709
6725.71,0.9713
6734.44,0.9718
6743.2,0.9719
6751.98,0.9722
6760.78,0.9722
6769.61,0.9723
6778.45,0.9723
6787.32,0.9728
6796.22,0.9735
6805.14,0.9737
6814.08,0.9737
6823.04,0.9742
6832.03,0.9742
6841.04,0.974
6850.08,0.9741
6859.14,0.9746
6868.22,0.9749
6877.33,0.9756
6886.46,0.9755
6895.62,0.9751
6904.8,0.9754
6914.01,0.9759
6923.24,0.9761
6932.49,0.9766
6941.77,0.9765
6951.07,0.9766
6960.4,0.9768
6969.76,0.9769
6979.14,0.9766
6988.54,0.9771
6997.97,0.9774
7007.43,0.9779
7016.91,0.9778
7026.41,0.9778
7035.95,0.9777
7045.51,0.9777
7055.09,0.9778
7064.7,0.9782
7074.34,0.9784
7084.0,0.9789
7093.69,0.9792
7103.41,0.9793
7113.15,0.9793
7122.92,0.9796
7132.71,0.9796
7142.54,0.9796
7152.39,0.9797
7162.27,0.9802
7172.17,0.9805
7182.1,0.9809
7192.06,0.9808
7202.05,0.9807
7212.07,0.9807
7222.11,0.9814
7232.18,0.9817
7242.28,0.9817
7252.41,0.9815
7262.57,0.9818
7272.75,0.9826
7282.96,0.983
7293.21,0.9829
7303.48,0.9827
7313.78,0.9826
7324.1,0.9831
7334.46,0.9833
7344.85,0.9838
7355.27,0.9838
7365.71,0.9838
7376.19,0.9841
7386.7,0.9845
7397.23,0.9843
7407.8,0.9842
7418.39,0.9841
7429.02,0.9846
7439.68,0.9847
7450.37,0.9848
7461.08,0.9851
7471.83,0.9858
7482.61,0.9864
7493.43,0.9858
7504.27,0.9853
7515.14,0.986
7526.05,0.986
7536.99,0.9859
7547.96,0.986
7558.96,0.9863
7569.99,0.9861
7581.06,0.9862
7592.15,0.9862
7603.28,0.9867
7614.45,0.9864
7625.64,0.9866
7636.87,0.987
7648.14,0.9874
7659.43,0.9871
7670.76,0.987
7682.12,0.9867
7693.52,0.9866
7704.95,0.987
7716.41,0.9876
7727.91,0.9874
7739.44,0.9873
7751.01,0.9874
7762.61,0.9877
7774.25,0.9874
7785.92,0.9875
7797.63,0.9876
7809.37,0.9878
7821.15,0.9876
7832.96,0.9876
7844.81,0.9873
7856.69,0.9875
7868.61,0.9875
7880.57,0.9873
7892.56,0.987
7904.59,0.987
7916.66,0.9869
7928.76,0.9869
7940.9,0.9863
7953.08,0.9862
7965.29,0.9864
7977.55,0.986
7989.84,0.9853
8002.17,0.9856
8014.53,0.9853
8026.94,0.9852
8039.38,0.9846
8051.86,0.9841
8064.38,0.9836
8076.94,0.9831
8089.54,0.9824
8102.18,0.9817
8114.86,0.9809
8127.57,0.9801
8140.33,0.9786
8153.13,0.9774
8165.96,0.9761
8178.84,0.9743
8191.76,0.9728
8204.72,0.9711
8217.72,0.969
8230.76,0.9662
8243.85,0.963
8256.97,0.9605
8270.14,0.9576
8283.35,0.9544
8296.6,0.951
8309.89,0.9487
8323.23,0.946
8336.61,0.9435
8350.03,0.9412
8363.5,0.9385
8377.01,0.9359
8390.56,0.9333
8404.16,0.9299
8417.8,0.9267
8431.48,0.9236
8445.21,0.9207
8458.99,0.9174
8472.81,0.9137
8486.67,0.9089
8500.58,0.9043
8514.54,0.8994
8528.54,0.8951
8542.59,0.8923
8556.68,0.8915
8570.83,0.8908
8585.01,0.891
8599.25,0.8911
8613.53,0.8912
8627.86,0.892
8642.24,0.8924
8656.66,0.8927
8671.14,0.8932
8685.66,0.8937
8700.23,0.8944
8714.85,0.8949
8729.52,0.8964
8744.24,0.8984
8759.01,0.9005
8773.83,0.9018
8788.69,0.904
8803.61,0.9056
8818.58,0.9079
8833.6,0.9109
8848.68,0.9138
8863.8,0.9169
8878.97,0.9206
8894.2,0.9236
8909.48,0.927
8924.81,0.9302
8940.2,0.9336
8955.64,0.9367
8971.13,0.9411
8986.67,0.9446
9002.27,0.9476
9017.93,0.9504
9033.64,0.954
9049.4,0.9564
9065.22,0.9583
9081.09,0.9598
9097.02,0.9615
9113.0,0.9621
9129.04,0.9631
9145.14,0.9637
9161.3,0.9643
9177.51,0.965
9193.78,0.9666
9210.11,0.9674
9226.49,0.9689
9242.94,0.9691
9259.44,0.9687
9276.0,0.9689
9292.62,0.9693
9309.3,0.969
9326.04,0.9699
9342.84,0.9697
9359.7,0.9699
9376.63,0.9701
9393.61,0.9709
9410.66,0.9711
9427.76,0.9714
9444.93,0.9708
9462.17,0.971
9479.46,0.9705
9496.82,0.9707
9514.24,0.9709
9531.73,0.9715
9549.28,0.9719
9566.89,0.9723
9584.58,0.9717
9602.32,0.9716
9620.13,0.9719
9638.01,0.9726
9655.96,0.9727
9673.97,0.973
9692.05,0.9731
9710.19,0.9739
9728.41,0.9742
9746.69,0.9734
9765.04,0.9728
9783.47,0.9738
9801.96,0.9742
9820.52,0.9743
9839.15,0.974
9857.85,0.9744
9876.62,0.975
9895.47,0.9759
9914.39,0.9765
9933.38,0.9771
9952.44,0.9767
9971.58,0.9761
9990.78,0.9759
10010.07,0.9767
10029.43,0.9769
10048.86,0.977
10068.37,0.9772
10087.95,0.9775
10107.61,0.9775
10127.35,0.9777
10147.17,0.9775
10167.06,0.9779
10187.03,0.9777
10207.08,0.9773
10227.21,0.9775
10247.42,0.9783
10267.71,0.9787
10288.07,0.9795
10308.52,0.9792
10329.06,0.9793
10349.67,0.979
10370.36,0.9788
10391.14,0.9791
10412.0,0.9799
10432.95,0.9795
10453.98,0.9795
10475.1,0.9792
10496.3,0.9798
10517.58,0.9799
10538.96,0.98
10560.42,0.9796
10582.0,0.9797
10603.6,0.9795
10625.3,0.9801
10647.1,0.9802
10669.0,0.9804
10691.0,0.9799
10713.1,0.9801
10735.3,0.9804
10757.6,0.9808
10779.9,0.9805
10802.4,0.9808
10824.9,0.9807
10847.6,0.9803
10870.3,0.9804
10893.1,0.9809
10916.1,0.9803
10939.1,0.9802
10962.2,0.9805
10985.4,0.9806
11008.7,0.9808
11032.2,0.9815
11055.7,0.9811
11079.3,0.9808
11103.0,0.9803
11126.9,0.9808
11150.8,0.9812
11174.8,0.9814
11198.9,0.981
11223.2,0.9813
11247.5,0.9808
11271.9,0.9808
11296.5,0.9806
11321.2,0.9811
11345.9,0.981
11370.8,0.9809
11395.8,0.9807
11420.9,0.9814
11446.1,0.9814
11471.4,0.982
11496.8,0.9818
11522.4,0.9818
11548.0,0.9808
11573.8,0.9807
11599.7,0.9811
11625.7,0.9819
11651.8,0.9817
11678.1,0.9819
11704.4,0.9817
11730.9,0.9819
11757.5,0.9821
11784.2,0.9825
11811.0,0.982
11838.0,0.982
11865.1,0.9825
11892.3,0.9831
11919.6,0.9823
11947.1,0.9822
11974.7,0.9824
12002.4,0.9832
12030.2,0.9832
12058.2,0.9831
12086.3,0.9822
12114.5,0.9825
12142.9,0.9824
12171.4,0.9828
12200.0,0.9826
12228.8,0.9829
12257.7,0.9831
12286.7,0.9837
12315.9,0.9838
12345.2,0.9838
12374.7,0.9831
12404.3,0.9834
12434.0,0.9839
12463.9,0.9842
12493.9,0.9836
12524.1,0.9841
12554.4,0.984
12584.9,0.9841
12615.5,0.9841
12646.3,0.9854
12677.2,0.9851
12708.2,0.9852
12739.5,0.9851
12770.8,0.9859
12802.4,0.9854
12834.0,0.9849
12865.9,0.9842
12897.9,0.9847
12930.0,0.9844
12962.3,0.9852
12994.8,0.9853
13027.5,0.9857
13060.3,0.9856
13093.3,0.9863
13126.4,0.9864
13159.7,0.9862
13193.2,0.9858
13226.8,0.9855
13260.6,0.985
13294.6,0.9859
13328.8,0.986
13363.2,0.9869
13397.7,0.9868
13432.4,0.987
13467.2,0.987
13502.3,0.9876
13537.6,0.9868
13573.0,0.9868
13608.6,0.9867
13644.4,0.9871
13680.4,0.9867
13716.6,0.9875
13753.0,0.9863
13789.5,0.9868
13826.3,0.9862
13863.3,0.9871
13900.4,0.9869
13937.8,0.9878
13975.3,0.9878
14013.1,0.9881
14051.1,0.9881
14089.2,0.9882
14127.6,0.9878
14166.2,0.9889
14205.0,0.9865
14244.0,0.9861
14283.2,0.9856
14322.7,0.987
14362.4,0.986
14402.2,0.9853
14442.3,0.9811
14482.7,0.9807
14523.2,0.9787
14564.0,0.9759
14605.0,0.9714
14646.3,0.9726
14687.8,0.9651
14729.5,0.9648
14771.4,0.9684
14813.6,0.9708
14856.0,0.9621
14898.7,0.97
14941.7,0.9723
14984.8,0.9858
15028.3,0.9879
15071.9,0.9982
15115.9,0.9867
15160.0,0.9848
