Database of Origin,University of Winnipeg Spectrophotometer Facility
Sample Description,8. Sulfates - Jim Crowley (USGS) IR spectra /  Crowley IR spectra
Date Added,2016-07-15 22:04:24.269748

Data ID,CWL_SUL_23          
Sample ID,Hexahydrite
Mineral Name,Hexahydrite
Locality,Dried epsomite for 10 minutes
Grain Size,~250
Viewing Geometry,unknown
Resolution,0.08-40
Material Class,Sulfate

Wavelength
2083.55,0.9302
2084.39,0.9315
2085.23,0.9298
2086.06,0.9286
2086.9,0.9272
2087.74,0.9262
2088.58,0.9263
2089.43,0.9268
2090.27,0.9257
2091.11,0.926
2091.95,0.9238
2092.8,0.9251
2093.64,0.9266
2094.49,0.9225
2095.33,0.9214
2096.18,0.9237
2097.03,0.9225
2097.88,0.9211
2098.73,0.9227
2099.58,0.9235
2100.43,0.9197
2101.28,0.9163
2102.13,0.916
2102.98,0.9178
2103.83,0.9172
2104.69,0.9155
2105.54,0.9177
2106.4,0.9213
2107.25,0.9202
2108.11,0.9165
2108.97,0.9123
2109.83,0.9134
2110.68,0.914
2111.54,0.9133
2112.4,0.9144
2113.27,0.9136
2114.13,0.9106
2114.99,0.9115
2115.85,0.9127
2116.72,0.9138
2117.58,0.9121
2118.44,0.9132
2119.31,0.9149
2120.18,0.9124
2121.04,0.9107
2121.91,0.9123
2122.78,0.9128
2123.65,0.9118
2124.52,0.9094
2125.39,0.909
2126.26,0.9106
2127.13,0.9122
2128.01,0.911
2128.88,0.9099
2129.75,0.9087
2130.63,0.9091
2131.5,0.9094
2132.38,0.9101
2133.26,0.9096
2134.14,0.9095
2135.01,0.9087
2135.89,0.9092
2136.77,0.9087
2137.65,0.9085
2138.54,0.9073
2139.42,0.9096
2140.3,0.9095
2141.18,0.9082
2142.07,0.9068
2142.95,0.9045
2143.84,0.9021
2144.73,0.9055
2145.61,0.9085
2146.5,0.9082
2147.39,0.9071
2148.28,0.9067
2149.17,0.9075
2150.06,0.9054
2150.95,0.9021
2151.85,0.9052
2152.74,0.9068
2153.63,0.9066
2154.53,0.9047
2155.42,0.904
2156.32,0.9022
2157.22,0.9027
2158.11,0.9043
2159.01,0.9056
2159.91,0.9045
2160.81,0.9024
2161.71,0.9015
2162.61,0.9023
2163.52,0.9028
2164.42,0.9046
2165.32,0.9064
2166.23,0.9066
2167.13,0.9057
2168.04,0.9066
2168.94,0.9062
2169.85,0.9059
2170.76,0.9051
2171.67,0.9047
2172.58,0.9044
2173.49,0.9028
2174.4,0.9017
2175.31,0.9009
2176.23,0.9008
2177.14,0.9015
2178.05,0.9017
2178.97,0.9027
2179.89,0.9023
2180.8,0.9034
2181.72,0.9039
2182.64,0.9023
2183.56,0.9
2184.48,0.9024
2185.4,0.902
2186.32,0.9033
2187.24,0.9042
2188.16,0.9025
2189.09,0.9007
2190.01,0.9009
2190.94,0.9008
2191.86,0.902
2192.79,0.9013
2193.72,0.9009
2194.64,0.9009
2195.57,0.9033
2196.5,0.9024
2197.43,0.9016
2198.37,0.9027
2199.3,0.9033
2200.23,0.9036
2201.16,0.9026
2202.1,0.901
2203.03,0.9024
2203.97,0.9012
2204.91,0.9007
2205.85,0.9037
2206.78,0.9049
2207.72,0.9042
2208.66,0.9011
2209.61,0.8973
2210.55,0.8999
2211.49,0.9012
2212.43,0.9024
2213.38,0.9036
2214.32,0.9027
2215.27,0.9024
2216.21,0.9031
2217.16,0.9021
2218.11,0.8986
2219.06,0.8979
2220.01,0.899
2220.96,0.9006
2221.91,0.9018
2222.86,0.9007
2223.82,0.8997
2224.77,0.8993
2225.73,0.9
2226.68,0.9005
2227.64,0.8999
2228.6,0.8986
2229.55,0.8984
2230.51,0.9003
2231.47,0.9003
2232.43,0.8977
2233.39,0.8962
2234.36,0.8954
2235.32,0.8992
2236.28,0.8992
2237.25,0.8978
2238.21,0.8975
2239.18,0.8976
2240.15,0.8987
2241.12,0.898
2242.08,0.8959
2243.05,0.8969
2244.02,0.8978
2245.0,0.8996
2245.97,0.901
2246.94,0.9004
2247.91,0.8978
2248.89,0.8959
2249.87,0.8955
2250.84,0.8969
2251.82,0.8966
2252.8,0.8979
2253.78,0.8981
2254.76,0.8982
2255.74,0.8994
2256.72,0.9011
2257.7,0.8999
2258.68,0.8992
2259.67,0.8974
2260.65,0.8974
2261.64,0.8997
2262.63,0.9026
2263.61,0.9022
2264.6,0.9023
2265.59,0.9026
2266.58,0.9029
2267.57,0.9017
2268.56,0.9021
2269.56,0.902
2270.55,0.9024
2271.55,0.9021
2272.54,0.9011
2273.54,0.9013
2274.53,0.9041
2275.53,0.9078
2276.53,0.9071
2277.53,0.9057
2278.53,0.9058
2279.53,0.9064
2280.54,0.9079
2281.54,0.906
2282.54,0.9057
2283.55,0.9087
2284.55,0.9108
2285.56,0.9107
2286.57,0.9098
2287.58,0.9096
2288.59,0.91
2289.6,0.9085
2290.61,0.909
2291.62,0.9103
2292.63,0.9113
2293.65,0.9121
2294.66,0.9144
2295.68,0.9155
2296.69,0.9155
2297.71,0.9148
2298.73,0.916
2299.75,0.9151
2300.77,0.9166
2301.79,0.9177
2302.81,0.9175
2303.84,0.9185
2304.86,0.92
2305.88,0.92
2306.91,0.9218
2307.94,0.9224
2308.96,0.9231
2309.99,0.9231
2311.02,0.9225
2312.05,0.9251
2313.08,0.9283
2314.12,0.9253
2315.15,0.9244
2316.18,0.9265
2317.22,0.9273
2318.25,0.9256
2319.29,0.9266
2320.33,0.9279
2321.37,0.9291
2322.41,0.9305
2323.45,0.9329
2324.49,0.9338
2325.53,0.9351
2326.57,0.9368
2327.62,0.9369
2328.66,0.9356
2329.71,0.9354
2330.76,0.9366
2331.8,0.939
2332.85,0.9397
2333.9,0.9389
2334.95,0.9395
2336.01,0.941
2337.06,0.9405
2338.11,0.941
2339.17,0.9402
2340.22,0.9418
2341.28,0.9439
2342.34,0.9443
2343.39,0.9456
2344.45,0.9475
2345.51,0.9463
2346.57,0.9468
2347.64,0.9463
2348.7,0.9468
2349.76,0.9474
2350.83,0.9488
2351.9,0.9502
2352.96,0.9502
2354.03,0.9498
2355.1,0.9502
2356.17,0.9514
2357.24,0.9531
2358.31,0.9521
2359.39,0.9522
2360.46,0.9543
2361.53,0.9556
2362.61,0.9547
2363.69,0.9553
2364.76,0.955
2365.84,0.9559
2366.92,0.9552
2368.0,0.9546
2369.09,0.9563
2370.17,0.9573
2371.25,0.9568
2372.34,0.9579
2373.42,0.9595
2374.51,0.9602
2375.6,0.9586
2376.69,0.9579
2377.78,0.9587
2378.87,0.9608
2379.96,0.9614
2381.05,0.9619
2382.14,0.962
2383.24,0.9634
2384.33,0.9637
2385.43,0.9635
2386.53,0.9633
2387.63,0.9617
2388.73,0.9613
2389.83,0.9631
2390.93,0.9649
2392.03,0.9655
2393.14,0.9654
2394.24,0.9666
2395.35,0.9663
2396.45,0.9657
2397.56,0.9647
2398.67,0.9656
2399.78,0.9665
2400.89,0.9672
2402.0,0.9666
2403.12,0.9656
2404.23,0.9668
2405.35,0.9665
2406.46,0.9646
2407.58,0.9652
2408.7,0.9654
2409.82,0.9674
2410.94,0.9671
2412.06,0.9674
2413.18,0.9686
2414.3,0.9672
2415.43,0.9677
2416.55,0.9695
2417.68,0.9677
2418.81,0.9676
2419.94,0.9688
2421.07,0.9699
2422.2,0.9702
2423.33,0.9696
2424.46,0.9691
2425.6,0.9696
2426.73,0.9681
2427.87,0.9673
2429.0,0.9682
2430.14,0.9681
2431.28,0.9664
2432.42,0.9669
2433.56,0.9663
2434.71,0.9677
2435.85,0.9704
2436.99,0.9692
2438.14,0.9687
2439.29,0.9703
2440.43,0.9697
2441.58,0.9703
2442.73,0.9714
2443.88,0.9704
2445.04,0.968
2446.19,0.967
2447.34,0.9681
2448.5,0.9694
2449.66,0.9689
2450.81,0.9701
2451.97,0.9706
2453.13,0.9694
2454.29,0.9694
2455.45,0.9701
2456.62,0.9699
2457.78,0.9707
2458.95,0.9702
2460.11,0.9706
2461.28,0.97
2462.45,0.9696
2463.62,0.9698
2464.79,0.9715
2465.96,0.9736
2467.14,0.9717
2468.31,0.9684
2469.49,0.9688
2470.66,0.9697
2471.84,0.9706
2473.02,0.9724
2474.2,0.9741
2475.38,0.9706
2476.56,0.9706
2477.74,0.9704
2478.93,0.9712
2480.11,0.9736
2481.3,0.9727
2482.49,0.9714
2483.68,0.9722
2484.87,0.9725
2486.06,0.9718
2487.25,0.972
2488.44,0.9725
2489.64,0.9729
2490.83,0.9733
2492.03,0.9743
2493.23,0.9763
2494.43,0.9754
2495.63,0.9741
2496.83,0.9736
2498.03,0.9739
2499.24,0.974
2500.44,0.9748
2501.65,0.9743
2502.86,0.973
2504.06,0.972
2505.27,0.9722
2506.48,0.9731
2507.7,0.9746
2508.91,0.9747
2510.12,0.9753
2511.34,0.9753
2512.56,0.9769
2513.77,0.9766
2514.99,0.9749
2516.21,0.9749
2517.43,0.975
2518.66,0.9742
2519.88,0.9751
2521.11,0.9746
2522.33,0.9743
2523.56,0.9743
2524.79,0.9747
2526.02,0.9763
2527.25,0.9762
2528.48,0.9752
2529.71,0.9762
2530.95,0.9758
2532.18,0.9748
2533.42,0.9756
2534.66,0.9763
2535.9,0.9757
2537.14,0.9759
2538.38,0.9743
2539.62,0.9757
2540.87,0.9758
2542.11,0.975
2543.36,0.9744
2544.61,0.9756
2545.86,0.9771
2547.11,0.9769
2548.36,0.9769
2549.61,0.9769
2550.87,0.978
2552.12,0.9773
2553.38,0.9759
2554.64,0.975
2555.89,0.975
2557.16,0.9759
2558.42,0.9769
2559.68,0.9769
2560.94,0.9769
2562.21,0.9771
2563.48,0.9761
2564.74,0.9772
2566.01,0.9769
2567.28,0.9768
2568.55,0.976
2569.83,0.9756
2571.1,0.9765
2572.38,0.9768
2573.65,0.9762
2574.93,0.9768
2576.21,0.977
2577.49,0.9772
2578.77,0.9782
2580.05,0.9777
2581.34,0.9776
2582.62,0.978
2583.91,0.9779
2585.2,0.9778
2586.49,0.9784
2587.78,0.9776
2589.07,0.976
2590.36,0.9762
2591.66,0.9766
2592.95,0.9758
2594.25,0.9751
2595.55,0.9773
2596.85,0.9787
2598.15,0.9804
2599.45,0.9806
2600.76,0.9796
2602.06,0.9786
2603.37,0.9775
2604.67,0.9765
2605.98,0.9764
2607.29,0.9763
2608.6,0.9765
2609.92,0.9783
2611.23,0.98
2612.55,0.9791
2613.86,0.9784
2615.18,0.9788
2616.5,0.9795
2617.82,0.9784
2619.14,0.9778
2620.47,0.9796
2621.79,0.9803
2623.12,0.9803
2624.45,0.9809
2625.77,0.9791
2627.1,0.9785
2628.44,0.9795
2629.77,0.9784
2631.1,0.9783
2632.44,0.9789
2633.78,0.9795
2635.11,0.9802
2636.45,0.9809
2637.79,0.9813
2639.14,0.9811
2640.48,0.9805
2641.83,0.9799
2643.17,0.9808
2644.52,0.9811
2645.87,0.9809
2647.22,0.9813
2648.57,0.9817
2649.92,0.9822
2651.28,0.9822
2652.64,0.9823
2653.99,0.9826
2655.35,0.9824
2656.71,0.9827
2658.07,0.9831
2659.44,0.9826
2660.8,0.9826
2662.17,0.9831
2663.53,0.9833
2664.9,0.9842
2666.27,0.9841
2667.64,0.9844
2669.02,0.9849
2670.39,0.9856
2671.77,0.9837
2673.14,0.9829
2674.52,0.9853
2675.9,0.9853
2677.28,0.9839
2678.67,0.9842
2680.05,0.9846
2681.44,0.9853
2682.82,0.9846
2684.21,0.9849
2685.6,0.9849
2686.99,0.9857
2688.39,0.9863
2689.78,0.9861
2691.18,0.9867
2692.57,0.9864
2693.97,0.9857
2695.37,0.9869
2696.77,0.9869
2698.18,0.9877
2699.58,0.9878
2700.99,0.9877
2702.4,0.9879
2703.8,0.9884
2705.22,0.9883
2706.63,0.9895
2708.04,0.989
2709.45,0.99
2710.87,0.9908
2712.29,0.9897
2713.71,0.9884
2715.13,0.9896
2716.55,0.9909
2717.97,0.9909
2719.4,0.9914
2720.83,0.9916
2722.25,0.991
2723.68,0.9906
2725.12,0.9902
2726.55,0.9914
2727.98,0.9931
2729.42,0.9931
2730.86,0.9913
2732.29,0.9903
2733.73,0.9906
2735.18,0.9908
2736.62,0.991
2738.06,0.9913
2739.51,0.993
2740.96,0.9934
2742.41,0.9928
2743.86,0.9938
2745.31,0.9937
2746.77,0.9921
2748.22,0.9915
2749.68,0.9922
2751.14,0.9928
2752.6,0.9932
2754.06,0.9916
2755.52,0.9914
2756.99,0.9926
2758.45,0.9929
2759.92,0.9925
2761.39,0.9927
2762.86,0.9923
2764.33,0.9918
2765.81,0.9917
2767.28,0.9917
2768.76,0.992
2770.24,0.9931
2771.72,0.9941
2773.2,0.9954
2774.69,0.9953
2776.17,0.9942
2777.66,0.9925
2779.15,0.9922
2780.64,0.9933
2782.13,0.9944
2783.62,0.9944
2785.12,0.9939
2786.61,0.993
2788.11,0.994
2789.61,0.9932
2791.11,0.9933
2792.62,0.9935
2794.12,0.9934
2795.63,0.9939
2797.14,0.9931
2798.64,0.993
2800.16,0.9934
2801.67,0.9926
2803.18,0.9917
2804.7,0.991
2806.22,0.9918
2807.74,0.9925
2809.26,0.9928
2810.78,0.9929
2812.3,0.9929
2813.83,0.9919
2815.36,0.9918
2816.89,0.9917
2818.42,0.9926
2819.95,0.9921
2821.48,0.9916
2823.02,0.991
2824.56,0.9908
2826.1,0.9913
2827.64,0.9918
2829.18,0.992
2830.72,0.9921
2832.27,0.9919
2833.82,0.9922
2835.37,0.9916
2836.92,0.9916
2838.47,0.992
2840.02,0.9915
2841.58,0.9908
2843.14,0.9917
2844.7,0.9925
2846.26,0.9921
2847.82,0.9919
2849.39,0.9919
2850.95,0.9914
2852.52,0.9904
2854.09,0.9907
2855.66,0.992
2857.24,0.9917
2858.81,0.9896
2860.39,0.9894
2861.97,0.991
2863.55,0.9917
2865.13,0.9917
2866.71,0.9909
2868.3,0.9902
2869.88,0.9902
2871.47,0.9898
2873.06,0.9889
2874.66,0.9888
2876.25,0.9893
2877.85,0.9903
2879.45,0.9914
2881.04,0.9916
2882.65,0.9905
2884.25,0.9898
2885.85,0.9901
2887.46,0.9904
2889.07,0.9907
2890.68,0.9905
2892.29,0.9894
2893.91,0.9886
2895.52,0.9881
2897.14,0.9888
2898.76,0.9878
2900.38,0.9876
2902.0,0.9877
2903.63,0.9879
2905.25,0.9882
2906.88,0.9887
2908.51,0.989
2910.14,0.9887
2911.78,0.988
2913.41,0.9879
2915.05,0.9879
2916.69,0.9871
2918.33,0.9863
2919.98,0.9869
2921.62,0.9862
2923.27,0.9857
2924.92,0.9864
2926.57,0.987
2928.22,0.9874
2929.87,0.9872
2931.53,0.9855
2933.19,0.9844
2934.85,0.9853
2936.51,0.9857
2938.17,0.9849
2939.84,0.9843
2941.51,0.9831
2943.18,0.9833
2944.85,0.984
2946.52,0.9847
2948.19,0.9852
2949.87,0.9848
2951.55,0.9836
2953.23,0.9834
2954.91,0.9832
2956.6,0.9833
2958.28,0.9834
2959.97,0.9839
2961.66,0.9836
2963.36,0.9827
2965.05,0.982
2966.75,0.9827
2968.44,0.9844
2970.14,0.9842
2971.85,0.983
2973.55,0.9831
2975.26,0.9831
2976.96,0.9832
2978.67,0.9824
2980.39,0.9824
2982.1,0.9825
2983.82,0.9822
2985.53,0.9822
2987.25,0.9825
2988.97,0.9826
2990.7,0.9812
2992.42,0.9805
2994.15,0.9813
2995.88,0.9818
2997.61,0.9825
2999.35,0.9828
3001.08,0.9818
3002.82,0.9813
3004.56,0.9823
3006.3,0.9839
3008.04,0.9843
3009.79,0.9822
3011.54,0.9822
3013.29,0.9818
3015.04,0.9815
3016.79,0.982
3018.55,0.9821
3020.31,0.9818
3022.07,0.9824
3023.83,0.9815
3025.59,0.9816
3027.36,0.9829
3029.13,0.983
3030.9,0.9821
3032.67,0.9822
3034.44,0.9823
3036.22,0.9825
3038.0,0.9822
3039.78,0.9817
3041.56,0.9817
3043.35,0.982
3045.14,0.9809
3046.92,0.9809
3048.72,0.982
3050.51,0.9835
3052.3,0.9834
3054.1,0.9822
3055.9,0.9818
3057.7,0.982
3059.51,0.9821
3061.31,0.9819
3063.12,0.9811
3064.93,0.9808
3066.74,0.9807
3068.56,0.9807
3070.37,0.9806
3072.19,0.9809
3074.01,0.9804
3075.84,0.9803
3077.66,0.9802
3079.49,0.9796
3081.32,0.9796
3083.15,0.9805
3084.99,0.9806
3086.82,0.9809
3088.66,0.9801
3090.5,0.9797
3092.34,0.9802
3094.19,0.9806
3096.04,0.9798
3097.89,0.9797
3099.74,0.9803
3101.59,0.9798
3103.45,0.9787
3105.31,0.9786
3107.17,0.9787
3109.03,0.9789
3110.89,0.979
3112.76,0.9791
3114.63,0.9794
3116.5,0.98
3118.38,0.9797
3120.25,0.9796
3122.13,0.9793
3124.01,0.9798
3125.89,0.9804
3127.78,0.9803
3129.67,0.9801
3131.56,0.9803
3133.45,0.9804
3135.34,0.9804
3137.24,0.98
3139.14,0.9801
3141.04,0.9794
3142.94,0.9792
3144.85,0.9791
3146.76,0.9797
3148.67,0.9806
3150.58,0.9806
3152.5,0.9805
3154.41,0.9809
3156.33,0.9812
3158.25,0.9812
3160.18,0.9809
3162.11,0.9805
3164.04,0.9798
3165.97,0.9798
3167.9,0.9802
3169.84,0.9803
3171.78,0.9802
3173.72,0.9806
3175.66,0.9803
3177.61,0.9801
3179.55,0.9803
3181.5,0.9809
3183.46,0.9808
3185.41,0.9806
3187.37,0.98
3189.33,0.9804
3191.29,0.9807
3193.26,0.9808
3195.23,0.9806
3197.2,0.9811
3199.17,0.9816
3201.14,0.9813
3203.12,0.9804
3205.1,0.9801
3207.08,0.9808
3209.07,0.9813
3211.05,0.9811
3213.04,0.9806
3215.03,0.9798
3217.03,0.9802
3219.03,0.9808
3221.02,0.9803
3223.03,0.9798
3225.03,0.981
3227.04,0.9817
3229.05,0.9811
3231.06,0.9804
3233.07,0.9805
3235.09,0.9805
3237.11,0.9807
3239.13,0.9807
3241.15,0.9811
3243.18,0.9816
3245.21,0.9819
3247.24,0.9807
3249.28,0.9798
3251.31,0.98
3253.35,0.9807
3255.4,0.9808
3257.44,0.9813
3259.49,0.9813
3261.54,0.9813
3263.59,0.9814
3265.65,0.9812
3267.7,0.9809
3269.76,0.9815
3271.83,0.9818
3273.89,0.9809
3275.96,0.9805
3278.03,0.9808
3280.1,0.9806
3282.18,0.9808
3284.26,0.9807
3286.34,0.9808
3288.42,0.9807
3290.51,0.9813
3292.6,0.9819
3294.69,0.982
3296.78,0.9809
3298.88,0.9801
3300.98,0.9804
3303.08,0.9804
3305.19,0.9804
3307.3,0.9807
3309.41,0.9809
3311.52,0.9816
3313.64,0.9809
3315.75,0.9804
3317.88,0.9805
3320.0,0.9816
3322.13,0.9817
3324.26,0.981
3326.39,0.9801
3328.52,0.9802
3330.66,0.9805
3332.8,0.9808
3334.94,0.9811
3337.09,0.9808
3339.24,0.9805
3341.39,0.9804
3343.54,0.9806
3345.7,0.9812
3347.86,0.9805
3350.02,0.9799
3352.19,0.9803
3354.36,0.981
3356.53,0.9807
3358.7,0.9803
3360.88,0.9795
3363.06,0.9791
3365.24,0.9791
3367.43,0.9802
3369.61,0.9802
3371.8,0.9797
3374.0,0.9796
3376.19,0.9797
3378.39,0.9793
3380.6,0.9794
3382.8,0.9793
3385.01,0.9796
3387.22,0.9795
3389.43,0.9794
3391.65,0.9795
3393.87,0.9791
3396.09,0.9789
3398.32,0.9794
3400.55,0.9792
3402.78,0.9792
3405.01,0.9793
3407.25,0.9793
3409.49,0.9797
3411.73,0.9803
3413.98,0.9793
3416.23,0.9785
3418.48,0.9782
3420.73,0.978
3422.99,0.978
3425.25,0.9782
3427.51,0.9783
3429.78,0.9788
3432.05,0.9784
3434.32,0.9778
3436.6,0.978
3438.88,0.9787
3441.16,0.9785
3443.45,0.9785
3445.73,0.9784
3448.02,0.9784
3450.32,0.9786
3452.61,0.9778
3454.91,0.9774
3457.22,0.9772
3459.52,0.977
3461.83,0.9777
3464.15,0.9777
3466.46,0.9779
3468.78,0.9778
3471.1,0.9778
3473.43,0.9774
3475.75,0.9771
3478.09,0.9769
3480.42,0.9769
3482.76,0.9768
3485.1,0.9768
3487.44,0.9761
3489.79,0.9758
3492.14,0.976
3494.49,0.9755
3496.85,0.9749
3499.21,0.9754
3501.57,0.9758
3503.93,0.9756
3506.3,0.9756
3508.68,0.9757
3511.05,0.9753
3513.43,0.9756
3515.81,0.9756
3518.2,0.9758
3520.58,0.9758
3522.98,0.9756
3525.37,0.9747
3527.77,0.9743
3530.17,0.975
3532.57,0.9758
3534.98,0.9757
3537.39,0.9752
3539.81,0.9746
3542.23,0.9742
3544.65,0.9743
3547.07,0.9748
3549.5,0.9743
3551.93,0.9742
3554.36,0.9745
3556.8,0.9745
3559.24,0.9739
3561.69,0.9738
3564.14,0.9734
3566.59,0.9732
3569.04,0.9734
3571.5,0.9739
3573.96,0.9736
3576.42,0.9732
3578.89,0.9735
3581.36,0.9738
3583.84,0.9733
3586.32,0.9729
3588.8,0.9722
3591.28,0.9723
3593.77,0.9724
3596.26,0.9725
3598.76,0.9721
3601.26,0.972
3603.76,0.972
3606.27,0.9717
3608.78,0.9721
3611.29,0.9728
3613.81,0.9722
3616.33,0.9719
3618.85,0.9718
3621.38,0.9717
3623.91,0.9711
3626.44,0.971
3628.98,0.9716
3631.52,0.9716
3634.06,0.9707
3636.61,0.971
3639.16,0.9707
3641.72,0.9706
3644.28,0.9705
3646.84,0.9705
3649.41,0.9703
3651.98,0.9702
3654.55,0.9701
3657.13,0.9703
3659.71,0.9698
3662.29,0.9699
3664.88,0.97
3667.47,0.9696
3670.07,0.9689
3672.67,0.9691
3675.27,0.9686
3677.88,0.9687
3680.49,0.9692
3683.1,0.9698
3685.72,0.9693
3688.34,0.9692
3690.96,0.9693
3693.59,0.9694
3696.23,0.969
3698.86,0.9688
3701.5,0.9683
3704.15,0.968
3706.79,0.9681
3709.44,0.9687
3712.1,0.9686
3714.76,0.9685
3717.42,0.9678
3720.09,0.9672
3722.76,0.9675
3725.43,0.9687
3728.11,0.9686
3730.79,0.9679
3733.48,0.9674
3736.17,0.9677
3738.86,0.9679
3741.56,0.9677
3744.26,0.9678
3746.97,0.9684
3749.67,0.9684
3752.39,0.9683
3755.1,0.9683
3757.83,0.9686
3760.55,0.9685
3763.28,0.968
3766.01,0.9675
3768.75,0.9678
3771.49,0.9679
3774.23,0.9681
3776.98,0.968
3779.74,0.9683
3782.49,0.9684
3785.25,0.9681
3788.02,0.968
3790.79,0.9682
3793.56,0.9681
3796.34,0.9677
3799.12,0.9682
3801.9,0.9688
3804.69,0.9688
3807.48,0.9685
3810.28,0.9682
3813.08,0.9686
3815.89,0.9688
3818.7,0.9688
3821.51,0.969
3824.33,0.9685
3827.15,0.9681
3829.98,0.9691
3832.81,0.9697
3835.64,0.9696
3838.48,0.9693
3841.33,0.9692
3844.17,0.969
3847.03,0.9697
3849.88,0.9705
3852.74,0.9705
3855.61,0.9704
3858.47,0.9705
3861.35,0.9705
3864.22,0.9707
3867.11,0.9707
3869.99,0.9709
3872.88,0.9711
3875.78,0.971
3878.67,0.9709
3881.58,0.971
3884.48,0.9715
3887.4,0.9717
3890.31,0.9718
3893.23,0.9721
3896.16,0.9727
3899.09,0.973
3902.02,0.9728
3904.96,0.9728
3907.9,0.9726
3910.85,0.9728
3913.8,0.9738
3916.76,0.9742
3919.72,0.9736
3922.68,0.9737
3925.65,0.9741
3928.62,0.9739
3931.6,0.9739
3934.58,0.9745
3937.57,0.9747
3940.56,0.9748
3943.56,0.9755
3946.56,0.9764
3949.57,0.9758
3952.58,0.9754
3955.59,0.9752
3958.61,0.9761
3961.63,0.9768
3964.66,0.9764
3967.7,0.976
3970.73,0.9769
3973.78,0.9777
3976.82,0.9774
3979.88,0.9767
3982.93,0.9776
3985.99,0.9782
3989.06,0.9785
3992.13,0.9787
3995.21,0.9787
3998.29,0.9785
4001.37,0.9787
4004.46,0.9786
4007.55,0.9784
4010.65,0.9793
4013.76,0.9799
4016.87,0.9792
4019.98,0.9791
4023.1,0.9798
4026.22,0.9799
4029.35,0.9799
4032.48,0.98
4035.62,0.9801
4038.76,0.9803
4041.91,0.9803
4045.06,0.9803
4048.22,0.9805
4051.38,0.9809
4054.55,0.981
4057.72,0.981
4060.9,0.9805
4064.08,0.9807
4067.27,0.9811
4070.46,0.9814
4073.66,0.9813
4076.86,0.9816
4080.07,0.9819
4083.28,0.9825
4086.5,0.9826
4089.72,0.982
4092.95,0.9817
4096.18,0.9819
4099.42,0.9822
4102.66,0.9825
4105.91,0.9823
4109.16,0.9823
4112.42,0.9827
4115.69,0.983
4118.96,0.9825
4122.23,0.9825
4125.51,0.9826
4128.79,0.9833
4132.08,0.9834
4135.38,0.9832
4138.68,0.9828
4141.98,0.9827
4145.29,0.9828
4148.61,0.9833
4151.93,0.9833
4155.26,0.9833
4158.59,0.9834
4161.93,0.9834
4165.27,0.9835
4168.62,0.9836
4171.97,0.9833
4175.33,0.983
4178.69,0.9827
4182.06,0.9832
4185.44,0.984
4188.82,0.9841
4192.21,0.9833
4195.6,0.9833
4198.99,0.9835
4202.4,0.9837
4205.8,0.9839
4209.22,0.9837
4212.64,0.9835
4216.06,0.9839
4219.49,0.9836
4222.93,0.9831
4226.37,0.9832
4229.82,0.9832
4233.27,0.9833
4236.73,0.9837
4240.19,0.9837
4243.66,0.9838
4247.14,0.9836
4250.62,0.984
4254.1,0.9841
4257.6,0.9843
4261.09,0.9842
4264.6,0.9839
4268.11,0.9833
4271.62,0.9834
4275.14,0.9839
4278.67,0.9839
4282.2,0.9835
4285.74,0.9838
4289.29,0.9836
4292.84,0.9839
4296.4,0.9841
4299.96,0.9844
4303.53,0.984
4307.1,0.9837
4310.68,0.9839
4314.27,0.9844
4317.86,0.9839
4321.46,0.9837
4325.06,0.9838
4328.67,0.9839
4332.29,0.9837
4335.91,0.9839
4339.54,0.9839
4343.17,0.9843
4346.81,0.9844
4350.46,0.984
4354.11,0.9838
4357.77,0.984
4361.43,0.9841
4365.1,0.9842
4368.78,0.9841
4372.46,0.9843
4376.15,0.9842
4379.85,0.9839
4383.55,0.9839
4387.26,0.9844
4390.97,0.9846
4394.69,0.9844
4398.42,0.9836
4402.16,0.9841
4405.9,0.9843
4409.64,0.9842
4413.39,0.9837
4417.15,0.984
4420.92,0.9841
4424.69,0.9839
4428.47,0.9839
4432.25,0.9837
4436.04,0.9837
4439.84,0.984
4443.65,0.9838
4447.46,0.9837
4451.27,0.9839
4455.1,0.9842
4458.93,0.9837
4462.77,0.9836
4466.61,0.9837
4470.46,0.984
4474.32,0.9838
4478.18,0.9839
4482.05,0.984
4485.93,0.9836
4489.81,0.9832
4493.7,0.9838
4497.6,0.9841
4501.5,0.984
4505.41,0.9835
4509.33,0.9836
4513.25,0.9834
4517.18,0.9837
4521.12,0.9836
4525.07,0.9836
4529.02,0.9833
4532.98,0.9835
4536.94,0.9833
4540.92,0.9835
4544.9,0.9835
4548.88,0.9836
4552.88,0.9836
4556.88,0.9836
4560.88,0.9837
4564.9,0.9836
4568.92,0.983
4572.95,0.9825
4576.98,0.9826
4581.03,0.9827
4585.08,0.9829
4589.13,0.983
4593.2,0.9829
4597.27,0.9834
4601.35,0.9835
4605.44,0.9836
4609.53,0.9834
4613.63,0.9828
4617.74,0.9824
4621.85,0.9826
4625.97,0.9826
4630.1,0.9825
4634.24,0.9826
4638.39,0.9828
4642.54,0.9827
4646.7,0.9828
4650.87,0.9827
4655.04,0.9828
4659.22,0.9828
4663.41,0.9828
4667.61,0.9827
4671.81,0.9828
4676.03,0.9827
4680.25,0.9827
4684.47,0.983
4688.71,0.9834
4692.95,0.9827
4697.2,0.9826
4701.46,0.9828
4705.73,0.9826
4710.0,0.9827
4714.28,0.9829
4718.57,0.9825
4722.87,0.9827
4727.17,0.9827
4731.49,0.983
4735.81,0.9833
4740.13,0.9831
4744.47,0.9828
4748.82,0.9828
4753.17,0.9826
4757.53,0.9827
4761.9,0.983
4766.27,0.9833
4770.66,0.9832
4775.05,0.9831
4779.45,0.9827
4783.86,0.9826
4788.28,0.9826
4792.7,0.9828
4797.13,0.9826
4801.58,0.9825
4806.03,0.9824
4810.48,0.983
4814.95,0.9828
4819.42,0.9826
4823.91,0.9828
4828.4,0.9829
4832.9,0.9828
4837.4,0.9831
4841.92,0.9829
4846.45,0.9827
4850.98,0.9826
4855.52,0.9826
4860.07,0.9823
4864.63,0.982
4869.2,0.9822
4873.77,0.9823
4878.36,0.9824
4882.95,0.9825
4887.55,0.9819
4892.16,0.9819
4896.78,0.9818
4901.41,0.982
4906.05,0.982
4910.69,0.9817
4915.35,0.9809
4920.01,0.9807
4924.68,0.9806
4929.36,0.9806
4934.05,0.9808
4938.75,0.9807
4943.46,0.9804
4948.18,0.9806
4952.9,0.9808
4957.64,0.9806
4962.38,0.9803
4967.13,0.9804
4971.89,0.9806
4976.67,0.9807
4981.45,0.9803
4986.23,0.9801
4991.03,0.9801
4995.84,0.9799
5000.66,0.9798
5005.49,0.9801
5010.32,0.9799
5015.17,0.9799
5020.02,0.9801
5024.88,0.9801
5029.76,0.9799
5034.64,0.9799
5039.53,0.9796
5044.43,0.9795
5049.35,0.9795
5054.27,0.9802
5059.2,0.9802
5064.14,0.9799
5069.09,0.9797
5074.05,0.9795
5079.02,0.9795
5084.0,0.9797
5088.98,0.9796
5093.98,0.9799
5098.99,0.9798
5104.01,0.9796
5109.04,0.9795
5114.08,0.9796
5119.12,0.9795
5124.18,0.9794
5129.25,0.9794
5134.33,0.9795
5139.42,0.9794
5144.51,0.9798
5149.62,0.9804
5154.74,0.9805
5159.87,0.9801
5165.01,0.9798
5170.16,0.9799
5175.32,0.9802
5180.49,0.9799
5185.67,0.9799
5190.86,0.9798
5196.06,0.9801
5201.27,0.9801
5206.49,0.9799
5211.72,0.9798
5216.96,0.9804
5222.22,0.9806
5227.48,0.9804
5232.76,0.9802
5238.04,0.9804
5243.34,0.9804
5248.64,0.9803
5253.96,0.9801
5259.29,0.9805
5264.63,0.9809
5269.98,0.9809
5275.34,0.9807
5280.71,0.9808
5286.09,0.9811
5291.49,0.9815
5296.89,0.9814
5302.31,0.9813
5307.73,0.9812
5313.17,0.9812
5318.62,0.9811
5324.08,0.9813
5329.55,0.9813
5335.03,0.9816
5340.53,0.9817
5346.03,0.9818
5351.55,0.9818
5357.08,0.9819
5362.62,0.9814
5368.17,0.9814
5373.73,0.9813
5379.3,0.9815
5384.89,0.9819
5390.49,0.9823
5396.09,0.9824
5401.71,0.9825
5407.35,0.9821
5412.99,0.982
5418.65,0.9821
5424.31,0.9823
5429.99,0.9826
5435.68,0.9827
5441.39,0.9824
5447.1,0.9825
5452.83,0.9827
5458.57,0.983
5464.32,0.9829
5470.08,0.9831
5475.86,0.9834
5481.65,0.9834
5487.45,0.9834
5493.26,0.9833
5499.08,0.9833
5504.92,0.9837
5510.77,0.9836
5516.63,0.9831
5522.51,0.9833
5528.39,0.984
5534.29,0.9838
5540.21,0.9839
5546.13,0.984
5552.07,0.9843
5558.02,0.9846
5563.98,0.9847
5569.96,0.9849
5575.95,0.9849
5581.95,0.9846
5587.96,0.9847
5593.99,0.9847
5600.03,0.9852
5606.08,0.9854
5612.15,0.9854
5618.23,0.9856
5624.32,0.986
5630.43,0.986
5636.55,0.9863
5642.68,0.9864
5648.83,0.9867
5654.99,0.9865
5661.16,0.9864
5667.35,0.9866
5673.55,0.9868
5679.76,0.9869
5685.99,0.9871
5692.23,0.987
5698.48,0.9871
5704.75,0.9873
5711.03,0.9876
5717.33,0.9877
5723.64,0.9879
5729.96,0.9882
5736.3,0.9883
5742.65,0.9884
5749.02,0.9887
5755.4,0.9883
5761.79,0.9884
5768.2,0.9886
5774.62,0.9884
5781.06,0.9888
5787.51,0.9895
5793.98,0.9895
5800.46,0.9894
5806.95,0.9891
5813.46,0.9893
5819.98,0.9896
5826.52,0.9898
5833.08,0.9899
5839.64,0.9897
5846.23,0.9897
5852.83,0.9903
5859.44,0.9905
5866.07,0.9903
5872.71,0.9905
5879.37,0.9909
5886.04,0.9905
5892.73,0.9904
5899.43,0.9907
5906.15,0.9912
5912.88,0.9907
5919.63,0.9908
5926.4,0.991
5933.18,0.9913
5939.97,0.9908
5946.78,0.9906
5953.61,0.9905
5960.45,0.9907
5967.31,0.9907
5974.18,0.9906
5981.07,0.9905
5987.98,0.9906
5994.9,0.99
6001.84,0.9897
6008.79,0.9894
6015.76,0.9895
6022.75,0.9895
6029.75,0.9889
6036.77,0.9882
6043.81,0.988
6050.86,0.9877
6057.93,0.9874
6065.01,0.9873
6072.11,0.9874
6079.23,0.9866
6086.36,0.9863
6093.51,0.986
6100.68,0.9859
6107.87,0.9858
6115.07,0.9862
6122.29,0.9862
6129.52,0.9861
6136.78,0.9856
6144.05,0.9854
6151.34,0.9852
6158.64,0.9854
6165.96,0.9854
6173.3,0.9859
6180.66,0.9858
6188.03,0.9861
6195.43,0.9863
6202.84,0.9866
6210.26,0.9864
6217.71,0.9862
6225.17,0.9857
6232.65,0.9857
6240.15,0.9861
6247.67,0.9866
6255.21,0.9866
6262.76,0.9866
6270.33,0.9865
6277.92,0.987
6285.53,0.9868
6293.16,0.9865
6300.8,0.9865
6308.47,0.9869
6316.15,0.9873
6323.85,0.9875
6331.57,0.9869
6339.31,0.987
6347.07,0.9872
6354.85,0.9872
6362.65,0.9868
6370.46,0.9867
6378.3,0.9869
6386.15,0.9872
6394.02,0.9868
6401.92,0.9868
6409.83,0.9869
6417.76,0.9868
6425.71,0.9865
6433.68,0.9869
6441.67,0.9869
6449.69,0.9867
6457.72,0.9865
6465.77,0.9869
6473.84,0.9868
6481.93,0.9867
6490.04,0.9869
6498.17,0.9872
6506.33,0.9873
6514.5,0.9877
6522.69,0.9877
6530.91,0.9877
6539.14,0.9875
6547.4,0.9874
6555.67,0.9871
6563.97,0.9875
6572.29,0.9879
6580.63,0.9877
6588.99,0.9876
6597.37,0.9881
6605.77,0.988
6614.2,0.9871
6622.65,0.9864
6631.11,0.9872
6639.6,0.9882
6648.11,0.9886
6656.65,0.9885
6665.2,0.9884
6673.78,0.9881
6682.38,0.9876
6691.0,0.9875
6699.64,0.988
6708.31,0.988
6717.0,0.988
6725.71,0.9879
6734.44,0.9878
6743.2,0.9879
6751.98,0.9884
6760.78,0.9882
6769.61,0.9885
6778.45,0.9887
6787.32,0.9885
6796.22,0.9883
6805.14,0.9889
6814.08,0.989
6823.04,0.9889
6832.03,0.9888
6841.04,0.989
6850.08,0.9891
6859.14,0.9889
6868.22,0.9884
6877.33,0.9884
6886.46,0.9882
6895.62,0.9882
6904.8,0.9882
6914.01,0.9884
6923.24,0.9883
6932.49,0.9883
6941.77,0.9886
6951.07,0.989
6960.4,0.9885
6969.76,0.9886
6979.14,0.9889
6988.54,0.989
6997.97,0.9884
7007.43,0.9886
7016.91,0.9888
7026.41,0.9889
7035.95,0.9887
7045.51,0.9888
7055.09,0.9891
7064.7,0.9892
7074.34,0.989
7084.0,0.9892
7093.69,0.9891
7103.41,0.9893
7113.15,0.9894
7122.92,0.9895
7132.71,0.9897
7142.54,0.9896
7152.39,0.9894
7162.27,0.9899
7172.17,0.9897
7182.1,0.9897
7192.06,0.9897
7202.05,0.9899
7212.07,0.99
7222.11,0.99
7232.18,0.9901
7242.28,0.9903
7252.41,0.9903
7262.57,0.9907
7272.75,0.9906
7282.96,0.9905
7293.21,0.9906
7303.48,0.9906
7313.78,0.9903
7324.1,0.9905
7334.46,0.9907
7344.85,0.9911
7355.27,0.9909
7365.71,0.9909
7376.19,0.9907
7386.7,0.9909
7397.23,0.9912
7407.8,0.9915
7418.39,0.9913
7429.02,0.9914
7439.68,0.9916
7450.37,0.9918
7461.08,0.9915
7471.83,0.9915
7482.61,0.9916
7493.43,0.992
7504.27,0.9917
7515.14,0.9917
7526.05,0.9919
7536.99,0.9921
7547.96,0.9918
7558.96,0.992
7569.99,0.9917
7581.06,0.9917
7592.15,0.9922
7603.28,0.9926
7614.45,0.9925
7625.64,0.9924
7636.87,0.992
7648.14,0.9924
7659.43,0.9926
7670.76,0.9923
7682.12,0.9923
7693.52,0.9924
7704.95,0.9921
7716.41,0.9925
7727.91,0.9927
7739.44,0.9926
7751.01,0.9924
7762.61,0.993
7774.25,0.9934
7785.92,0.9936
7797.63,0.9932
7809.37,0.9931
7821.15,0.9933
7832.96,0.9935
7844.81,0.9936
7856.69,0.9937
7868.61,0.9935
7880.57,0.9933
7892.56,0.9937
7904.59,0.9939
7916.66,0.9934
7928.76,0.9934
7940.9,0.9937
7953.08,0.9944
7965.29,0.9942
7977.55,0.9945
7989.84,0.9943
8002.17,0.9939
8014.53,0.9937
8026.94,0.994
8039.38,0.994
8051.86,0.9941
8064.38,0.9941
8076.94,0.9943
8089.54,0.9942
8102.18,0.9945
8114.86,0.9946
8127.57,0.9945
8140.33,0.9945
8153.13,0.995
8165.96,0.9949
8178.84,0.9948
8191.76,0.9947
8204.72,0.995
8217.72,0.9949
8230.76,0.9948
8243.85,0.9951
8256.97,0.9955
8270.14,0.9951
8283.35,0.9958
8296.6,0.9955
8309.89,0.995
8323.23,0.9949
8336.61,0.9946
8350.03,0.9942
8363.5,0.9947
8377.01,0.9942
8390.56,0.9943
8404.16,0.994
8417.8,0.9935
8431.48,0.9927
8445.21,0.9924
8458.99,0.992
8472.81,0.9917
8486.67,0.9908
8500.58,0.9905
8514.54,0.9895
8528.54,0.9884
8542.59,0.9868
8556.68,0.9851
8570.83,0.9835
8585.01,0.9816
8599.25,0.9792
8613.53,0.9775
8627.86,0.9751
8642.24,0.9728
8656.66,0.9699
8671.14,0.968
8685.66,0.9663
8700.23,0.965
8714.85,0.9633
8729.52,0.9616
8744.24,0.9591
8759.01,0.9568
8773.83,0.9546
8788.69,0.9538
8803.61,0.9522
8818.58,0.9495
8833.6,0.9459
8848.68,0.9435
8863.8,0.9413
8878.97,0.9388
8894.2,0.936
8909.48,0.935
8924.81,0.9333
8940.2,0.9318
8955.64,0.9296
8971.13,0.9284
8986.67,0.9283
9002.27,0.928
9017.93,0.9269
9033.64,0.9266
9049.4,0.9269
9065.22,0.9277
9081.09,0.9275
9097.02,0.9277
9113.0,0.9292
9129.04,0.9311
9145.14,0.9316
9161.3,0.9327
9177.51,0.9339
9193.78,0.9361
9210.11,0.9381
9226.49,0.9401
9242.94,0.9413
9259.44,0.9436
9276.0,0.9459
9292.62,0.9477
9309.3,0.9497
9326.04,0.9516
9342.84,0.953
9359.7,0.9554
9376.63,0.9577
9393.61,0.9597
9410.66,0.9606
9427.76,0.962
9444.93,0.9635
9462.17,0.965
9479.46,0.9655
9496.82,0.966
9514.24,0.9667
9531.73,0.9674
9549.28,0.968
9566.89,0.9693
9584.58,0.9703
9602.32,0.9709
9620.13,0.9706
9638.01,0.972
9655.96,0.9729
9673.97,0.9728
9692.05,0.9727
9710.19,0.9737
9728.41,0.9747
9746.69,0.975
9765.04,0.9751
9783.47,0.9757
9801.96,0.9757
9820.52,0.9763
9839.15,0.9764
9857.85,0.9757
9876.62,0.9755
9895.47,0.9772
9914.39,0.9784
9933.38,0.9793
9952.44,0.979
9971.58,0.9789
9990.78,0.979
10010.07,0.9795
10029.43,0.9794
10048.86,0.9797
10068.37,0.9802
10087.95,0.9815
10107.61,0.9818
10127.35,0.9819
10147.17,0.9812
10167.06,0.9804
10187.03,0.9801
10207.08,0.9807
10227.21,0.9815
10247.42,0.9819
10267.71,0.9817
10288.07,0.9824
10308.52,0.9825
10329.06,0.9828
10349.67,0.9827
10370.36,0.9833
10391.14,0.9837
10412.0,0.9836
10432.95,0.9827
10453.98,0.9829
10475.1,0.9835
10496.3,0.9843
10517.58,0.9841
10538.96,0.9838
10560.42,0.9841
10582.0,0.9844
10603.6,0.9845
10625.3,0.9845
10647.1,0.9839
10669.0,0.9848
10691.0,0.9856
10713.1,0.9856
10735.3,0.9849
10757.6,0.9853
10779.9,0.985
10802.4,0.9852
10824.9,0.9852
10847.6,0.9854
10870.3,0.9857
10893.1,0.9859
10916.1,0.9862
10939.1,0.987
10962.2,0.9868
10985.4,0.9867
11008.7,0.9867
11032.2,0.9874
11055.7,0.9873
11079.3,0.9879
11103.0,0.9876
11126.9,0.9877
11150.8,0.9875
11174.8,0.9876
11198.9,0.9875
11223.2,0.9881
11247.5,0.9878
11271.9,0.9877
11296.5,0.9879
11321.2,0.9884
11345.9,0.9888
11370.8,0.9889
11395.8,0.9883
11420.9,0.9887
11446.1,0.9889
11471.4,0.9894
11496.8,0.99
11522.4,0.9898
11548.0,0.9896
11573.8,0.9902
11599.7,0.99
11625.7,0.9906
11651.8,0.9907
11678.1,0.9908
11704.4,0.9905
11730.9,0.9906
11757.5,0.9906
11784.2,0.991
11811.0,0.9907
11838.0,0.9908
11865.1,0.9901
11892.3,0.99
11919.6,0.9908
11947.1,0.9913
11974.7,0.9911
12002.4,0.9911
12030.2,0.9908
12058.2,0.991
12086.3,0.9905
12114.5,0.9915
12142.9,0.9913
12171.4,0.9914
12200.0,0.9918
12228.8,0.9916
12257.7,0.9912
12286.7,0.9914
12315.9,0.9907
12345.2,0.9912
12374.7,0.9917
12404.3,0.992
12434.0,0.9915
12463.9,0.991
12493.9,0.9909
12524.1,0.9918
12554.4,0.9918
12584.9,0.9918
12615.5,0.9908
12646.3,0.9903
12677.2,0.9898
12708.2,0.9904
12739.5,0.9899
12770.8,0.9901
12802.4,0.9901
12834.0,0.9904
12865.9,0.9899
12897.9,0.9896
12930.0,0.9888
12962.3,0.988
12994.8,0.9874
13027.5,0.9884
13060.3,0.9883
13093.3,0.9878
13126.4,0.9871
13159.7,0.9879
13193.2,0.9873
13226.8,0.9866
13260.6,0.9858
13294.6,0.9858
13328.8,0.9862
13363.2,0.9871
13397.7,0.9863
13432.4,0.9863
13467.2,0.9858
13502.3,0.9857
13537.6,0.9863
13573.0,0.9862
13608.6,0.9849
13644.4,0.9856
13680.4,0.9855
13716.6,0.9853
13753.0,0.9855
13789.5,0.9855
13826.3,0.9854
13863.3,0.9871
13900.4,0.9881
13937.8,0.9877
13975.3,0.9864
14013.1,0.9863
14051.1,0.9846
14089.2,0.9864
14127.6,0.9861
14166.2,0.9842
14205.0,0.9843
14244.0,0.9863
14283.2,0.9864
14322.7,0.9868
14362.4,0.9865
14402.2,0.9887
14442.3,0.9883
14482.7,0.9879
14523.2,0.9854
14564.0,0.9831
14605.0,0.978
14646.3,0.9789
14687.8,0.9777
14729.5,0.982
14771.4,0.9881
14813.6,0.9921
14856.0,0.9803
14898.7,0.9829
14941.7,0.9756
14984.8,0.9776
15028.3,0.9763
15071.9,0.9806
15115.9,0.9718
15160.0,0.9602
