Database of Origin,University of Winnipeg Spectrophotometer Facility
Sample Description,Carbonaceous chondrites - RELAB archive 2. CM chondrites
Date Added,2018-07-23 23:44:50.837754

Data ID,RLA_MET_33_80       
Sample ID,Y82042/60
Mineral Name,CM Chondrite
Grain Size,<125 um
Viewing Geometry,30/0
Material Class,CM1-2

Wavelength
305.0,0.015989
310.0,0.016095
315.0,0.016313
320.0,0.016212
325.0,0.016702
330.0,0.017119
335.0,0.017254
340.0,0.018086
345.0,0.018816
350.0,0.019009
355.0,0.019658
360.0,0.019993
365.0,0.020377
370.0,0.020815
375.0,0.021788
380.0,0.02235
385.0,0.02307
390.0,0.023684
395.0,0.024435
400.0,0.02496
405.0,0.025565
410.0,0.025471
415.0,0.025748
420.0,0.026397
425.0,0.027001
430.0,0.027625
435.0,0.028122
440.0,0.028653
445.0,0.029236
450.0,0.029691
455.0,0.03021
460.0,0.030523
465.0,0.030816
470.0,0.031182
475.0,0.031493
480.0,0.031994
485.0,0.031849
490.0,0.032095
495.0,0.033285
500.0,0.034087
505.0,0.034481
510.0,0.034922
515.0,0.03556
520.0,0.035986
525.0,0.036068
530.0,0.036559
535.0,0.037172
540.0,0.037557
545.0,0.037351
550.0,0.037512
555.0,0.037904
560.0,0.038075
565.0,0.038138
570.0,0.039024
575.0,0.038454
580.0,0.039762
585.0,0.040057
590.0,0.040085
595.0,0.039381
600.0,0.039865
605.0,0.039913
610.0,0.039879
615.0,0.03979
620.0,0.04012
625.0,0.040177
630.0,0.039972
635.0,0.039907
640.0,0.040428
645.0,0.040132
650.0,0.040341
655.0,0.040727
660.0,0.04059
665.0,0.040763
670.0,0.040833
675.0,0.040812
680.0,0.040857
685.0,0.040919
690.0,0.040898
695.0,0.040282
700.0,0.040601
705.0,0.04117
710.0,0.041558
715.0,0.041636
720.0,0.041622
725.0,0.041422
730.0,0.041507
735.0,0.041649
740.0,0.041971
745.0,0.042229
750.0,0.042235
755.0,0.042286
760.0,0.042402
765.0,0.042635
770.0,0.042564
775.0,0.042575
780.0,0.042724
785.0,0.042753
790.0,0.042777
795.0,0.04274
800.0,0.042628
805.0,0.042845
810.0,0.042731
815.0,0.042736
820.0,0.042661
825.0,0.042962
830.0,0.042783
835.0,0.04266
840.0,0.042756
845.0,0.042736
850.0,0.042858
855.0,0.042961
860.0,0.042727
865.0,0.042705
870.0,0.042772
875.0,0.043055
880.0,0.042936
885.0,0.042861
890.0,0.042813
895.0,0.042801
900.0,0.042991
905.0,0.042788
910.0,0.043088
915.0,0.042967
920.0,0.043177
925.0,0.043189
930.0,0.043219
935.0,0.043215
940.0,0.043136
945.0,0.043241
950.0,0.043129
955.0,0.043388
960.0,0.04332
965.0,0.04332
970.0,0.043302
975.0,0.043432
980.0,0.043476
985.0,0.043425
990.0,0.043538
995.0,0.043662
1000.0,0.043658
1005.0,0.043599
1010.0,0.043737
1015.0,0.043587
1020.0,0.043666
1025.0,0.043784
1030.0,0.043739
1035.0,0.043951
1040.0,0.043854
1045.0,0.043992
1050.0,0.044043
1055.0,0.044145
1060.0,0.043944
1065.0,0.043998
1070.0,0.044136
1075.0,0.044071
1080.0,0.044018
1085.0,0.044208
1090.0,0.044205
1095.0,0.044276
1100.0,0.044367
1105.0,0.044489
1110.0,0.044535
1115.0,0.044473
1120.0,0.044594
1125.0,0.044649
1130.0,0.044726
1135.0,0.044773
1140.0,0.044868
1145.0,0.044898
1150.0,0.044879
1155.0,0.045036
1160.0,0.045079
1165.0,0.045192
1170.0,0.045402
1175.0,0.045441
1180.0,0.045499
1185.0,0.045509
1190.0,0.045599
1195.0,0.045672
1200.0,0.045794
1205.0,0.045816
1210.0,0.045974
1215.0,0.046022
1220.0,0.046257
1225.0,0.046351
1230.0,0.046264
1235.0,0.046226
1240.0,0.046191
1245.0,0.046213
1250.0,0.046305
1255.0,0.046446
1260.0,0.046552
1265.0,0.046685
1270.0,0.046657
1275.0,0.046617
1280.0,0.046629
1285.0,0.046722
1290.0,0.046923
1295.0,0.046833
1300.0,0.046847
1305.0,0.046924
1310.0,0.047032
1315.0,0.047084
1320.0,0.047227
1325.0,0.047375
1330.0,0.047528
1335.0,0.047554
1340.0,0.047642
1345.0,0.047738
1350.0,0.047746
1355.0,0.04785
1360.0,0.047964
1365.0,0.048025
1370.0,0.04809
1375.0,0.048174
1380.0,0.048279
1385.0,0.048396
1390.0,0.048398
1395.0,0.048492
1400.0,0.04856
1405.0,0.048769
1410.0,0.048774
1415.0,0.048853
1420.0,0.048879
1425.0,0.049025
1430.0,0.049109
1435.0,0.049227
1440.0,0.049354
1445.0,0.049442
1450.0,0.049591
1455.0,0.049601
1460.0,0.049697
1465.0,0.049898
1470.0,0.05003
1475.0,0.0502
1480.0,0.050236
1485.0,0.050223
1490.0,0.050276
1495.0,0.050454
1500.0,0.050589
1505.0,0.050616
1510.0,0.050796
1515.0,0.050774
1520.0,0.050814
1525.0,0.051077
1530.0,0.051097
1535.0,0.051156
1540.0,0.05118
1545.0,0.051363
1550.0,0.05135
1555.0,0.051591
1560.0,0.05155
1565.0,0.05168
1570.0,0.051762
1575.0,0.05197
1580.0,0.05213
1585.0,0.0522
1590.0,0.052358
1595.0,0.052297
1600.0,0.052414
1605.0,0.052178
1610.0,0.052389
1615.0,0.052399
1620.0,0.052671
1625.0,0.052748
1630.0,0.052744
1635.0,0.052882
1640.0,0.053042
1645.0,0.053109
1650.0,0.053276
1655.0,0.053213
1660.0,0.053422
1665.0,0.053572
1670.0,0.05351
1675.0,0.053526
1680.0,0.053736
1685.0,0.053634
1690.0,0.053787
1695.0,0.053983
1700.0,0.054057
1705.0,0.054069
1710.0,0.05422
1715.0,0.054219
1720.0,0.054272
1725.0,0.054333
1730.0,0.054436
1735.0,0.054456
1740.0,0.054499
1745.0,0.054636
1750.0,0.054722
1755.0,0.054762
1760.0,0.054904
1765.0,0.054958
1770.0,0.054998
1775.0,0.055009
1780.0,0.055034
1785.0,0.055162
1790.0,0.055144
1795.0,0.05525
1800.0,0.055221
1805.0,0.055492
1810.0,0.055418
1815.0,0.055434
1820.0,0.05564
1825.0,0.055604
1830.0,0.055687
1835.0,0.055749
1840.0,0.055807
1845.0,0.055924
1850.0,0.056029
1855.0,0.05597
1860.0,0.056188
1865.0,0.056141
1870.0,0.056109
1875.0,0.056289
1880.0,0.056195
1885.0,0.056261
1890.0,0.056269
1895.0,0.056198
1900.0,0.056188
1905.0,0.056184
1910.0,0.056144
1915.0,0.056087
1920.0,0.05615
1925.0,0.056211
1930.0,0.056242
1935.0,0.056281
1940.0,0.056515
1945.0,0.056559
1950.0,0.056555
1955.0,0.056582
1960.0,0.056754
1965.0,0.056857
1970.0,0.056959
1975.0,0.057072
1980.0,0.05704
1985.0,0.057118
1990.0,0.057151
1995.0,0.05707
2000.0,0.057259
2005.0,0.057283
2010.0,0.057344
2015.0,0.057474
2020.0,0.057652
2025.0,0.057648
2030.0,0.057814
2035.0,0.057822
2040.0,0.05802
2045.0,0.057922
2050.0,0.058103
2055.0,0.058148
2060.0,0.058086
2065.0,0.058146
2070.0,0.058133
2075.0,0.0582
2080.0,0.058242
2085.0,0.058417
2090.0,0.058444
2095.0,0.058538
2100.0,0.058536
2105.0,0.05865
2110.0,0.058644
2115.0,0.058581
2120.0,0.058807
2125.0,0.058993
2130.0,0.058802
2135.0,0.058976
2140.0,0.059135
2145.0,0.059078
2150.0,0.059159
2155.0,0.059249
2160.0,0.059375
2165.0,0.059372
2170.0,0.059569
2175.0,0.059416
2180.0,0.059631
2185.0,0.059788
2190.0,0.060072
2195.0,0.060248
2200.0,0.060133
2205.0,0.060099
2210.0,0.06017
2215.0,0.060209
2220.0,0.060202
2225.0,0.060285
2230.0,0.060263
2235.0,0.06028
2240.0,0.060213
2245.0,0.060358
2250.0,0.060419
2255.0,0.060497
2260.0,0.060488
2265.0,0.060627
2270.0,0.060566
2275.0,0.060863
2280.0,0.060409
2285.0,0.060472
2290.0,0.060422
2295.0,0.060355
2300.0,0.06059
2305.0,0.060736
2310.0,0.060571
2315.0,0.060576
2320.0,0.060544
2325.0,0.060468
2330.0,0.06036
2335.0,0.060459
2340.0,0.060507
2345.0,0.060577
2350.0,0.06062
2355.0,0.06075
2360.0,0.060629
2365.0,0.060741
2370.0,0.06082
2375.0,0.060777
2380.0,0.060684
2385.0,0.060771
2390.0,0.060768
2395.0,0.060817
2400.0,0.060865
2405.0,0.060658
2410.0,0.060643
2415.0,0.060644
2420.0,0.060693
2425.0,0.060812
2430.0,0.060868
2435.0,0.060824
2440.0,0.060728
2445.0,0.060566
2450.0,0.060481
2455.0,0.0605
2460.0,0.060574
2465.0,0.060542
2470.0,0.060391
2475.0,0.060503
2480.0,0.060274
2485.0,0.060003
2490.0,0.059918
2495.0,0.059894
2500.0,0.05985
2505.0,0.059608
2510.0,0.059741
2515.0,0.05971
2520.0,0.059613
2525.0,0.0596
2530.0,0.059575
2535.0,0.059493
2540.0,0.059679
2545.0,0.059471
2550.0,0.059282
2555.0,0.059617
2560.0,0.058771
2565.0,0.058873
2570.0,0.059232
2575.0,0.058861
2580.0,0.058821
2585.0,0.058136
2590.0,0.058702
2595.0,0.058189
2600.0,0.058855
