Database of Origin,University of Winnipeg Spectrophotometer Facility
Sample Description,16.12. Meteorites - Ureilites 16.12.3. Pierre Hudon (JSC) samples (b) Nicolet FTIR spectra from RELAB
Other Information,bmr1ph027
Date Added,2018-07-23 23:49:07.110574

Data ID,RLA_MET2_9_1        
Sample ID,ALHA77257
Mineral Name,ureilite
Grain Size,<75 um
Viewing Geometry,30/30
Resolution,0.8-121 nm

Wavelength
2000.5,0.04224
2001.3,0.04286
2002.1,0.04338
2002.8,0.04352
2003.6,0.04338
2004.4,0.04358
2005.2,0.04363
2005.9,0.04352
2006.7,0.04343
2007.5,0.04358
2008.3,0.04415
2009.0,0.04411
2009.8,0.044
2010.6,0.04423
2011.4,0.04424
2012.2,0.04424
2012.9,0.04413
2013.7,0.04408
2014.5,0.04409
2015.3,0.04405
2016.1,0.04426
2016.8,0.04477
2017.6,0.04512
2018.4,0.04471
2019.2,0.04466
2020.0,0.04468
2020.8,0.04443
2021.6,0.0448
2022.4,0.04531
2023.2,0.04545
2023.9,0.04503
2024.7,0.04441
2025.5,0.04469
2026.3,0.04547
2027.1,0.04572
2027.9,0.04555
2028.7,0.04492
2029.5,0.04489
2030.3,0.04536
2031.1,0.04593
2031.9,0.04588
2032.7,0.0454
2033.5,0.04545
2034.3,0.04534
2035.1,0.04532
2035.9,0.04597
2036.7,0.04654
2037.5,0.04622
2038.3,0.04612
2039.1,0.0462
2039.9,0.04649
2040.7,0.04641
2041.5,0.04594
2042.3,0.04665
2043.1,0.0472
2043.9,0.0473
2044.7,0.04753
2045.5,0.04759
2046.3,0.04788
2047.1,0.04762
2047.9,0.04742
2048.7,0.04712
2049.5,0.04711
2050.4,0.04716
2051.2,0.0475
2052.0,0.04767
2052.8,0.04792
2053.6,0.04794
2054.4,0.04761
2055.2,0.04766
2056.0,0.04779
2056.9,0.04802
2057.7,0.04817
2058.5,0.04789
2059.3,0.04772
2060.1,0.04791
2060.9,0.04853
2061.8,0.04858
2062.6,0.04842
2063.4,0.04837
2064.2,0.0485
2065.1,0.04846
2065.9,0.04847
2066.7,0.04854
2067.5,0.04887
2068.3,0.04886
2069.2,0.04909
2070.0,0.04936
2070.8,0.04919
2071.6,0.04928
2072.5,0.04956
2073.3,0.04944
2074.1,0.04966
2075.0,0.04976
2075.8,0.04967
2076.6,0.04969
2077.5,0.04974
2078.3,0.04977
2079.1,0.04946
2080.0,0.0493
2080.8,0.04959
2081.6,0.05012
2082.5,0.05025
2083.3,0.05002
2084.1,0.05019
2085.0,0.04998
2085.8,0.0498
2086.7,0.04993
2087.5,0.05031
2088.3,0.05069
2089.2,0.05079
2090.0,0.05147
2090.9,0.05145
2091.7,0.05069
2092.6,0.05054
2093.4,0.05091
2094.2,0.05078
2095.1,0.05078
2095.9,0.05104
2096.8,0.05115
2097.6,0.05087
2098.5,0.05057
2099.3,0.05067
2100.2,0.05108
2101.0,0.05107
2101.9,0.05084
2102.7,0.05113
2103.6,0.05138
2104.4,0.05113
2105.3,0.05128
2106.1,0.05195
2107.0,0.05234
2107.9,0.052
2108.7,0.05175
2109.6,0.05191
2110.4,0.05214
2111.3,0.05226
2112.2,0.05234
2113.0,0.05223
2113.9,0.05226
2114.7,0.05217
2115.6,0.05199
2116.5,0.05236
2117.3,0.05281
2118.2,0.05288
2119.1,0.05281
2119.9,0.05262
2120.8,0.05232
2121.7,0.05261
2122.5,0.05277
2123.4,0.05293
2124.3,0.05295
2125.1,0.05293
2126.0,0.05297
2126.9,0.05315
2127.8,0.05316
2128.6,0.05321
2129.5,0.05344
2130.4,0.05347
2131.3,0.05356
2132.1,0.05355
2133.0,0.05342
2133.9,0.05358
2134.8,0.05406
2135.6,0.05417
2136.5,0.05392
2137.4,0.05375
2138.3,0.05376
2139.2,0.05418
2140.1,0.05453
2140.9,0.05436
2141.8,0.05423
2142.7,0.0543
2143.6,0.05422
2144.5,0.05398
2145.4,0.05402
2146.3,0.05396
2147.1,0.05409
2148.0,0.05475
2148.9,0.0546
2149.8,0.05426
2150.7,0.05435
2151.6,0.05451
2152.5,0.05477
2153.4,0.05523
2154.3,0.05518
2155.2,0.0548
2156.1,0.05503
2157.0,0.0552
2157.9,0.05537
2158.8,0.05541
2159.7,0.05517
2160.6,0.05508
2161.5,0.05517
2162.4,0.05518
2163.3,0.05546
2164.2,0.05598
2165.1,0.0558
2166.0,0.0553
2166.9,0.05511
2167.8,0.05575
2168.7,0.05613
2169.6,0.05601
2170.5,0.056
2171.4,0.05593
2172.3,0.05579
2173.3,0.05605
2174.2,0.05605
2175.1,0.05607
2176.0,0.05619
2176.9,0.05611
2177.8,0.05603
2178.7,0.05638
2179.6,0.05662
2180.6,0.0566
2181.5,0.05666
2182.4,0.0567
2183.3,0.05671
2184.2,0.05675
2185.1,0.05656
2186.1,0.05645
2187.0,0.05652
2187.9,0.05665
2188.8,0.05682
2189.8,0.05694
2190.7,0.05726
2191.6,0.05723
2192.6,0.05693
2193.5,0.05716
2194.4,0.05753
2195.3,0.0575
2196.3,0.05739
2197.2,0.05741
2198.1,0.05761
2199.1,0.05741
2200.0,0.05728
2200.9,0.05734
2201.9,0.05732
2202.8,0.05726
2203.7,0.05755
2204.7,0.05786
2205.6,0.05791
2206.5,0.05812
2207.5,0.05833
2208.4,0.05824
2209.4,0.05814
2210.3,0.05795
2211.3,0.05793
2212.2,0.05792
2213.1,0.05788
2214.1,0.05806
2215.0,0.05833
2216.0,0.05841
2216.9,0.05852
2217.9,0.05869
2218.8,0.05869
2219.8,0.05876
2220.7,0.05875
2221.7,0.05869
2222.6,0.05888
2223.6,0.05898
2224.5,0.05891
2225.5,0.05889
2226.4,0.05933
2227.4,0.05964
2228.4,0.05933
2229.3,0.05916
2230.3,0.05927
2231.2,0.0595
2232.2,0.0595
2233.1,0.05961
2234.1,0.05963
2235.1,0.05948
2236.0,0.05937
2237.0,0.05944
2238.0,0.05951
2238.9,0.05927
2239.9,0.05924
2240.9,0.05951
2241.8,0.05963
2242.8,0.05983
2243.8,0.05987
2244.8,0.05977
2245.7,0.05975
2246.7,0.05987
2247.7,0.06021
2248.6,0.06016
2249.6,0.06001
2250.6,0.06013
2251.6,0.06007
2252.6,0.06036
2253.5,0.06039
2254.5,0.0601
2255.5,0.06024
2256.5,0.06058
2257.5,0.06054
2258.4,0.06053
2259.4,0.06064
2260.4,0.06075
2261.4,0.06117
2262.4,0.06127
2263.4,0.06092
2264.4,0.06082
2265.4,0.061
2266.3,0.06111
2267.3,0.06125
2268.3,0.06136
2269.3,0.06137
2270.3,0.06146
2271.3,0.06136
2272.3,0.06111
2273.3,0.06102
2274.3,0.061
2275.3,0.06137
2276.3,0.06153
2277.3,0.06138
2278.3,0.06149
2279.3,0.06185
2280.3,0.0619
2281.3,0.06185
2282.3,0.06203
2283.3,0.06208
2284.3,0.06184
2285.3,0.062
2286.3,0.06213
2287.3,0.06199
2288.4,0.06194
2289.4,0.0621
2290.4,0.06222
2291.4,0.06227
2292.4,0.06239
2293.4,0.06254
2294.4,0.06253
2295.4,0.06246
2296.5,0.06241
2297.5,0.06256
2298.5,0.06241
2299.5,0.06231
2300.5,0.06248
2301.6,0.06266
2302.6,0.06275
2303.6,0.06271
2304.6,0.06272
2305.6,0.06279
2306.7,0.06295
2307.7,0.06327
2308.7,0.06315
2309.8,0.06312
2310.8,0.06314
2311.8,0.06329
2312.9,0.06354
2313.9,0.06368
2314.9,0.06355
2315.9,0.06348
2317.0,0.06366
2318.0,0.06356
2319.1,0.06341
2320.1,0.06339
2321.1,0.06351
2322.2,0.06365
2323.2,0.06385
2324.3,0.06389
2325.3,0.06388
2326.3,0.06399
2327.4,0.0641
2328.4,0.06411
2329.5,0.06402
2330.5,0.06396
2331.6,0.06396
2332.6,0.06402
2333.7,0.06415
2334.7,0.0642
2335.8,0.06414
2336.8,0.06409
2337.9,0.06419
2338.9,0.06454
2340.0,0.06469
2341.0,0.06467
2342.1,0.06453
2343.2,0.06451
2344.2,0.06456
2345.3,0.06442
2346.3,0.06458
2347.4,0.06466
2348.5,0.06467
2349.5,0.0648
2350.6,0.06492
2351.7,0.06504
2352.7,0.06508
2353.8,0.06512
2354.9,0.06506
2355.9,0.06503
2357.0,0.06524
2358.1,0.06517
2359.1,0.06513
2360.2,0.06522
2361.3,0.06523
2362.4,0.06537
2363.4,0.06548
2364.5,0.0656
2365.6,0.06571
2366.7,0.06562
2367.8,0.06546
2368.9,0.06551
2369.9,0.06567
2371.0,0.06571
2372.1,0.06569
2373.2,0.06561
2374.3,0.06582
2375.4,0.0661
2376.4,0.06613
2377.5,0.06599
2378.6,0.06598
2379.7,0.06579
2380.8,0.06593
2381.9,0.06619
2383.0,0.06631
2384.1,0.06613
2385.2,0.06605
2386.3,0.0664
2387.4,0.06657
2388.5,0.06636
2389.6,0.06614
2390.7,0.0662
2391.8,0.06645
2392.9,0.06665
2394.0,0.06679
2395.1,0.06664
2396.2,0.06673
2397.3,0.0668
2398.4,0.06666
2399.6,0.06671
2400.7,0.06689
2401.8,0.06684
2402.9,0.06688
2404.0,0.0671
2405.1,0.06707
2406.2,0.06708
2407.4,0.06726
2408.5,0.06726
2409.6,0.06711
2410.7,0.06708
2411.8,0.06712
2412.9,0.06716
2414.1,0.06738
2415.2,0.06753
2416.3,0.06756
2417.4,0.06758
2418.6,0.06739
2419.7,0.06742
2420.8,0.06756
2422.0,0.06747
2423.1,0.06737
2424.2,0.06735
2425.4,0.06744
2426.5,0.06756
2427.6,0.06764
2428.8,0.06795
2429.9,0.0682
2431.1,0.06814
2432.2,0.06793
2433.3,0.06788
2434.5,0.06807
2435.6,0.06821
2436.8,0.06806
2437.9,0.06798
2439.1,0.0682
2440.2,0.0684
2441.4,0.06843
2442.5,0.0684
2443.6,0.06836
2444.8,0.06851
2446.0,0.06863
2447.1,0.06844
2448.3,0.06836
2449.4,0.06848
2450.6,0.06862
2451.7,0.06877
2452.9,0.06886
2454.1,0.0688
2455.2,0.06865
2456.4,0.06862
2457.6,0.06879
2458.7,0.06886
2459.9,0.06884
2461.1,0.06885
2462.2,0.06886
2463.4,0.06894
2464.6,0.06895
2465.7,0.06892
2466.9,0.06905
2468.1,0.06918
2469.3,0.06915
2470.4,0.06911
2471.6,0.0692
2472.8,0.06933
2474.0,0.06938
2475.1,0.06939
2476.3,0.0695
2477.5,0.0695
2478.7,0.0693
2479.9,0.06917
2481.1,0.06937
2482.3,0.06965
2483.4,0.06972
2484.6,0.0696
2485.8,0.06963
2487.0,0.06969
2488.2,0.06971
2489.4,0.06982
2490.6,0.06979
2491.8,0.06985
2493.0,0.06989
2494.2,0.06999
2495.4,0.06997
2496.6,0.06995
2497.8,0.06991
2499.0,0.07003
2500.2,0.07038
2501.4,0.07045
2502.6,0.07023
2503.8,0.07025
2505.0,0.07036
2506.3,0.07034
2507.5,0.07043
2508.7,0.07047
2509.9,0.07035
2511.1,0.0702
2512.3,0.0703
2513.5,0.07052
2514.8,0.07069
2516.0,0.07091
2517.2,0.07092
2518.4,0.07055
2519.6,0.07036
2520.9,0.07053
2522.1,0.07085
2523.3,0.07107
2524.6,0.07103
2525.8,0.07088
2527.0,0.07077
2528.3,0.07087
2529.5,0.07111
2530.7,0.07119
2531.9,0.07114
2533.2,0.07109
2534.4,0.07114
2535.7,0.07107
2536.9,0.07115
2538.1,0.07121
2539.4,0.07124
2540.6,0.07129
2541.9,0.07145
2543.1,0.07144
2544.4,0.07139
2545.6,0.07142
2546.9,0.07138
2548.1,0.07152
2549.4,0.07168
2550.6,0.07165
2551.9,0.07158
2553.1,0.07158
2554.4,0.07166
2555.7,0.07177
2556.9,0.0718
2558.2,0.07188
2559.4,0.07193
2560.7,0.07193
2562.0,0.07192
2563.2,0.07201
2564.5,0.07208
2565.8,0.07195
2567.1,0.07192
2568.3,0.072
2569.6,0.07216
2570.9,0.07217
2572.1,0.07219
2573.4,0.0722
2574.7,0.07217
2576.0,0.07226
2577.3,0.07237
2578.5,0.07233
2579.8,0.0723
2581.1,0.07229
2582.4,0.07224
2583.7,0.07234
2585.0,0.0725
2586.3,0.07259
2587.5,0.07251
2588.8,0.07254
2590.1,0.07265
2591.4,0.07269
2592.7,0.07277
2594.0,0.07306
2595.3,0.07332
2596.6,0.07297
2597.9,0.07277
2599.2,0.07287
2600.5,0.0729
2601.8,0.07295
2603.1,0.07305
2604.4,0.07318
2605.8,0.07307
2607.1,0.07304
2608.4,0.07303
2609.7,0.07302
2611.0,0.07305
2612.3,0.07299
2613.6,0.07303
2614.9,0.07325
2616.3,0.07347
2617.6,0.07343
2618.9,0.07345
2620.2,0.07348
2621.6,0.07323
2622.9,0.07326
2624.2,0.07346
2625.5,0.07355
2626.9,0.07362
2628.2,0.07361
2629.5,0.07375
2630.9,0.07374
2632.2,0.07352
2633.5,0.07345
2634.9,0.07353
2636.2,0.07354
2637.6,0.0736
2638.9,0.07369
2640.2,0.07379
2641.6,0.07381
2642.9,0.07383
2644.3,0.07397
2645.6,0.07404
2647.0,0.07392
2648.3,0.07398
2649.7,0.07409
2651.0,0.07409
2652.4,0.07413
2653.8,0.07412
2655.1,0.07405
2656.5,0.07413
2657.8,0.07429
2659.2,0.07445
2660.6,0.07431
2661.9,0.07428
2663.3,0.07445
2664.7,0.07459
2666.0,0.07466
2667.4,0.07461
2668.8,0.07451
2670.1,0.07454
2671.5,0.07453
2672.9,0.07454
2674.3,0.07443
2675.7,0.07434
2677.0,0.07456
2678.4,0.07463
2679.8,0.07455
2681.2,0.07452
2682.6,0.07457
2684.0,0.07473
2685.4,0.0747
2686.8,0.07471
2688.1,0.07472
2689.5,0.07466
2690.9,0.07459
2692.3,0.07461
2693.7,0.07472
2695.1,0.07473
2696.5,0.07467
2697.9,0.07464
2699.3,0.07461
2700.8,0.07467
2702.1,0.0748
2703.6,0.0749
2705.0,0.07485
2706.4,0.07466
2707.8,0.07466
2709.2,0.07476
2710.6,0.07485
2712.1,0.07479
2713.5,0.07461
2714.9,0.07448
2716.3,0.07438
2717.7,0.07446
2719.2,0.07471
2720.6,0.07478
2722.0,0.07457
2723.4,0.07463
2724.9,0.07464
2726.3,0.07443
2727.7,0.07444
2729.2,0.0745
2730.6,0.07444
2732.1,0.07436
2733.5,0.07433
2734.9,0.07441
2736.4,0.07442
2737.8,0.07436
2739.3,0.07442
2740.7,0.07431
2742.2,0.07403
2743.6,0.07395
2745.1,0.07394
2746.5,0.07392
2748.0,0.07389
2749.4,0.07379
2750.9,0.07374
2752.4,0.07365
2753.8,0.07365
2755.3,0.07376
2756.7,0.07361
2758.2,0.07342
2759.7,0.07332
2761.1,0.07325
2762.6,0.07324
2764.1,0.07321
2765.6,0.07304
2767.0,0.07287
2768.5,0.07286
2770.0,0.07287
2771.5,0.07283
2773.0,0.07262
2774.4,0.07247
2775.9,0.0724
2777.4,0.07237
2778.9,0.07234
2780.4,0.07232
2781.9,0.07219
2783.4,0.07209
2784.9,0.07201
2786.4,0.07198
2787.9,0.07197
2789.4,0.07182
2790.9,0.07172
2792.4,0.07173
2793.9,0.07164
2795.4,0.07153
2796.9,0.0714
2798.4,0.07124
2799.9,0.07121
2801.4,0.07121
2802.9,0.07115
2804.4,0.07111
2806.0,0.07107
2807.5,0.07098
2809.0,0.07084
2810.5,0.07077
2812.1,0.07079
2813.6,0.07079
2815.1,0.0707
2816.6,0.07061
2818.2,0.07057
2819.7,0.07045
2821.2,0.07046
2822.8,0.07051
2824.3,0.07045
2825.9,0.07039
2827.4,0.0704
2828.9,0.07036
2830.5,0.07029
2832.0,0.07028
2833.6,0.07029
2835.1,0.07021
2836.7,0.07013
2838.2,0.07015
2839.8,0.07017
2841.3,0.06999
2842.9,0.06992
2844.4,0.06995
2846.0,0.0699
2847.6,0.06966
2849.1,0.06964
2850.7,0.06976
2852.3,0.06974
2853.8,0.06974
2855.4,0.06977
2857.0,0.06971
2858.6,0.06955
2860.1,0.0694
2861.7,0.06937
2863.3,0.0694
2864.9,0.06945
2866.5,0.06946
2868.1,0.06943
2869.6,0.06938
2871.2,0.06936
2872.8,0.06931
2874.4,0.06926
2876.0,0.0693
2877.6,0.06926
2879.2,0.06931
2880.8,0.06939
2882.4,0.06927
2884.0,0.06912
2885.6,0.06912
2887.2,0.06915
2888.8,0.06922
2890.4,0.06927
2892.0,0.06924
2893.6,0.06913
2895.3,0.06905
2896.9,0.06898
2898.5,0.06897
2900.1,0.06906
2901.8,0.06915
2903.4,0.06909
2905.0,0.06891
2906.6,0.06894
2908.3,0.06896
2909.9,0.06897
2911.5,0.06896
2913.2,0.06899
2914.8,0.06903
2916.4,0.06902
2918.1,0.06897
2919.7,0.06899
2921.4,0.06901
2923.0,0.06892
2924.7,0.06891
2926.3,0.06904
2928.0,0.06901
2929.6,0.06893
2931.3,0.069
2932.9,0.069
2934.6,0.069
2936.3,0.06894
2937.9,0.069
2939.6,0.06904
2941.3,0.06895
2942.9,0.0689
2944.6,0.06899
2946.3,0.06909
2947.9,0.06909
2949.6,0.06905
2951.3,0.06899
2953.0,0.06902
2954.7,0.069
2956.3,0.06903
2958.0,0.0691
2959.7,0.06909
2961.4,0.06907
2963.1,0.06909
2964.8,0.06907
2966.5,0.06899
2968.2,0.06896
2969.9,0.06898
2971.6,0.06906
2973.3,0.06917
2975.0,0.06914
2976.7,0.06913
2978.4,0.06916
2980.1,0.0692
2981.9,0.06927
2983.6,0.06927
2985.3,0.06916
2987.0,0.06916
2988.7,0.06917
2990.4,0.06921
2992.2,0.06923
2993.9,0.06918
2995.6,0.06913
2997.4,0.06914
2999.1,0.06918
3000.8,0.06919
3002.6,0.06917
3004.3,0.06915
3006.1,0.0692
3007.8,0.06927
3009.5,0.0693
3011.3,0.06929
3013.0,0.06927
3014.8,0.06927
3016.5,0.06927
3018.3,0.06928
3020.1,0.06921
3021.8,0.06918
3023.6,0.06919
3025.3,0.0691
3027.1,0.06914
3028.9,0.0692
3030.6,0.0692
3032.4,0.06928
3034.2,0.06938
3036.0,0.06937
3037.7,0.06943
3039.5,0.06945
3041.3,0.0694
3043.1,0.06935
3044.9,0.06924
3046.7,0.06925
3048.5,0.0694
3050.3,0.06942
3052.1,0.06941
3053.8,0.06928
3055.6,0.06921
3057.4,0.06928
3059.3,0.06933
3061.1,0.06934
3062.9,0.06932
3064.7,0.06932
3066.5,0.06927
3068.3,0.06926
3070.1,0.06928
3071.9,0.06924
3073.8,0.0692
3075.6,0.06923
3077.4,0.06922
3079.2,0.06916
3081.1,0.06916
3082.9,0.06924
3084.7,0.06922
3086.6,0.06922
3088.4,0.06927
3090.2,0.06921
3092.1,0.06916
3093.9,0.06921
3095.8,0.06929
3097.6,0.0693
3099.5,0.06926
3101.3,0.0693
3103.2,0.06938
3105.1,0.06937
3106.9,0.06935
3108.8,0.06935
3110.6,0.06934
3112.5,0.06937
3114.4,0.06941
3116.2,0.06943
3118.1,0.06944
3120.0,0.06948
3121.9,0.06957
3123.8,0.0697
3125.6,0.06969
3127.5,0.06965
3129.4,0.06968
3131.3,0.06964
3133.2,0.06962
3135.1,0.06968
3137.0,0.06973
3138.9,0.06981
3140.8,0.06986
3142.7,0.06987
3144.6,0.06986
3146.5,0.06998
3148.4,0.07012
3150.3,0.07018
3152.2,0.07024
3154.1,0.07027
3156.1,0.0703
3158.0,0.07036
3159.9,0.07042
3161.8,0.0704
3163.8,0.07045
3165.7,0.07055
3167.6,0.07064
3169.6,0.07068
3171.5,0.07074
3173.5,0.07089
3175.4,0.071
3177.3,0.07099
3179.3,0.07102
3181.2,0.07112
3183.2,0.07124
3185.1,0.07127
3187.1,0.07127
3189.1,0.07134
3191.0,0.07142
3193.0,0.07147
3195.0,0.07156
3196.9,0.07166
3198.9,0.07174
3200.9,0.07184
3202.9,0.07196
3204.8,0.07196
3206.8,0.07199
3208.8,0.07209
3210.8,0.07224
3212.8,0.07232
3214.8,0.07236
3216.8,0.07244
3218.8,0.07252
3220.8,0.0726
3222.8,0.07263
3224.8,0.07276
3226.8,0.07288
3228.8,0.07296
3230.8,0.07299
3232.8,0.07301
3234.8,0.07308
3236.8,0.07319
3238.9,0.07325
3240.9,0.07335
3242.9,0.07346
3244.9,0.07359
3247.0,0.07364
3249.0,0.0737
3251.1,0.07381
3253.1,0.07394
3255.1,0.07407
3257.2,0.0741
3259.2,0.07409
3261.3,0.07424
3263.3,0.07437
3265.4,0.07445
3267.4,0.07457
3269.5,0.07468
3271.6,0.07473
3273.6,0.07471
3275.7,0.07478
3277.8,0.07487
3279.8,0.07498
3281.9,0.07506
3284.0,0.07507
3286.1,0.07509
3288.2,0.07513
3290.2,0.07522
3292.3,0.07531
3294.4,0.07537
3296.5,0.07548
3298.6,0.07564
3300.7,0.07575
3302.8,0.07578
3304.9,0.07574
3307.0,0.07581
3309.1,0.07595
3311.3,0.07602
3313.4,0.07607
3315.5,0.07611
3317.6,0.07611
3319.7,0.07613
3321.9,0.07626
3324.0,0.07643
3326.1,0.07644
3328.3,0.07644
3330.4,0.07655
3332.5,0.07665
3334.7,0.07666
3336.8,0.07666
3339.0,0.07673
3341.1,0.07679
3343.3,0.07686
3345.4,0.07699
3347.6,0.07708
3349.8,0.07715
3351.9,0.07716
3354.1,0.07721
3356.3,0.0773
3358.4,0.07735
3360.6,0.07729
3362.8,0.0773
3365.0,0.07737
3367.2,0.07744
3369.4,0.07748
3371.5,0.07752
3373.7,0.07756
3375.9,0.07758
3378.1,0.07767
3380.3,0.07775
3382.5,0.07777
3384.7,0.0778
3386.9,0.07784
3389.2,0.07786
3391.4,0.07795
3393.6,0.07803
3395.8,0.07803
3398.1,0.07805
3400.3,0.07801
3402.5,0.07798
3404.7,0.07799
3407.0,0.07804
3409.2,0.07807
3411.5,0.07804
3413.7,0.07797
3416.0,0.07795
3418.2,0.07804
3420.5,0.07817
3422.7,0.07827
3425.0,0.07835
3427.3,0.07841
3429.5,0.07859
3431.8,0.07874
3434.1,0.07882
3436.3,0.07895
3438.6,0.07906
3440.9,0.07914
3443.2,0.07922
3445.5,0.07928
3447.8,0.07932
3450.1,0.07947
3452.4,0.07955
3454.6,0.07962
3456.9,0.07965
3459.3,0.07962
3461.6,0.07966
3463.9,0.07974
3466.2,0.07978
3468.5,0.07985
3470.8,0.07997
3473.2,0.08004
3475.5,0.07999
3477.8,0.07997
3480.1,0.08002
3482.5,0.0801
3484.8,0.08013
3487.2,0.08017
3489.5,0.08021
3491.9,0.08018
3494.2,0.08015
3496.6,0.08011
3498.9,0.08008
3501.3,0.08013
3503.7,0.08023
3506.0,0.08036
3508.4,0.08048
3510.8,0.08057
3513.2,0.08061
3515.5,0.08075
3517.9,0.08083
3520.3,0.0809
3522.7,0.08101
3525.1,0.0811
3527.5,0.08115
3529.9,0.08119
3532.3,0.08125
3534.7,0.08132
3537.1,0.08135
3539.5,0.08142
3541.9,0.08145
3544.4,0.08149
3546.8,0.08155
3549.2,0.08159
3551.7,0.0816
3554.1,0.08167
3556.5,0.08176
3559.0,0.08181
3561.4,0.08179
3563.9,0.0819
3566.3,0.08197
3568.8,0.08198
3571.2,0.08209
3573.7,0.08218
3576.1,0.08219
3578.6,0.0822
3581.1,0.08226
3583.6,0.08226
3586.0,0.08231
3588.5,0.0824
3591.0,0.08246
3593.5,0.08251
3596.0,0.0826
3598.5,0.08265
3601.0,0.08269
3603.5,0.08271
3606.0,0.0827
3608.5,0.08272
3611.0,0.08278
3613.5,0.08286
3616.1,0.08286
3618.6,0.08287
3621.1,0.08298
3623.6,0.08304
3626.2,0.08309
3628.7,0.08315
3631.3,0.08321
3633.8,0.08327
3636.3,0.08323
3638.9,0.08332
3641.4,0.08342
3644.0,0.08343
3646.6,0.08344
3649.1,0.08344
3651.7,0.08349
3654.3,0.08355
3656.9,0.08357
3659.4,0.08362
3662.0,0.0837
3664.6,0.08373
3667.2,0.08373
3669.8,0.0838
3672.4,0.08386
3675.0,0.08387
3677.6,0.08388
3680.2,0.08391
3682.8,0.08393
3685.4,0.08402
3688.1,0.0841
3690.7,0.08417
3693.3,0.0842
3695.9,0.0842
3698.6,0.08421
3701.2,0.0843
3703.9,0.08438
3706.5,0.08438
3709.2,0.08443
3711.8,0.0845
3714.5,0.0845
3717.1,0.08451
3719.8,0.08461
3722.5,0.08465
3725.2,0.08463
3727.8,0.08467
3730.5,0.08473
3733.2,0.08481
3735.9,0.08484
3738.6,0.08484
3741.3,0.08483
3744.0,0.0849
3746.7,0.08493
3749.4,0.08494
3752.1,0.08495
3754.8,0.08498
3757.6,0.08502
3760.3,0.0851
3763.0,0.08516
3765.7,0.08518
3768.5,0.08518
3771.2,0.08517
3774.0,0.08521
3776.7,0.08523
3779.5,0.08525
3782.2,0.08529
3785.0,0.08537
3787.7,0.0854
3790.5,0.08541
3793.3,0.08543
3796.1,0.08545
3798.8,0.0855
3801.6,0.08555
3804.4,0.08557
3807.2,0.08569
3810.0,0.08583
3812.8,0.08583
3815.6,0.08581
3818.4,0.08582
3821.2,0.08587
3824.1,0.08586
3826.9,0.08584
3829.7,0.0859
3832.5,0.08595
3835.4,0.086
3838.2,0.08607
3841.1,0.08611
3843.9,0.08611
3846.8,0.08612
3849.6,0.08614
3852.5,0.08616
3855.3,0.08618
3858.2,0.08619
3861.1,0.08621
3863.9,0.08625
3866.8,0.08631
3869.7,0.08635
3872.6,0.08633
3875.5,0.08632
3878.4,0.08636
3881.3,0.08643
3884.2,0.08649
3887.1,0.0865
3890.0,0.08653
3893.0,0.08663
3895.9,0.08666
3898.8,0.08661
3901.7,0.08658
3904.7,0.08664
3907.6,0.08671
3910.6,0.08678
3913.5,0.08682
3916.5,0.08686
3919.4,0.08688
3922.4,0.08685
3925.4,0.08684
3928.4,0.08684
3931.3,0.08686
3934.3,0.08692
3937.3,0.08695
3940.3,0.08699
3943.3,0.08704
3946.3,0.08706
3949.3,0.08711
3952.3,0.08714
3955.3,0.08708
3958.3,0.08712
3961.4,0.08714
3964.4,0.08706
3967.4,0.08708
3970.5,0.08719
3973.5,0.08723
3976.6,0.08722
3979.6,0.08719
3982.6,0.08719
3985.7,0.08723
3988.8,0.08727
3991.9,0.08731
3994.9,0.08734
3998.0,0.08734
4001.1,0.08739
4004.2,0.08744
4007.3,0.08748
4010.4,0.08745
4013.5,0.08743
4016.6,0.08745
4019.7,0.08751
4022.8,0.08755
4025.9,0.08756
4029.1,0.08756
4032.2,0.08757
4035.3,0.08759
4038.5,0.08764
4041.6,0.08768
4044.8,0.08768
4047.9,0.08767
4051.1,0.08768
4054.3,0.08773
4057.4,0.08776
4060.6,0.08778
4063.8,0.0878
4067.0,0.08783
4070.2,0.08784
4073.4,0.08783
4076.6,0.08783
4079.8,0.08783
4083.0,0.08789
4086.2,0.08793
4089.4,0.08795
4092.7,0.08798
4095.9,0.08801
4099.1,0.08802
4102.4,0.08799
4105.6,0.088
4108.9,0.08804
4112.1,0.08808
4115.4,0.08805
4118.7,0.08804
4122.0,0.08807
4125.2,0.08801
4128.5,0.08802
4131.8,0.08809
4135.1,0.0881
4138.4,0.08816
4141.7,0.08822
4145.0,0.0882
4148.3,0.08818
4151.6,0.08817
4155.0,0.0882
4158.3,0.08825
4161.6,0.08827
4165.0,0.08829
4168.3,0.08828
4171.7,0.08827
4175.0,0.08828
4178.4,0.08827
4181.8,0.08827
4185.2,0.0883
4188.5,0.08836
4191.9,0.08838
4195.3,0.08842
4198.7,0.08844
4202.1,0.0884
4205.5,0.08843
4208.9,0.08849
4212.4,0.0885
4215.8,0.08852
4219.2,0.08854
4222.6,0.08858
4226.1,0.08858
4229.5,0.08856
4233.0,0.08859
4236.5,0.08864
4239.9,0.08866
4243.4,0.08865
4246.9,0.0886
4250.3,0.08861
4253.8,0.08856
4257.3,0.08851
4260.8,0.0886
4264.3,0.08869
4267.8,0.08868
4271.3,0.08863
4274.9,0.0886
4278.4,0.08869
4281.9,0.08869
4285.5,0.08868
4289.0,0.08876
4292.6,0.08877
4296.1,0.08877
4299.7,0.08878
4303.3,0.08878
4306.8,0.08877
4310.4,0.08874
4314.0,0.08873
4317.6,0.08868
4321.2,0.0887
4324.8,0.08876
4328.4,0.08881
4332.0,0.08885
4335.6,0.08884
4339.3,0.08883
4342.9,0.08886
4346.5,0.0889
4350.2,0.08899
4353.8,0.08902
4357.5,0.08899
4361.1,0.089
4364.8,0.08901
4368.5,0.08899
4372.2,0.08897
4375.9,0.08901
4379.6,0.08902
4383.3,0.08901
4387.0,0.08901
4390.7,0.08902
4394.4,0.08901
4398.1,0.08902
4401.9,0.08905
4405.6,0.08904
4409.4,0.08904
4413.1,0.08909
4416.9,0.08915
4420.6,0.08916
4424.4,0.08913
4428.2,0.08915
4432.0,0.08915
4435.8,0.08917
4439.6,0.08921
4443.4,0.08917
4447.2,0.08918
4451.0,0.08916
4454.8,0.08915
4458.6,0.08916
4462.5,0.08915
4466.3,0.08913
4470.2,0.08919
4474.0,0.0892
4477.9,0.08921
4481.8,0.08926
4485.6,0.08927
4489.5,0.08927
4493.4,0.08928
4497.3,0.08928
4501.2,0.08927
4505.1,0.08925
4509.0,0.08924
4513.0,0.08929
4516.9,0.08929
4520.9,0.08923
4524.8,0.08922
4528.7,0.08925
4532.7,0.08927
4536.7,0.08924
4540.6,0.08914
4544.6,0.08919
4548.6,0.08922
4552.6,0.08921
4556.6,0.08919
4560.6,0.0891
4564.6,0.08905
4568.6,0.08905
4572.7,0.08906
4576.7,0.08906
4580.8,0.08904
4584.8,0.08899
4588.9,0.08897
4592.9,0.08899
4597.0,0.08898
4601.1,0.0889
4605.2,0.08883
4609.3,0.08884
4613.4,0.08886
4617.5,0.08884
4621.6,0.08879
4625.7,0.08874
4629.8,0.08867
4634.0,0.08864
4638.1,0.08863
4642.3,0.08861
4646.4,0.08859
4650.6,0.0885
4654.8,0.08844
4659.0,0.08845
4663.1,0.08842
4667.3,0.08838
4671.5,0.08837
4675.8,0.08835
4680.0,0.08833
4684.2,0.08829
4688.4,0.08825
4692.7,0.08824
4696.9,0.08825
4701.2,0.08823
4705.5,0.0882
4709.7,0.08816
4714.0,0.08811
4718.3,0.08809
4722.6,0.08807
4726.9,0.08799
4731.2,0.08791
4735.5,0.08789
4739.9,0.08791
4744.2,0.08791
4748.5,0.08787
4752.9,0.08781
4757.3,0.08777
4761.6,0.08771
4766.0,0.08764
4770.4,0.08763
4774.8,0.08759
4779.2,0.08756
4783.6,0.08748
4788.0,0.08735
4792.4,0.08728
4796.9,0.08724
4801.3,0.08717
4805.8,0.08711
4810.2,0.08708
4814.7,0.08698
4819.1,0.0869
4823.6,0.08685
4828.1,0.0868
4832.6,0.08675
4837.1,0.08667
4841.6,0.0866
4846.2,0.08652
4850.7,0.08643
4855.3,0.08632
4859.8,0.08618
4864.4,0.08609
4868.9,0.08598
4873.5,0.08583
4878.1,0.08568
4882.7,0.08555
4887.3,0.08545
4891.9,0.08536
4896.5,0.08517
4901.1,0.08501
4905.8,0.08487
4910.4,0.08471
4915.1,0.08453
4919.7,0.08443
4924.4,0.08435
4929.1,0.08429
4933.8,0.08419
4938.5,0.0841
4943.2,0.08409
4947.9,0.08411
4952.6,0.0841
4957.4,0.08411
4962.1,0.08413
4966.9,0.08415
4971.6,0.08418
4976.4,0.08423
4981.2,0.08431
4986.0,0.08433
4990.8,0.08435
4995.6,0.08437
5000.4,0.08437
5005.2,0.08437
5010.0,0.08439
5014.9,0.08437
5019.8,0.08433
5024.6,0.08429
5029.5,0.08423
5034.4,0.08421
5039.3,0.08418
5044.2,0.08409
5049.1,0.08403
5054.0,0.08403
5058.9,0.08397
5063.9,0.08384
5068.8,0.08372
5073.8,0.08362
5078.8,0.08355
5083.7,0.0835
5088.7,0.08342
5093.7,0.08328
5098.7,0.08317
5103.7,0.08308
5108.8,0.08296
5113.8,0.08286
5118.9,0.08278
5123.9,0.08268
5129.0,0.0826
5134.1,0.08252
5139.1,0.08242
5144.3,0.08234
5149.4,0.08225
5154.5,0.08216
5159.6,0.0821
5164.7,0.08214
5169.9,0.08218
5175.0,0.08213
5180.2,0.08206
5185.4,0.08205
5190.6,0.08209
5195.8,0.08212
5201.0,0.08209
5206.2,0.08208
5211.5,0.08219
5216.7,0.08224
5222.0,0.08226
5227.2,0.08228
5232.5,0.08231
5237.8,0.08238
5243.1,0.08245
5248.4,0.08255
5253.7,0.08266
5259.0,0.08271
5264.4,0.08278
5269.7,0.08289
5275.1,0.08301
5280.5,0.08303
5285.8,0.08305
5291.2,0.08311
5296.6,0.08309
5302.0,0.08316
5307.5,0.08321
5312.9,0.0832
5318.4,0.08317
5323.8,0.08317
5329.3,0.0832
5334.8,0.08318
5340.3,0.08312
5345.8,0.08307
5351.3,0.08301
5356.8,0.08292
5362.4,0.08279
5367.9,0.08268
5373.5,0.0826
5379.0,0.08258
5384.6,0.08253
5390.2,0.08236
5395.8,0.08218
5401.5,0.08208
5407.1,0.08197
5412.7,0.08186
5418.4,0.08179
5424.1,0.0817
5429.7,0.08154
5435.4,0.08144
5441.1,0.08137
5446.9,0.08131
5452.6,0.08124
5458.3,0.08127
5464.1,0.08131
5469.8,0.08126
5475.6,0.08123
5481.4,0.08129
5487.2,0.08133
5493.0,0.08136
5498.8,0.08137
5504.7,0.08133
5510.5,0.08134
5516.4,0.08137
5522.3,0.08134
5528.1,0.08128
5534.0,0.08119
5540.0,0.0811
5545.9,0.08095
5551.8,0.08077
5557.8,0.08052
5563.7,0.08023
5569.7,0.07986
5575.7,0.07947
5581.7,0.07903
5587.7,0.07857
5593.7,0.0781
5599.8,0.07774
5605.8,0.07745
5611.9,0.07719
5618.0,0.07702
5624.1,0.07696
5630.2,0.07698
5636.3,0.07708
5642.4,0.07718
5648.6,0.07722
5654.7,0.07737
5660.9,0.07758
5667.1,0.07786
5673.3,0.07823
5679.5,0.07847
5685.7,0.07865
5692.0,0.07889
5698.2,0.07908
5704.5,0.07929
5710.8,0.07957
5717.1,0.07974
5723.4,0.0799
5729.7,0.08003
5736.0,0.08012
5742.4,0.0802
5748.8,0.08026
5755.1,0.08018
5761.5,0.08028
5768.0,0.08027
5774.4,0.08006
5780.8,0.07992
5787.3,0.07978
5793.7,0.07966
5800.2,0.07959
5806.7,0.07951
5813.2,0.07945
5819.8,0.07936
5826.3,0.07919
5832.8,0.07901
5839.4,0.07888
5846.0,0.07878
5852.6,0.07871
5859.2,0.07861
5865.8,0.0784
5872.5,0.07825
5879.1,0.07826
5885.8,0.07811
5892.5,0.07799
5899.2,0.07787
5905.9,0.07766
5912.6,0.07751
5919.4,0.07737
5926.2,0.0772
5932.9,0.07706
5939.7,0.07679
5946.5,0.07638
5953.4,0.07605
5960.2,0.07586
5967.1,0.07566
5974.0,0.07531
5980.8,0.07502
5987.8,0.07482
5994.7,0.07453
6001.6,0.07437
6008.6,0.07438
6015.5,0.07448
6022.5,0.07458
6029.5,0.0748
6036.5,0.07515
6043.6,0.07561
6050.6,0.07604
6057.7,0.07614
6064.8,0.07639
6071.9,0.07674
6079.0,0.07691
6086.1,0.07703
6093.3,0.07719
6100.5,0.0773
6107.6,0.07745
6114.9,0.07752
6122.1,0.07747
6129.3,0.07748
6136.5,0.07748
6143.8,0.07744
6151.1,0.07742
6158.4,0.07739
6165.7,0.07726
6173.1,0.07714
6180.4,0.07711
6187.8,0.07704
6195.2,0.07688
6202.6,0.07682
6210.0,0.07675
6217.5,0.07667
6225.0,0.07655
6232.4,0.07648
6239.9,0.07639
6247.5,0.07628
6255.0,0.0762
6262.5,0.07613
6270.1,0.07603
6277.7,0.07594
6285.3,0.07591
6292.9,0.07592
6300.6,0.07598
6308.3,0.07604
6315.9,0.0761
6323.6,0.07616
6331.4,0.07635
6339.1,0.07653
6346.9,0.07663
6354.6,0.07664
6362.4,0.07673
6370.3,0.07685
6378.1,0.07685
6385.9,0.07691
6393.8,0.077
6401.7,0.07711
6409.6,0.07736
6417.6,0.07743
6425.5,0.07725
6433.5,0.0772
6441.5,0.07719
6449.5,0.07719
6457.5,0.07717
6465.6,0.0771
6473.6,0.07704
6481.7,0.07708
6489.8,0.07713
6498.0,0.07696
6506.1,0.07673
6514.3,0.07668
6522.5,0.07664
6530.7,0.07651
6538.9,0.07643
6547.2,0.07635
6555.5,0.0762
6563.8,0.07606
6572.1,0.07597
6580.4,0.07583
6588.8,0.07571
6597.2,0.0756
6605.6,0.07548
6614.0,0.07539
6622.5,0.07534
6630.9,0.07534
6639.4,0.07518
6647.9,0.07495
6656.5,0.0749
6665.0,0.07487
6673.6,0.07486
6682.2,0.07483
6690.8,0.07469
6699.5,0.07461
6708.1,0.07461
6716.8,0.07456
6725.5,0.07441
6734.3,0.07432
6743.0,0.07424
6751.8,0.07418
6760.6,0.0741
6769.4,0.07402
6778.3,0.07393
6787.1,0.07391
6796.0,0.07375
6805.0,0.07361
6813.9,0.07357
6822.9,0.07358
6831.9,0.07352
6840.9,0.07343
6849.9,0.07342
6859.0,0.07344
6868.0,0.07333
6877.2,0.07313
6886.3,0.07302
6895.5,0.07297
6904.6,0.0729
6913.8,0.07276
6923.1,0.07258
6932.3,0.0724
6941.6,0.07222
6950.9,0.07213
6960.2,0.07207
6969.6,0.07183
6979.0,0.07161
6988.4,0.07143
6997.8,0.07119
7007.3,0.07095
7016.8,0.07077
7026.3,0.07059
7035.8,0.07044
7045.4,0.07033
7054.9,0.07018
7064.5,0.07004
7074.2,0.06988
7083.9,0.06977
7093.5,0.0696
7103.3,0.06945
7113.0,0.06934
7122.8,0.06917
7132.6,0.06904
7142.4,0.06897
7152.2,0.06877
7162.1,0.06855
7172.0,0.06832
7182.0,0.06807
7191.9,0.06792
7201.9,0.06781
7211.9,0.0677
7222.0,0.06756
7232.0,0.06739
7242.1,0.06719
7252.3,0.06701
7262.4,0.06687
7272.6,0.06669
7282.8,0.0665
7293.1,0.06632
7303.3,0.06617
7313.6,0.06599
7324.0,0.06577
7334.3,0.06557
7344.7,0.06537
7355.1,0.06511
7365.6,0.06488
7376.1,0.06468
7386.6,0.06448
7397.1,0.06427
7407.7,0.06404
7418.3,0.06381
7428.9,0.06357
7439.6,0.06332
7450.3,0.06316
7461.0,0.06302
7471.7,0.06279
7482.5,0.06255
7493.3,0.06233
7504.2,0.06216
7515.0,0.06202
7525.9,0.06179
7536.9,0.06161
7547.9,0.06145
7558.9,0.06131
7569.9,0.06118
7581.0,0.06106
7592.0,0.0609
7603.2,0.06081
7614.4,0.06068
7625.5,0.06054
7636.8,0.06041
7648.0,0.06026
7659.3,0.06012
7670.7,0.06002
7682.0,0.05987
7693.4,0.05965
7704.9,0.05944
7716.3,0.05926
7727.8,0.05903
7739.4,0.05878
7750.9,0.05851
7762.5,0.05824
7774.2,0.05807
7785.8,0.05792
7797.5,0.05764
7809.3,0.05736
7821.1,0.05711
7832.9,0.0569
7844.7,0.05666
7856.6,0.0564
7868.5,0.05618
7880.5,0.05597
7892.5,0.05561
7904.5,0.05532
7916.6,0.05505
7928.7,0.05474
7940.8,0.05446
7953.0,0.05419
7965.2,0.05386
7977.5,0.05352
7989.8,0.05315
8002.1,0.05276
8014.5,0.05237
8026.9,0.052
8039.3,0.05159
8051.8,0.05118
8064.3,0.05076
8076.9,0.05037
8089.5,0.04997
8102.1,0.04958
8114.8,0.04914
8127.5,0.04864
8140.3,0.04817
8153.1,0.0478
8165.9,0.04739
8178.8,0.04697
8191.7,0.04647
8204.7,0.04609
8217.7,0.04573
8230.7,0.04537
8243.8,0.04505
8257.0,0.04474
8270.1,0.04435
8283.3,0.04397
8296.6,0.0436
8309.9,0.04332
8323.2,0.04298
8336.6,0.04263
8350.0,0.04228
8363.5,0.04194
8377.0,0.04163
8390.5,0.04134
8404.2,0.0411
8417.8,0.04089
8431.5,0.04057
8445.2,0.04033
8459.0,0.04012
8472.8,0.03987
8486.7,0.03962
8500.6,0.0395
8514.5,0.03937
8528.5,0.03927
8542.6,0.03915
8556.7,0.03907
8570.8,0.03904
8585.0,0.03907
8599.3,0.03903
8613.5,0.03902
8627.9,0.03908
8642.3,0.03905
8656.7,0.03887
8671.2,0.03848
8685.7,0.03791
8700.3,0.03747
8714.9,0.03726
8729.6,0.03724
8744.3,0.03715
8759.0,0.03715
8773.9,0.03755
8788.7,0.03835
8803.7,0.03922
8818.6,0.03993
8833.7,0.04031
8848.7,0.04046
8863.8,0.04037
8879.0,0.04004
8894.3,0.03963
8909.5,0.03942
8924.9,0.03931
8940.3,0.03921
8955.7,0.03896
8971.2,0.03864
8986.8,0.03822
9002.3,0.03776
9018.0,0.03727
9033.7,0.03675
9049.5,0.03628
9065.3,0.03591
9081.2,0.03553
9097.1,0.03524
9113.1,0.03506
9129.1,0.03497
9145.2,0.03499
9161.4,0.03509
9177.6,0.03516
9193.9,0.0353
9210.2,0.03552
9226.6,0.03584
9243.0,0.03616
9259.5,0.03659
9276.1,0.03706
9292.7,0.03756
9309.4,0.03802
9326.2,0.03842
9343.0,0.03892
9359.8,0.03941
9376.8,0.03974
9393.7,0.04009
9410.8,0.04035
9427.9,0.04058
9445.1,0.04079
9462.3,0.04094
9479.6,0.04104
9497.0,0.04112
9514.4,0.04117
9531.9,0.04118
9549.4,0.04099
9567.1,0.04072
9584.7,0.04027
9602.5,0.03988
9620.3,0.03952
9638.2,0.03907
9656.1,0.03862
9674.2,0.03824
9692.2,0.03789
9710.4,0.03758
9728.6,0.03725
9746.9,0.03701
9765.2,0.03672
9783.7,0.03657
9802.2,0.03651
9820.7,0.0364
9839.4,0.0364
9858.1,0.0365
9876.8,0.03647
9895.7,0.03653
9914.6,0.03673
9933.6,0.03695
9952.7,0.03711
9971.8,0.0373
9991.0,0.03745
10010.3,0.03759
10029.7,0.03773
10049.1,0.03785
10068.6,0.03789
10088.2,0.038
10107.9,0.0381
10127.6,0.03815
10147.4,0.03802
10167.3,0.03783
10187.3,0.03766
10207.4,0.03759
10227.5,0.03763
10247.7,0.03786
10268.0,0.0381
10288.4,0.03851
10308.8,0.03901
10329.4,0.03948
10350.0,0.03985
10370.7,0.04006
10391.5,0.04017
10412.3,0.04052
10433.3,0.0412
10454.3,0.0423
10475.5,0.04365
10496.7,0.04483
10517.9,0.04567
10539.3,0.04622
10560.8,0.04648
10582.3,0.04651
10604.0,0.04637
10625.7,0.04616
10647.5,0.0459
10669.4,0.04566
10691.4,0.04533
10713.5,0.04501
10735.7,0.04474
10758.0,0.0445
10780.3,0.04418
10802.8,0.0439
10825.4,0.04353
10848.0,0.0431
10870.8,0.0426
10893.6,0.04213
10916.5,0.04173
10939.5,0.04142
10962.7,0.04118
10985.9,0.04089
11009.2,0.04062
11032.7,0.04042
11056.2,0.04026
11079.8,0.04025
11103.5,0.04029
11127.3,0.04037
11151.3,0.04046
11175.3,0.04077
11199.5,0.04107
11223.7,0.0413
11248.0,0.04163
11272.5,0.04193
11297.1,0.04216
11321.7,0.04231
11346.5,0.04247
11371.4,0.04261
11396.4,0.04248
11421.5,0.0421
11446.7,0.04136
11472.0,0.04035
11497.5,0.03922
11523.0,0.03825
11548.7,0.03723
11574.4,0.03647
11600.3,0.03595
11626.3,0.03547
11652.5,0.03498
11678.7,0.03463
11705.1,0.03449
11731.6,0.03431
11758.2,0.03385
11784.9,0.03337
11811.7,0.03292
11838.7,0.03281
11865.8,0.03292
11893.0,0.0334
11920.3,0.03418
11947.8,0.03525
11975.4,0.03641
12003.1,0.03758
12031.0,0.03857
12059.0,0.03961
12087.1,0.04064
12115.3,0.04167
12143.7,0.04256
12172.2,0.04339
12200.8,0.04416
12229.6,0.04494
12258.5,0.0457
12287.6,0.04636
12316.8,0.04698
12346.1,0.04759
12375.5,0.04819
12405.2,0.04868
12434.9,0.04908
12464.8,0.0496
12494.8,0.04996
12525.0,0.05025
12555.3,0.05044
12585.8,0.05085
12616.4,0.05104
12647.2,0.05097
12678.1,0.05102
12709.2,0.05118
12740.4,0.05138
12771.8,0.05159
12803.3,0.05175
12835.0,0.05175
12866.9,0.05159
12898.9,0.05161
12931.1,0.05155
12963.4,0.05145
12995.9,0.05108
13028.5,0.05077
13061.3,0.05046
13094.3,0.05006
13127.5,0.04951
13160.8,0.0488
13194.3,0.04803
13228.0,0.04714
13261.8,0.04618
13295.8,0.04521
13330.0,0.04429
13364.3,0.04327
13398.9,0.04225
13433.6,0.04117
13468.5,0.03982
13503.5,0.03836
13538.8,0.037
13574.2,0.03598
13609.9,0.03515
13645.7,0.03479
13681.7,0.03471
13717.9,0.0347
13754.3,0.03436
13790.8,0.03399
13827.6,0.03394
13864.6,0.03424
13901.8,0.03465
13939.1,0.03508
13976.7,0.03529
14014.5,0.03525
14052.5,0.03511
14090.7,0.035
14129.0,0.0346
14167.7,0.03415
14206.5,0.03359
14245.5,0.0328
14284.7,0.03206
14324.2,0.03151
14363.9,0.03081
14403.8,0.02988
14443.9,0.02881
14484.2,0.02781
14524.8,0.02706
14565.6,0.02672
14606.7,0.02615
14647.9,0.02541
14689.4,0.0249
14731.2,0.02458
14773.1,0.02442
14815.3,0.02447
14857.8,0.02422
14900.5,0.02402
14943.4,0.02392
14986.6,0.02387
15030.0,0.02364
15073.7,0.02358
15117.7,0.02345
15161.9,0.02321
15206.3,0.02291
15251.1,0.02268
15296.1,0.02247
15341.3,0.0224
15386.8,0.02247
15432.6,0.02286
15478.7,0.02316
15525.0,0.02347
15571.7,0.02384
15618.6,0.0243
15665.8,0.02475
15713.2,0.02514
15761.0,0.02531
15809.0,0.02576
15857.4,0.02634
15906.0,0.02662
15955.0,0.02669
16004.2,0.02697
16053.8,0.02721
16103.6,0.0277
16153.8,0.02805
16204.3,0.02844
16255.1,0.02883
16306.2,0.02905
16357.6,0.02931
16409.4,0.02945
16461.5,0.02942
16513.9,0.02985
16566.7,0.03035
16619.8,0.03066
16673.2,0.03086
16727.0,0.03129
16781.1,0.03171
16835.6,0.032
16890.5,0.0319
16945.7,0.03202
17001.2,0.03239
17057.2,0.03234
17113.4,0.03218
17170.1,0.03229
17227.2,0.03221
17284.6,0.03271
17342.4,0.0332
17400.6,0.0334
17459.2,0.03359
17518.2,0.03404
17577.5,0.03429
17637.3,0.03455
17697.5,0.03446
17758.1,0.03434
17819.2,0.03439
17880.6,0.0344
17942.5,0.03409
18004.8,0.03388
18067.5,0.03416
18130.7,0.03482
18194.3,0.03562
18258.4,0.03618
18322.9,0.03673
18387.9,0.03731
18453.3,0.03801
18519.2,0.03888
18585.6,0.0396
18652.4,0.03994
18719.8,0.04029
18787.6,0.04125
18855.9,0.04234
18924.8,0.04337
18994.1,0.04405
19063.9,0.04423
19134.3,0.04415
19205.1,0.04416
19276.5,0.04409
19348.4,0.04349
19420.9,0.0432
19493.9,0.04289
19567.5,0.042
19641.6,0.04179
19716.3,0.04168
19791.5,0.04179
19867.4,0.04153
19943.8,0.04074
20020.8,0.03962
20098.4,0.03829
20176.6,0.03694
20255.4,0.03579
20334.8,0.03485
20414.9,0.03356
20495.6,0.0322
20576.9,0.03125
20658.9,0.03056
20741.5,0.03017
20824.8,0.03031
20908.8,0.03109
20993.4,0.03181
21078.8,0.0322
21164.8,0.03246
21251.6,0.03273
21339.0,0.03205
21427.2,0.03181
21516.1,0.0318
21605.8,0.03204
21696.2,0.03141
21787.3,0.03089
21879.3,0.03075
21972.0,0.03074
22065.5,0.03136
22159.8,0.03297
22254.9,0.03474
22350.8,0.03732
22447.5,0.03875
22545.1,0.03978
22643.6,0.04044
22742.9,0.0405
22843.1,0.04061
22944.2,0.0416
23046.2,0.04262
23149.0,0.04399
23252.8,0.04518
23357.6,0.04592
23463.3,0.04776
23569.9,0.04936
23677.6,0.04989
23786.2,0.04979
23895.8,0.05011
24006.4,0.05237
24118.1,0.05491
24230.8,0.0544
24344.5,0.05106
24459.4,0.04956
24575.3,0.0505
24692.3,0.04981
24810.4,0.05135
24929.7,0.05335
25050.2,0.05401
