Database of Origin,University of Winnipeg Spectrophotometer Facility
Sample Description,Carbonaceous chondrites - RELAB archive 1. CI chondrites
Other Information,c1mb57
Date Added,2018-07-23 23:44:49.184327

Data ID,RLA_MET_32_2        
Sample ID,Orgueil
Mineral Name,Orgueil
Grain Size,<100 um
Viewing Geometry,30/0
Material Class,Cl 1

Wavelength
305.0,0.015945
310.0,0.017325
315.0,0.017359
320.0,0.017913
325.0,0.018034
330.0,0.018088
335.0,0.017786
340.0,0.017943
345.0,0.018722
350.0,0.018835
355.0,0.019796
360.0,0.020336
365.0,0.021096
370.0,0.022063
375.0,0.023038
380.0,0.024131
385.0,0.025143
390.0,0.026694
395.0,0.027624
400.0,0.029058
405.0,0.029933
410.0,0.031401
415.0,0.032671
420.0,0.033787
425.0,0.035445
430.0,0.036711
435.0,0.038134
440.0,0.039495
445.0,0.040809
450.0,0.041946
455.0,0.042839
460.0,0.043509
465.0,0.044243
470.0,0.044843
475.0,0.045374
480.0,0.04624
485.0,0.046935
490.0,0.047817
495.0,0.048903
500.0,0.050062
505.0,0.051296
510.0,0.052739
515.0,0.053993
520.0,0.055572
525.0,0.056814
530.0,0.058126
535.0,0.05942
540.0,0.060741
545.0,0.061686
550.0,0.062679
555.0,0.063636
560.0,0.064442
565.0,0.0652
570.0,0.065826
575.0,0.066533
580.0,0.067009
585.0,0.067636
590.0,0.067979
595.0,0.068621
600.0,0.06907
605.0,0.06962
610.0,0.070075
615.0,0.070294
620.0,0.070682
625.0,0.071307
630.0,0.071844
635.0,0.072114
640.0,0.072501
645.0,0.072797
650.0,0.073108
655.0,0.073393
660.0,0.073591
665.0,0.074139
670.0,0.074338
675.0,0.074528
680.0,0.074862
685.0,0.075273
690.0,0.075545
695.0,0.075765
700.0,0.076098
705.0,0.076356
710.0,0.076696
715.0,0.076948
720.0,0.077073
725.0,0.077211
730.0,0.077579
735.0,0.077951
740.0,0.078201
745.0,0.078407
750.0,0.079028
755.0,0.079238
760.0,0.079375
765.0,0.079366
770.0,0.079544
775.0,0.080029
780.0,0.080104
785.0,0.080427
790.0,0.080834
795.0,0.080678
800.0,0.080597
805.0,0.081045
810.0,0.080996
815.0,0.081418
820.0,0.081629
825.0,0.081806
830.0,0.081682
835.0,0.081462
840.0,0.081949
845.0,0.081937
850.0,0.082027
855.0,0.082735
860.0,0.082524
865.0,0.082576
870.0,0.083375
875.0,0.082848
880.0,0.082766
885.0,0.083575
890.0,0.083432
895.0,0.083135
900.0,0.084132
905.0,0.084061
910.0,0.08387
915.0,0.083798
920.0,0.083878
925.0,0.08422
930.0,0.084421
935.0,0.084341
940.0,0.084675
945.0,0.084693
950.0,0.08437
955.0,0.08469
960.0,0.084737
965.0,0.084941
970.0,0.085184
975.0,0.085255
980.0,0.08532
985.0,0.085428
990.0,0.085303
995.0,0.085485
1000.0,0.086002
1005.0,0.085963
1010.0,0.08615
1015.0,0.086461
1020.0,0.086326
1025.0,0.08653
1030.0,0.086707
1035.0,0.086922
1040.0,0.086927
1045.0,0.086888
1050.0,0.087079
1055.0,0.087046
1060.0,0.087037
1065.0,0.087305
1070.0,0.087147
1075.0,0.087471
1080.0,0.087524
1085.0,0.087351
1090.0,0.087625
1095.0,0.087856
1100.0,0.087952
1105.0,0.088027
1110.0,0.087836
1115.0,0.087881
1120.0,0.08825
1125.0,0.088319
1130.0,0.088321
1135.0,0.088641
1140.0,0.088487
1145.0,0.088736
1150.0,0.088925
1155.0,0.089003
1160.0,0.089111
1165.0,0.089167
1170.0,0.089345
1175.0,0.089453
1180.0,0.08942
1185.0,0.089664
1190.0,0.089994
1195.0,0.089953
1200.0,0.090012
1205.0,0.090271
1210.0,0.090041
1215.0,0.090506
1220.0,0.090436
1225.0,0.090554
1230.0,0.090656
1235.0,0.090731
1240.0,0.090634
1245.0,0.090687
1250.0,0.090568
1255.0,0.090789
1260.0,0.090967
1265.0,0.091084
1270.0,0.090866
1275.0,0.091028
1280.0,0.090889
1285.0,0.091178
1290.0,0.09086
1295.0,0.091113
1300.0,0.091247
1305.0,0.091204
1310.0,0.091414
1315.0,0.091303
1320.0,0.09167
1325.0,0.091945
1330.0,0.091661
1335.0,0.091803
1340.0,0.091665
1345.0,0.091707
1350.0,0.091733
1355.0,0.091666
1360.0,0.091467
1365.0,0.091405
1370.0,0.091515
1375.0,0.091719
1380.0,0.091173
1385.0,0.091662
1390.0,0.091994
1395.0,0.091452
1400.0,0.09166
1405.0,0.091745
1410.0,0.09226
1415.0,0.092189
1420.0,0.09251
1425.0,0.092673
1430.0,0.092554
1435.0,0.092717
1440.0,0.09283
1445.0,0.0928
1450.0,0.092699
1455.0,0.09313
1460.0,0.092955
1465.0,0.093103
1470.0,0.093251
1475.0,0.09321
1480.0,0.09336
1485.0,0.09344
1490.0,0.093256
1495.0,0.093477
1500.0,0.093739
1505.0,0.093714
1510.0,0.093701
1515.0,0.093574
1520.0,0.093895
1525.0,0.093779
1530.0,0.093937
1535.0,0.094115
1540.0,0.094419
1545.0,0.094383
1550.0,0.094488
1555.0,0.09467
1560.0,0.094705
1565.0,0.094686
1570.0,0.094797
1575.0,0.09501
1580.0,0.094881
1585.0,0.095158
1590.0,0.095018
1595.0,0.095302
1600.0,0.095231
1605.0,0.095384
1610.0,0.095234
1615.0,0.09526
1620.0,0.094868
1625.0,0.094857
1630.0,0.095058
1635.0,0.095212
1640.0,0.094857
1645.0,0.094908
1650.0,0.095959
1655.0,0.095906
1660.0,0.09554
1665.0,0.095555
1670.0,0.095666
1675.0,0.095589
1680.0,0.095648
1685.0,0.095818
1690.0,0.095656
1695.0,0.095669
1700.0,0.095757
1705.0,0.095769
1710.0,0.096022
1715.0,0.096003
1720.0,0.095822
1725.0,0.095738
1730.0,0.096145
1735.0,0.095921
1740.0,0.096067
1745.0,0.096056
1750.0,0.096046
1755.0,0.09596
1760.0,0.096088
1765.0,0.096482
1770.0,0.09619
1775.0,0.096173
1780.0,0.096025
1785.0,0.096226
1790.0,0.096084
1795.0,0.09675
1800.0,0.095999
1805.0,0.095748
1810.0,0.095393
1815.0,0.095425
1820.0,0.095449
1825.0,0.095506
1830.0,0.095735
1835.0,0.095545
1840.0,0.096076
1845.0,0.095812
1850.0,0.095575
1855.0,0.095697
1860.0,0.095987
1865.0,0.095754
1870.0,0.096157
1875.0,0.096277
1880.0,0.096194
1885.0,0.09589
1890.0,0.095531
1895.0,0.095065
1900.0,0.094862
1905.0,0.094246
1910.0,0.09421
1915.0,0.094122
1920.0,0.093945
1925.0,0.094245
1930.0,0.094266
1935.0,0.093758
1940.0,0.094183
1945.0,0.094237
1950.0,0.094336
1955.0,0.094163
1960.0,0.094176
1965.0,0.094155
1970.0,0.094471
1975.0,0.094547
1980.0,0.094731
1985.0,0.094735
1990.0,0.095007
1995.0,0.094826
2000.0,0.095199
2005.0,0.095359
2010.0,0.095463
2015.0,0.095569
2020.0,0.095616
2025.0,0.095821
2030.0,0.096086
2035.0,0.096112
2040.0,0.095988
2045.0,0.095906
2050.0,0.096155
2055.0,0.096117
2060.0,0.096353
2065.0,0.09635
2070.0,0.096075
2075.0,0.096062
2080.0,0.096207
2085.0,0.0964
2090.0,0.096576
2095.0,0.096452
2100.0,0.096491
2105.0,0.09611
2110.0,0.096279
2115.0,0.096165
2120.0,0.096406
2125.0,0.096227
2130.0,0.09629
2135.0,0.096161
2140.0,0.095894
2145.0,0.096233
2150.0,0.096252
2155.0,0.096343
2160.0,0.096275
2165.0,0.096129
2170.0,0.096135
2175.0,0.096605
2180.0,0.096316
2185.0,0.096331
2190.0,0.096536
2195.0,0.096699
2200.0,0.096558
2205.0,0.096255
2210.0,0.096412
2215.0,0.096153
2220.0,0.096324
2225.0,0.096204
2230.0,0.096187
2235.0,0.096149
2240.0,0.095772
2245.0,0.095716
2250.0,0.095878
2255.0,0.09584
2260.0,0.095663
2265.0,0.096005
2270.0,0.095783
2275.0,0.095949
2280.0,0.095454
2285.0,0.095477
2290.0,0.095317
2295.0,0.095109
2300.0,0.095364
2305.0,0.094937
2310.0,0.094735
2315.0,0.094544
2320.0,0.094572
2325.0,0.094555
2330.0,0.094561
2335.0,0.094509
2340.0,0.094826
2345.0,0.094437
2350.0,0.094532
2355.0,0.094421
2360.0,0.094546
2365.0,0.094185
2370.0,0.093842
2375.0,0.093901
2380.0,0.09357
2385.0,0.093087
2390.0,0.093228
2395.0,0.093122
2400.0,0.093032
2405.0,0.093057
2410.0,0.09303
2415.0,0.093042
2420.0,0.092956
2425.0,0.092777
2430.0,0.092806
2435.0,0.092358
2440.0,0.092511
2445.0,0.09228
2450.0,0.092233
2455.0,0.091926
2460.0,0.091962
2465.0,0.09161
2470.0,0.092152
2475.0,0.09212
2480.0,0.091903
2485.0,0.092247
2490.0,0.09197
2495.0,0.091915
2500.0,0.091173
2505.0,0.091509
2510.0,0.091292
2515.0,0.091128
2520.0,0.090889
2525.0,0.09098
2530.0,0.090135
2535.0,0.090477
2540.0,0.090306
2545.0,0.090027
2550.0,0.090237
2555.0,0.089698
2560.0,0.089508
2565.0,0.090133
2570.0,0.089428
2575.0,0.089564
2580.0,0.089355
2585.0,0.08908
2590.0,0.088917
2595.0,0.089172
2600.0,0.088793
