Database of Origin,University of Winnipeg Spectrophotometer Facility
Sample Description,Carbonaceous chondrites - RELAB archive 7. Ungrouped chondrites and ATCCs
Other Information,spun MT-TXH-026/C1MT26 c1mt26
Date Added,2018-07-23 23:45:03.619877

Data ID,RLA_MET_38_12       
Sample ID,Tagish Lake
Mineral Name,Tagish Lake
Grain Size,heated at 200C 1 week oxygen eater
Viewing Geometry,30/0
Material Class,C2-unique

Wavelength
305.0,0.02037
310.0,0.01897
315.0,0.01917
320.0,0.01864
325.0,0.0188
330.0,0.01931
335.0,0.01993
340.0,0.01998
345.0,0.02055
350.0,0.02065
355.0,0.02106
360.0,0.02112
365.0,0.02117
370.0,0.02129
375.0,0.02158
380.0,0.02168
385.0,0.02212
390.0,0.02247
395.0,0.02301
400.0,0.02267
405.0,0.0229
410.0,0.0233
415.0,0.02358
420.0,0.0238
425.0,0.02419
430.0,0.02461
435.0,0.02498
440.0,0.02532
445.0,0.02577
450.0,0.02606
455.0,0.02637
460.0,0.02672
465.0,0.02699
470.0,0.02718
475.0,0.02745
480.0,0.02779
485.0,0.02815
490.0,0.0286
495.0,0.02909
500.0,0.0296
505.0,0.03015
510.0,0.03063
515.0,0.03118
520.0,0.03166
525.0,0.03219
530.0,0.03276
535.0,0.03338
540.0,0.03398
545.0,0.03466
550.0,0.03524
555.0,0.03597
560.0,0.03672
565.0,0.03749
570.0,0.03824
575.0,0.03912
580.0,0.03985
585.0,0.04062
590.0,0.04126
595.0,0.04191
600.0,0.04261
605.0,0.04322
610.0,0.04382
615.0,0.04444
620.0,0.04496
625.0,0.04556
630.0,0.04606
635.0,0.04666
640.0,0.04716
645.0,0.04767
650.0,0.04824
655.0,0.04879
660.0,0.04931
665.0,0.04985
670.0,0.05045
675.0,0.05098
680.0,0.05152
685.0,0.05205
690.0,0.05252
695.0,0.053
700.0,0.05356
705.0,0.05402
710.0,0.05447
715.0,0.05499
720.0,0.05534
725.0,0.05588
730.0,0.05611
735.0,0.0564
740.0,0.05675
745.0,0.05712
750.0,0.05736
755.0,0.05777
760.0,0.05794
765.0,0.05827
770.0,0.05867
775.0,0.05888
780.0,0.05906
785.0,0.05911
790.0,0.05944
795.0,0.05957
800.0,0.05955
805.0,0.05963
810.0,0.0597
815.0,0.05981
820.0,0.05983
825.0,0.05983
830.0,0.05985
835.0,0.05981
840.0,0.05988
845.0,0.05989
850.0,0.05987
855.0,0.0599
860.0,0.0599
865.0,0.05984
870.0,0.05972
875.0,0.05968
880.0,0.05969
885.0,0.05968
890.0,0.05967
895.0,0.05976
900.0,0.05976
905.0,0.05976
910.0,0.05977
915.0,0.05982
920.0,0.05983
925.0,0.05991
930.0,0.06
935.0,0.06006
940.0,0.06009
945.0,0.0602
950.0,0.06024
955.0,0.0603
960.0,0.06035
965.0,0.06046
970.0,0.06046
975.0,0.06055
980.0,0.06062
985.0,0.06069
990.0,0.06072
995.0,0.06073
1000.0,0.06074
1005.0,0.06072
1010.0,0.06076
1015.0,0.06077
1020.0,0.0608
1025.0,0.06072
1030.0,0.06071
1035.0,0.06064
1040.0,0.0605
1045.0,0.06037
1050.0,0.06032
1055.0,0.0602
1060.0,0.06006
1065.0,0.06
1070.0,0.05987
1075.0,0.05974
1080.0,0.05966
1085.0,0.05958
1090.0,0.05951
1095.0,0.05945
1100.0,0.05937
1105.0,0.0593
1110.0,0.05927
1115.0,0.05923
1120.0,0.05923
1125.0,0.05919
1130.0,0.05913
1135.0,0.05909
1140.0,0.05904
1145.0,0.05899
1150.0,0.05896
1155.0,0.05895
1160.0,0.05892
1165.0,0.05884
1170.0,0.05876
1175.0,0.05872
1180.0,0.05867
1185.0,0.05859
1190.0,0.05863
1195.0,0.05863
1200.0,0.05855
1205.0,0.05852
1210.0,0.05852
1215.0,0.05837
1220.0,0.05827
1225.0,0.05821
1230.0,0.05806
1235.0,0.05798
1240.0,0.05796
1245.0,0.05794
1250.0,0.05787
1255.0,0.05782
1260.0,0.05779
1265.0,0.05775
1270.0,0.0577
1275.0,0.0577
1280.0,0.05772
1285.0,0.05771
1290.0,0.05775
1295.0,0.05778
1300.0,0.0578
1305.0,0.05779
1310.0,0.05782
1315.0,0.05782
1320.0,0.05783
1325.0,0.05785
1330.0,0.0578
1335.0,0.05782
1340.0,0.05779
1345.0,0.05772
1350.0,0.05763
1355.0,0.05773
1360.0,0.05772
1365.0,0.05775
1370.0,0.05771
1375.0,0.05785
1380.0,0.05782
1385.0,0.05784
1390.0,0.05773
1395.0,0.05777
1400.0,0.05769
1405.0,0.05763
1410.0,0.05756
1415.0,0.0577
1420.0,0.05773
1425.0,0.05775
1430.0,0.05786
1435.0,0.05794
1440.0,0.05794
1445.0,0.05796
1450.0,0.05798
1455.0,0.05798
1460.0,0.05804
1465.0,0.0581
1470.0,0.05819
1475.0,0.0582
1480.0,0.05821
1485.0,0.05824
1490.0,0.05825
1495.0,0.05826
1500.0,0.05838
1505.0,0.05847
1510.0,0.05852
1515.0,0.0586
1520.0,0.05865
1525.0,0.05864
1530.0,0.05865
1535.0,0.0587
1540.0,0.0587
1545.0,0.05876
1550.0,0.05882
1555.0,0.05885
1560.0,0.05889
1565.0,0.05891
1570.0,0.0589
1575.0,0.05893
1580.0,0.05897
1585.0,0.059
1590.0,0.05906
1595.0,0.05917
1600.0,0.05925
1605.0,0.05935
1610.0,0.05939
1615.0,0.05943
1620.0,0.05946
1625.0,0.05948
1630.0,0.05952
1635.0,0.05958
1640.0,0.05968
1645.0,0.05973
1650.0,0.05979
1655.0,0.05987
1660.0,0.06004
1665.0,0.06014
1670.0,0.06026
1675.0,0.0604
1680.0,0.06051
1685.0,0.06057
1690.0,0.06062
1695.0,0.06073
1700.0,0.06088
1705.0,0.06088
1710.0,0.06095
1715.0,0.06097
1720.0,0.06106
1725.0,0.0612
1730.0,0.06125
1735.0,0.06138
1740.0,0.06149
1745.0,0.06156
1750.0,0.0617
1755.0,0.06181
1760.0,0.06169
1765.0,0.06194
1770.0,0.06182
1775.0,0.06202
1780.0,0.06212
1785.0,0.06214
1790.0,0.06224
1795.0,0.06233
1800.0,0.06237
1805.0,0.06244
1810.0,0.06244
1815.0,0.06255
1820.0,0.06269
1825.0,0.06281
1830.0,0.06292
1835.0,0.06301
1840.0,0.06312
1845.0,0.06328
1850.0,0.06338
1855.0,0.0635
1860.0,0.06353
1865.0,0.06363
1870.0,0.06368
1875.0,0.06377
1880.0,0.06379
1885.0,0.06391
1890.0,0.06387
1895.0,0.06385
1900.0,0.06384
1905.0,0.06387
1910.0,0.06386
1915.0,0.064
1920.0,0.06409
1925.0,0.06419
1930.0,0.0643
1935.0,0.06449
1940.0,0.06464
1945.0,0.06472
1950.0,0.06488
1955.0,0.06505
1960.0,0.06525
1965.0,0.06544
1970.0,0.06566
1975.0,0.06589
1980.0,0.06606
1985.0,0.06617
1990.0,0.06627
1995.0,0.06642
2000.0,0.06659
2005.0,0.06673
2010.0,0.06686
2015.0,0.06701
2020.0,0.06716
2025.0,0.06724
2030.0,0.06739
2035.0,0.06754
2040.0,0.06764
2045.0,0.06775
2050.0,0.06866
2055.0,0.0688
2060.0,0.06893
2065.0,0.06904
2070.0,0.06921
2075.0,0.06928
2080.0,0.06936
2085.0,0.06947
2090.0,0.06967
2095.0,0.06989
2100.0,0.07008
2105.0,0.07023
2110.0,0.07035
2115.0,0.07049
2120.0,0.07053
2125.0,0.07065
2130.0,0.0708
2135.0,0.07098
2140.0,0.07107
2145.0,0.07124
2150.0,0.07137
2155.0,0.07158
2160.0,0.07165
2165.0,0.07181
2170.0,0.07193
2175.0,0.07207
2180.0,0.07218
2185.0,0.07239
2190.0,0.07258
2195.0,0.07275
2200.0,0.07289
2205.0,0.07308
2210.0,0.07324
2215.0,0.07336
2220.0,0.07346
2225.0,0.0736
2230.0,0.07367
2235.0,0.07373
2240.0,0.07377
2245.0,0.07381
2250.0,0.07388
2255.0,0.07386
2260.0,0.07394
2265.0,0.07396
2270.0,0.07397
2275.0,0.07397
2280.0,0.07406
2285.0,0.07481
2290.0,0.07501
2295.0,0.07517
2300.0,0.0754
2305.0,0.07561
2310.0,0.07576
2315.0,0.07588
2320.0,0.07601
2325.0,0.0761
2330.0,0.07613
2335.0,0.0762
2340.0,0.07639
2345.0,0.0766
2350.0,0.07667
2355.0,0.07684
2360.0,0.07701
2365.0,0.07719
2370.0,0.07725
2375.0,0.07741
2380.0,0.07755
2385.0,0.07762
2390.0,0.07758
2395.0,0.07765
2400.0,0.07768
2405.0,0.07772
2410.0,0.07779
2415.0,0.07787
2420.0,0.07796
2425.0,0.07843
2430.0,0.07847
2435.0,0.07861
2440.0,0.07863
2445.0,0.0788
2450.0,0.07878
2455.0,0.07884
2460.0,0.07885
2465.0,0.0791
2470.0,0.07911
2475.0,0.07925
2480.0,0.07944
2485.0,0.07934
2490.0,0.07951
2495.0,0.07977
2500.0,0.07993
2505.0,0.08015
2510.0,0.08029
2515.0,0.0805
2520.0,0.08033
2525.0,0.08081
2530.0,0.08124
2535.0,0.0815
