Database of Origin,University of Winnipeg Spectrophotometer Facility
Sample Description,Carbonaceous chondrites - RELAB archive 8. Lab-heated carbonaceous chondrites
Other Information,Heated Ivuna 600C ncmp18D
Date Added,2018-07-23 23:45:04.498407

Data ID,RLA_MET_40_5        
Sample ID,Ivuna
Mineral Name,Ivuna
Viewing Geometry,30/0/ 30
Resolution,5/ 0.6-129 nm
Material Class,CI1

Wavelength
305.0,0.022015
310.0,0.022097
315.0,0.022974
320.0,0.022272
325.0,0.022344
330.0,0.021713
335.0,0.021953
340.0,0.021905
345.0,0.022016
350.0,0.021544
355.0,0.021296
360.0,0.021385
365.0,0.021281
370.0,0.020741
375.0,0.021094
380.0,0.02089
385.0,0.020887
390.0,0.021042
395.0,0.020844
400.0,0.021134
405.0,0.020977
410.0,0.020819
415.0,0.02072
420.0,0.020919
425.0,0.021007
430.0,0.020938
435.0,0.020898
440.0,0.021009
445.0,0.02097
450.0,0.020988
455.0,0.020982
460.0,0.021043
465.0,0.021031
470.0,0.020991
475.0,0.02099
480.0,0.021047
485.0,0.021069
490.0,0.02114
495.0,0.021319
500.0,0.021364
505.0,0.021421
510.0,0.021416
515.0,0.021447
520.0,0.021469
525.0,0.021559
530.0,0.021615
535.0,0.021859
540.0,0.021861
545.0,0.021909
550.0,0.021907
555.0,0.021947
560.0,0.022001
565.0,0.022052
570.0,0.022057
575.0,0.022059
580.0,0.022073
585.0,0.022131
590.0,0.02219
595.0,0.022093
600.0,0.022094
605.0,0.022136
610.0,0.022237
615.0,0.022284
620.0,0.022368
625.0,0.022412
630.0,0.022477
635.0,0.022515
640.0,0.022558
645.0,0.022643
650.0,0.022717
655.0,0.022753
660.0,0.022641
665.0,0.022715
670.0,0.02253
675.0,0.022584
680.0,0.022609
685.0,0.022455
690.0,0.022502
695.0,0.022472
700.0,0.022546
705.0,0.022461
710.0,0.022436
715.0,0.022423
720.0,0.022433
725.0,0.022309
730.0,0.022334
735.0,0.022406
740.0,0.022395
745.0,0.022359
750.0,0.022488
755.0,0.022317
760.0,0.022315
765.0,0.022231
770.0,0.022133
775.0,0.022178
780.0,0.022202
785.0,0.022196
790.0,0.022179
795.0,0.022217
800.0,0.022212
805.0,0.022258
810.0,0.022274
815.0,0.022174
820.0,0.021962
825.0,0.022002
830.0,0.02199
835.0,0.02204
840.0,0.02198
845.0,0.021997
850.0,0.022085
855.0,0.022034
860.0,0.021972
865.0,0.021791
870.0,0.02206
875.0,0.022054
880.0,0.021895
885.0,0.022023
890.0,0.022002
895.0,0.021973
900.0,0.021875
905.0,0.021949
910.0,0.021836
915.0,0.021806
920.0,0.021849
925.0,0.021821
930.0,0.021665
935.0,0.021834
940.0,0.02196
945.0,0.021884
950.0,0.021722
955.0,0.021741
960.0,0.021688
965.0,0.021806
970.0,0.021743
975.0,0.021717
980.0,0.02184
985.0,0.021788
990.0,0.021732
995.0,0.021702
1000.0,0.021667
1005.0,0.021671
1010.0,0.021718
1015.0,0.021697
1020.0,0.021679
1025.0,0.021656
1030.0,0.021663
1035.0,0.021676
1040.0,0.021684
1045.0,0.021724
1050.0,0.021681
1055.0,0.021609
1060.0,0.021622
1065.0,0.021609
1070.0,0.021523
1075.0,0.021505
1080.0,0.021512
1085.0,0.021561
1090.0,0.021474
1095.0,0.021551
1100.0,0.021472
1105.0,0.0214
1110.0,0.021377
1115.0,0.021381
1120.0,0.021325
1125.0,0.021265
1130.0,0.021346
1135.0,0.021432
1140.0,0.021432
1145.0,0.021336
1150.0,0.021249
1155.0,0.021377
1160.0,0.021402
1165.0,0.02141
1170.0,0.02136
1175.0,0.021395
1180.0,0.021407
1185.0,0.021341
1190.0,0.021316
1195.0,0.021354
1200.0,0.021307
1205.0,0.021323
1210.0,0.021452
1215.0,0.021537
1220.0,0.021475
1225.0,0.021374
1230.0,0.021381
1235.0,0.02132
1240.0,0.021333
1245.0,0.021192
1250.0,0.021193
1255.0,0.021245
1260.0,0.021112
1265.0,0.021073
1270.0,0.02109
1275.0,0.021151
1280.0,0.021175
1285.0,0.021135
1290.0,0.0211
1295.0,0.021164
1300.0,0.021185
1305.0,0.021194
1310.0,0.02117
1315.0,0.021148
1320.0,0.021172
1325.0,0.02116
1330.0,0.021218
1335.0,0.021185
1340.0,0.021142
1345.0,0.021049
1350.0,0.021046
1355.0,0.021117
1360.0,0.021041
1365.0,0.021163
1370.0,0.021161
1375.0,0.02115
1380.0,0.021094
1385.0,0.021216
1390.0,0.021245
1395.0,0.021184
1400.0,0.021171
1405.0,0.021309
1410.0,0.021432
1415.0,0.021402
1420.0,0.021437
1425.0,0.021478
1430.0,0.021452
1435.0,0.021494
1440.0,0.021487
1445.0,0.021542
1450.0,0.021582
1455.0,0.021594
1460.0,0.021566
1465.0,0.021568
1470.0,0.021584
1475.0,0.021611
1480.0,0.021645
1485.0,0.021683
1490.0,0.021619
1495.0,0.021703
1500.0,0.021732
1505.0,0.021758
1510.0,0.021758
1515.0,0.021864
1520.0,0.021866
1525.0,0.021897
1530.0,0.021874
1535.0,0.021964
1540.0,0.022048
1545.0,0.022056
1550.0,0.022027
1555.0,0.02204
1560.0,0.022076
1565.0,0.02213
1570.0,0.022131
1575.0,0.022198
1580.0,0.022137
1585.0,0.022141
1590.0,0.022104
1595.0,0.022041
1600.0,0.022054
1605.0,0.022035
1610.0,0.022054
1615.0,0.022081
1620.0,0.022062
1625.0,0.022043
1630.0,0.02205
1635.0,0.022081
1640.0,0.022069
1645.0,0.022035
1650.0,0.022073
1655.0,0.022067
1660.0,0.022077
1665.0,0.022059
1670.0,0.022063
1675.0,0.022117
1680.0,0.022103
1685.0,0.022102
1690.0,0.022202
1695.0,0.022111
1700.0,0.022259
1705.0,0.022168
1710.0,0.022279
1715.0,0.022302
1720.0,0.022323
1725.0,0.022351
1730.0,0.022398
1735.0,0.022345
1740.0,0.022355
1745.0,0.022331
1750.0,0.022402
1755.0,0.022305
1760.0,0.022274
1765.0,0.022316
1770.0,0.022332
1775.0,0.022259
1780.0,0.022351
1785.0,0.022362
1790.0,0.022338
1795.0,0.022451
1800.0,0.022339
1805.0,0.022266
1810.0,0.022322
1815.0,0.022363
1820.0,0.02223
1825.0,0.022363
1830.0,0.022317
1835.0,0.022355
1840.0,0.022298
1845.0,0.022301
1850.0,0.022361
1855.0,0.022362
1860.0,0.022444
1865.0,0.022424
1870.0,0.022362
1875.0,0.022375
1880.0,0.022443
1885.0,0.022294
1890.0,0.02238
1895.0,0.022351
1900.0,0.022324
1905.0,0.022406
1910.0,0.022327
1915.0,0.022327
1920.0,0.022295
1925.0,0.022411
1930.0,0.022347
1935.0,0.022327
1940.0,0.022417
1945.0,0.022507
1950.0,0.022524
1955.0,0.022536
1960.0,0.022443
1965.0,0.02245
1970.0,0.022467
1975.0,0.022555
1980.0,0.022421
1985.0,0.022485
1990.0,0.022469
1995.0,0.022512
2000.0,0.022547
2005.0,0.022518
2010.0,0.022608
2015.0,0.022717
2020.0,0.022585
2025.0,0.022629
2030.0,0.022584
2035.0,0.022585
2040.0,0.022559
2045.0,0.022594
2050.0,0.022641
2055.0,0.022731
2060.0,0.022731
2065.0,0.022685
2070.0,0.022588
2075.0,0.022548
2080.0,0.022596
2085.0,0.022776
2090.0,0.022714
2095.0,0.022646
2100.0,0.022843
2105.0,0.022778
2110.0,0.022789
2115.0,0.022837
2120.0,0.02295
2125.0,0.022945
2130.0,0.022903
2135.0,0.02299
2140.0,0.022839
2145.0,0.02289
2150.0,0.022834
2155.0,0.022924
2160.0,0.022823
2165.0,0.022928
2170.0,0.022913
2175.0,0.022939
2180.0,0.023114
2185.0,0.023075
2190.0,0.023111
2195.0,0.023179
2200.0,0.02319
2205.0,0.023306
2210.0,0.023203
2215.0,0.023221
2220.0,0.023139
2225.0,0.023131
2230.0,0.023224
2235.0,0.023287
2240.0,0.023283
2245.0,0.02316
2250.0,0.023283
2255.0,0.023228
2260.0,0.023274
2265.0,0.023298
2270.0,0.023315
2275.0,0.023213
2280.0,0.023359
2285.0,0.023505
2290.0,0.023343
2295.0,0.023359
2300.0,0.023437
2305.0,0.023371
2310.0,0.02346
2315.0,0.023378
2320.0,0.023576
2325.0,0.023406
2330.0,0.023418
2335.0,0.023526
2340.0,0.023448
2345.0,0.023437
2350.0,0.023402
2355.0,0.023481
2360.0,0.023564
2365.0,0.023644
2370.0,0.023672
2375.0,0.023665
2380.0,0.02367
2385.0,0.023706
2390.0,0.023757
2395.0,0.023722
2400.0,0.023752
2405.0,0.023731
2410.0,0.023798
2415.0,0.02396
2420.0,0.023836
2425.0,0.023989
2430.0,0.023975
2435.0,0.023925
2440.0,0.023911
2445.0,0.023883
2450.0,0.023894
2455.0,0.023899
2460.0,0.023837
2465.0,0.023866
2470.0,0.023872
2475.0,0.024075
2480.0,0.024078
2485.0,0.024054
2490.0,0.024083
2495.0,0.024102
2500.0,0.024099
2502.0,0.02409
2503.2,0.024112
2504.41,0.024107
2505.62,0.024153
2506.83,0.024208
2508.05,0.024052
2509.26,0.024086
2510.48,0.024162
2511.69,0.02414
2512.91,0.024133
2514.13,0.024145
2515.35,0.024129
2516.57,0.02415
2517.79,0.024252
2519.02,0.024288
2520.24,0.024263
2521.47,0.024333
2522.69,0.024267
2523.92,0.024165
2525.15,0.024051
2526.38,0.024135
2527.61,0.024328
2528.85,0.024358
2530.08,0.024208
2531.32,0.024207
2532.55,0.0243
2533.79,0.024334
2535.03,0.0243
2536.27,0.024297
2537.51,0.024343
2538.75,0.02434
2540.0,0.024334
2541.24,0.024381
2542.49,0.024329
2543.74,0.024403
2544.99,0.024564
2546.24,0.024501
2547.49,0.024355
2548.74,0.024415
2549.99,0.024572
2551.25,0.024537
2552.5,0.0245
2553.76,0.024441
2555.02,0.024497
2556.28,0.024487
2557.54,0.024387
2558.8,0.024382
2560.07,0.024444
2561.33,0.024495
2562.6,0.024505
2563.86,0.024492
2565.13,0.02453
2566.4,0.024631
2567.67,0.024634
2568.95,0.024524
2570.22,0.024463
2571.5,0.024583
2572.77,0.02459
2574.05,0.024554
2575.33,0.02453
2576.61,0.024654
2577.89,0.024599
2579.17,0.024488
2580.46,0.024567
2581.74,0.024668
2583.03,0.024746
2584.31,0.024664
2585.6,0.024689
2586.89,0.024766
2588.19,0.024693
2589.48,0.024673
2590.77,0.024681
2592.07,0.024833
2593.36,0.024857
2594.66,0.024799
2595.96,0.024798
2597.26,0.024769
2598.56,0.024783
2599.87,0.024832
2601.17,0.024894
2602.48,0.024845
2603.78,0.02477
2605.09,0.02465
2606.4,0.024668
2607.71,0.024745
2609.03,0.024815
2610.34,0.024874
2611.66,0.02479
2612.97,0.024715
2614.29,0.024747
2615.61,0.024761
2616.93,0.024647
2618.25,0.024694
2619.57,0.024881
2620.9,0.024925
2622.22,0.02491
2623.55,0.024934
2624.88,0.024971
2626.21,0.024994
2627.54,0.025022
2628.87,0.025025
2630.21,0.025
2631.54,0.024953
2632.88,0.02502
2634.21,0.025032
2635.55,0.025026
2636.89,0.025009
2638.24,0.024986
2639.58,0.024994
2640.92,0.024972
2642.27,0.024987
2643.62,0.025016
2644.97,0.025079
2646.32,0.025045
2647.67,0.024984
2649.02,0.025055
2650.38,0.025005
2651.73,0.024938
2653.09,0.024997
2654.45,0.025105
2655.81,0.025218
2657.17,0.025173
2658.53,0.025179
2659.89,0.025187
2661.26,0.025097
2662.63,0.025048
2664.0,0.025024
2665.36,0.024992
2666.74,0.024986
2668.11,0.025039
2669.48,0.025073
2670.86,0.025094
2672.23,0.025132
2673.61,0.0251
2674.99,0.024971
2676.37,0.024986
2677.76,0.025042
2679.14,0.025013
2680.52,0.024911
2681.91,0.024915
2683.3,0.02485
2684.69,0.024715
2686.08,0.024732
2687.47,0.024755
2688.87,0.024733
2690.26,0.024641
2691.66,0.024525
2693.06,0.024546
2694.46,0.024482
2695.86,0.024323
2697.26,0.02429
2698.66,0.02418
2700.07,0.024044
2701.48,0.02405
2702.89,0.02407
2704.3,0.024048
2705.71,0.023928
2707.12,0.023918
2708.53,0.02392
2709.95,0.023782
2711.37,0.023633
2712.79,0.023645
2714.21,0.023675
2715.63,0.023587
2717.05,0.02334
2718.48,0.023123
2719.9,0.022989
2721.33,0.02287
2722.76,0.022904
2724.19,0.023007
2725.62,0.023129
2727.06,0.023227
2728.49,0.02336
2729.93,0.023526
2731.37,0.023573
2732.81,0.023457
2734.25,0.023435
2735.69,0.023431
2737.14,0.02358
2738.58,0.02368
2740.03,0.02364
2741.48,0.023681
2742.93,0.023767
2744.38,0.023758
2745.83,0.023655
2747.29,0.023594
2748.75,0.023664
2750.2,0.02377
2751.66,0.023709
2753.13,0.023614
2754.59,0.023677
2756.05,0.023753
2757.52,0.023702
2758.99,0.023703
2760.46,0.023616
2761.93,0.023571
2763.4,0.023519
2764.87,0.023457
2766.35,0.023474
2767.82,0.023513
2769.3,0.023492
2770.78,0.023452
2772.26,0.023426
2773.75,0.023455
2775.23,0.023412
2776.72,0.023352
2778.21,0.023379
2779.7,0.0235
2781.19,0.023498
2782.68,0.023377
2784.18,0.023304
2785.67,0.023342
2787.17,0.023353
2788.67,0.023386
2790.17,0.023398
2791.67,0.023383
2793.18,0.023415
2794.68,0.023339
2796.19,0.023162
2797.7,0.023225
2799.21,0.023331
2800.72,0.023312
2802.24,0.023262
2803.75,0.023088
2805.27,0.023074
2806.79,0.023154
2808.31,0.023171
2809.83,0.023132
2811.35,0.023098
2812.88,0.023085
2814.41,0.023069
2815.93,0.02312
2817.46,0.023278
2819.0,0.023299
2820.53,0.023132
2822.07,0.023043
2823.6,0.023086
2825.14,0.022987
2826.68,0.022952
2828.22,0.022981
2829.77,0.023022
2831.31,0.022986
2832.86,0.022961
2834.41,0.022972
2835.96,0.022988
2837.51,0.022989
2839.07,0.022976
2840.62,0.023077
2842.18,0.023079
2843.74,0.023037
2845.3,0.023075
2846.86,0.022987
2848.43,0.02288
2849.99,0.022957
2851.56,0.022954
2853.13,0.022917
2854.7,0.023025
2856.27,0.023054
2857.85,0.022954
2859.42,0.022909
2861.0,0.022958
2862.58,0.023034
2864.16,0.02308
2865.75,0.023071
2867.33,0.023012
2868.92,0.023084
2870.51,0.023107
2872.1,0.023034
2873.69,0.023004
2875.28,0.023073
2876.88,0.023126
2878.48,0.023111
2880.07,0.023062
2881.68,0.023087
2883.28,0.023153
2884.88,0.023122
2886.49,0.02308
2888.1,0.023034
2889.71,0.022999
2891.32,0.022995
2892.93,0.02307
2894.55,0.02313
2896.16,0.023134
2897.78,0.02307
2899.4,0.023043
2901.03,0.023056
2902.65,0.023143
2904.28,0.023227
2905.91,0.023229
2907.54,0.023212
2909.17,0.023217
2910.8,0.023244
2912.44,0.023232
2914.07,0.0232
2915.71,0.023288
2917.35,0.023331
2918.99,0.023262
2920.64,0.023175
2922.29,0.023192
2923.93,0.023261
2925.58,0.023281
2927.24,0.0233
2928.89,0.023295
2930.55,0.023256
2932.2,0.02331
2933.86,0.023389
2935.52,0.023337
2937.19,0.023355
2938.85,0.023378
2940.52,0.023383
2942.19,0.023389
2943.86,0.023411
2945.53,0.023444
2947.21,0.023471
2948.88,0.023512
2950.56,0.023568
2952.24,0.023562
2953.92,0.023516
2955.61,0.023506
2957.29,0.023546
2958.98,0.023576
2960.67,0.023547
2962.36,0.023597
2964.06,0.02357
2965.75,0.023538
2967.45,0.023653
2969.15,0.023729
2970.85,0.023707
2972.55,0.023624
2974.26,0.023595
2975.97,0.023582
2977.68,0.023576
2979.39,0.023665
2981.1,0.023709
2982.82,0.023674
2984.53,0.023731
2986.25,0.023746
2987.97,0.023714
2989.7,0.023744
2991.42,0.023753
2993.15,0.023761
2994.88,0.023827
2996.61,0.023778
2998.34,0.02371
3000.08,0.023745
3001.82,0.023817
3003.55,0.023888
3005.3,0.023982
3007.04,0.024018
3008.78,0.023973
3010.53,0.023969
3012.28,0.024021
3014.03,0.024008
3015.79,0.02393
3017.54,0.0239
3019.3,0.023895
3021.06,0.023971
3022.82,0.024091
3024.58,0.024087
3026.35,0.02412
3028.12,0.024076
3029.89,0.024029
3031.66,0.024022
3033.43,0.02407
3035.21,0.024073
3036.99,0.024085
3038.77,0.024099
3040.55,0.024086
3042.33,0.024093
3044.12,0.024113
3045.91,0.024192
3047.7,0.024236
3049.49,0.024242
3051.29,0.02424
3053.08,0.024255
3054.88,0.024331
3056.68,0.024334
3058.49,0.024329
3060.29,0.024297
3062.1,0.024304
3063.91,0.024347
3065.72,0.024325
3067.54,0.024394
3069.35,0.024432
3071.17,0.02443
3072.99,0.024461
3074.81,0.024461
3076.64,0.024476
3078.47,0.024486
3080.29,0.024526
3082.13,0.024578
3083.96,0.024543
3085.79,0.024503
3087.63,0.024546
3089.47,0.024626
3091.31,0.024616
3093.16,0.024572
3095.01,0.024601
3096.85,0.024666
3098.71,0.02469
3100.56,0.024745
3102.41,0.024819
3104.27,0.02481
3106.13,0.024748
3107.99,0.024753
3109.86,0.024803
3111.73,0.024831
3113.59,0.024827
3115.47,0.024875
3117.34,0.024962
3119.21,0.024989
3121.09,0.024978
3122.97,0.024978
3124.86,0.024971
3126.74,0.025008
3128.63,0.02511
3130.52,0.025175
3132.41,0.025173
3134.3,0.025153
3136.2,0.025097
3138.1,0.025116
3140.0,0.025191
3141.9,0.025293
3143.81,0.025345
3145.71,0.025349
3147.62,0.025294
3149.54,0.025349
3151.45,0.025462
3153.37,0.025474
3155.29,0.02544
3157.21,0.025435
3159.13,0.025421
3161.06,0.025457
3162.99,0.02556
3164.92,0.025626
3166.85,0.025561
3168.79,0.02556
3170.72,0.02559
3172.67,0.025619
3174.61,0.025647
3176.55,0.025748
3178.5,0.025801
3180.45,0.025777
3182.4,0.025751
3184.36,0.025772
3186.32,0.025795
3188.27,0.025821
3190.24,0.025904
3192.2,0.025996
3194.17,0.026031
3196.14,0.025993
3198.11,0.026042
3200.08,0.026094
3202.06,0.026087
3204.04,0.026097
3206.02,0.026156
3208.0,0.026205
3209.99,0.026237
3211.98,0.026201
3213.97,0.026231
3215.96,0.026301
3217.96,0.026293
3219.96,0.026254
3221.96,0.02631
3223.96,0.026361
3225.97,0.026365
3227.98,0.026428
3229.99,0.026445
3232.0,0.026431
3234.02,0.026455
3236.04,0.026449
3238.06,0.02644
3240.08,0.026504
3242.11,0.026541
3244.14,0.026588
3246.17,0.026561
3248.2,0.026582
3250.24,0.026633
3252.28,0.026697
3254.32,0.026662
3256.37,0.026598
3258.41,0.026635
3260.46,0.026683
3262.51,0.026707
3264.57,0.026773
3266.63,0.026825
3268.69,0.026836
3270.75,0.026812
3272.81,0.026825
3274.88,0.026867
3276.95,0.026908
3279.02,0.026915
3281.1,0.026934
3283.18,0.026959
3285.26,0.026985
3287.34,0.026979
3289.43,0.026998
3291.51,0.027067
3293.61,0.027066
3295.7,0.027018
3297.8,0.027095
3299.9,0.027136
3302.0,0.027162
3304.1,0.027184
3306.21,0.027214
3308.32,0.027228
3310.43,0.027228
3312.55,0.027243
3314.66,0.027295
3316.79,0.027373
3318.91,0.027397
3321.03,0.02736
3323.16,0.027384
3325.29,0.027415
3327.43,0.027399
3329.57,0.02743
3331.71,0.027424
3333.85,0.02745
3335.99,0.027497
3338.14,0.027479
3340.29,0.027491
3342.45,0.02751
3344.6,0.027501
3346.76,0.027521
3348.92,0.027516
3351.09,0.027495
3353.26,0.027493
3355.43,0.027456
3357.6,0.027471
3359.78,0.027492
3361.96,0.027459
3364.14,0.027421
3366.32,0.027393
3368.51,0.02742
3370.7,0.027418
3372.89,0.027388
3375.09,0.02739
3377.29,0.027387
3379.49,0.02738
3381.69,0.027373
3383.9,0.027346
3386.11,0.027363
3388.32,0.027397
3390.54,0.027425
3392.76,0.027419
3394.98,0.027374
3397.21,0.027394
3399.43,0.027414
3401.66,0.027402
3403.9,0.027404
3406.13,0.027431
3408.37,0.027422
3410.61,0.02739
3412.86,0.027422
3415.11,0.027375
3417.36,0.027312
3419.61,0.027338
3421.87,0.027394
3424.13,0.027388
3426.39,0.027376
3428.66,0.027464
3430.93,0.027533
3433.2,0.027528
3435.48,0.027545
3437.76,0.027607
3440.04,0.027656
3442.32,0.027706
3444.61,0.027742
3446.9,0.027737
3449.19,0.027724
3451.49,0.027758
3453.79,0.027829
3456.09,0.027867
3458.4,0.027882
3460.7,0.027955
3463.02,0.028046
3465.33,0.028024
3467.65,0.027987
3469.97,0.027993
3472.29,0.028032
3474.62,0.028059
3476.95,0.028045
3479.29,0.027997
3481.62,0.027982
3483.96,0.02808
3486.3,0.028146
3488.65,0.028178
3491.0,0.028178
3493.35,0.028154
3495.71,0.028127
3498.07,0.028124
3500.43,0.028154
3502.79,0.028203
3505.16,0.028235
3507.53,0.028243
3509.91,0.028293
3512.29,0.02837
3514.67,0.028422
3517.05,0.0285
3519.44,0.028567
3521.83,0.028579
3524.23,0.028614
3526.62,0.028693
3529.02,0.028773
3531.43,0.028843
3533.83,0.028889
3536.24,0.028844
3538.66,0.02884
3541.08,0.028922
3543.5,0.028983
3545.92,0.029033
3548.35,0.029093
3550.78,0.029101
3553.21,0.029115
3555.65,0.029194
3558.09,0.029191
3560.53,0.029173
3562.98,0.029207
3565.43,0.02921
3567.88,0.029274
3570.34,0.029335
3572.8,0.029308
3575.27,0.029277
3577.73,0.029292
3580.2,0.029316
3582.68,0.029339
3585.16,0.029371
3587.64,0.029393
3590.12,0.029416
3592.61,0.029418
3595.1,0.0295
3597.6,0.029523
3600.09,0.029514
3602.6,0.029534
3605.1,0.02953
3607.61,0.029542
3610.12,0.029613
3612.64,0.029632
3615.16,0.029601
3617.68,0.029592
3620.21,0.029627
3622.74,0.029683
3625.27,0.029697
3627.81,0.029735
3630.35,0.029746
3632.89,0.029737
3635.44,0.029748
3637.99,0.029776
3640.54,0.029843
3643.1,0.029868
3645.66,0.029857
3648.23,0.029834
3650.8,0.02979
3653.37,0.029811
3655.95,0.029871
3658.53,0.029929
3661.11,0.029937
3663.7,0.029949
3666.29,0.029992
3668.89,0.029991
3671.48,0.030004
3674.09,0.03005
3676.69,0.030077
3679.3,0.030084
3681.91,0.030086
3684.53,0.03014
3687.15,0.030156
3689.78,0.030132
3692.4,0.030121
3695.04,0.030129
3697.67,0.030156
3700.31,0.030189
3702.95,0.030231
3705.6,0.030242
3708.25,0.030241
3710.91,0.03026
3713.56,0.030313
3716.23,0.030336
3718.89,0.030309
3721.56,0.030282
3724.23,0.030346
3726.91,0.030399
3729.59,0.03041
3732.28,0.030438
3734.97,0.030463
3737.66,0.030454
3740.36,0.030466
3743.06,0.030502
3745.76,0.030505
3748.47,0.030533
3751.18,0.030559
3753.9,0.030587
3756.62,0.030613
3759.34,0.030638
3762.07,0.030636
3764.8,0.030617
3767.54,0.030649
3770.28,0.030655
3773.02,0.030679
3775.77,0.03071
3778.52,0.030719
3781.28,0.030768
3784.04,0.030797
3786.8,0.030778
3789.57,0.030784
3792.34,0.030818
3795.12,0.030843
3797.9,0.030897
3800.69,0.030906
3803.47,0.030884
3806.27,0.030919
3809.06,0.030937
3811.86,0.030918
3814.67,0.030927
3817.48,0.030963
3820.29,0.030947
3823.11,0.030926
3825.93,0.030976
3828.76,0.031038
3831.59,0.031042
3834.42,0.031072
3837.26,0.031068
3840.1,0.031056
3842.95,0.031086
3845.8,0.031122
3848.65,0.031129
3851.51,0.031135
3854.38,0.031094
3857.24,0.031077
3860.12,0.031124
3862.99,0.031175
3865.87,0.031211
3868.76,0.031273
3871.65,0.031264
3874.54,0.031211
3877.44,0.031213
3880.34,0.031252
3883.25,0.031281
3886.16,0.031305
3889.07,0.031309
3891.99,0.031308
3894.92,0.031302
3897.85,0.031313
3900.78,0.031315
3903.72,0.031336
3906.66,0.031374
3909.6,0.031369
3912.55,0.031365
3915.51,0.031429
3918.47,0.031473
3921.43,0.031462
3924.4,0.031465
3927.38,0.03151
3930.35,0.031539
3933.33,0.031553
3936.32,0.031539
3939.31,0.031528
3942.31,0.031554
3945.31,0.031565
3948.31,0.031571
3951.32,0.031575
3954.34,0.031583
3957.35,0.03158
3960.38,0.031601
3963.41,0.031623
3966.44,0.031609
3969.48,0.031618
3972.52,0.031676
3975.56,0.031702
3978.61,0.03169
3981.67,0.031694
3984.73,0.031675
3987.8,0.031719
3990.87,0.031794
3993.94,0.031823
3997.02,0.031808
4000.1,0.031818
4003.19,0.03181
4006.29,0.031803
4009.39,0.031797
4012.49,0.031807
4015.6,0.031867
4018.71,0.031926
4021.83,0.031912
4024.95,0.031938
4028.08,0.031973
4031.21,0.031973
4034.35,0.03197
4037.49,0.031969
4040.64,0.03199
4043.79,0.032021
4046.94,0.032021
4050.11,0.032023
4053.27,0.032042
4056.44,0.032062
4059.62,0.032059
4062.8,0.03205
4065.99,0.032061
4069.18,0.032047
4072.38,0.032067
4075.58,0.032129
4078.78,0.032143
4082.0,0.032116
4085.21,0.032149
4088.43,0.032175
4091.66,0.032177
4094.89,0.032205
4098.13,0.032214
4101.37,0.032235
4104.62,0.03225
4107.87,0.032246
4111.13,0.032225
4114.39,0.032209
4117.66,0.032238
4120.93,0.032295
4124.21,0.032314
4127.5,0.032327
4130.79,0.032292
4134.08,0.032276
4137.38,0.032304
4140.68,0.032357
4143.99,0.032356
4147.31,0.032375
4150.63,0.032389
4153.95,0.032412
4157.29,0.032442
4160.62,0.032474
4163.96,0.032468
4167.31,0.032477
4170.66,0.032452
4174.02,0.032439
4177.39,0.032475
4180.75,0.032475
4184.13,0.032457
4187.51,0.032498
4190.89,0.032578
4194.28,0.032622
4197.68,0.032627
4201.08,0.03263
4204.49,0.032643
4207.9,0.032668
4211.32,0.032671
4214.74,0.0327
4218.17,0.032704
4221.61,0.032724
4225.05,0.032737
4228.5,0.032762
4231.95,0.032828
4235.4,0.032866
4238.87,0.032846
4242.34,0.03283
4245.81,0.032836
4249.29,0.032868
4252.78,0.032869
4256.27,0.032864
4259.77,0.032848
4263.27,0.032857
4266.78,0.03288
4270.29,0.032926
4273.81,0.032917
4277.34,0.032897
4280.87,0.032934
4284.41,0.032985
4287.95,0.03303
4291.5,0.033021
4295.06,0.032983
4298.62,0.033017
4302.19,0.033026
4305.76,0.032986
4309.34,0.033014
4312.92,0.033043
4316.52,0.033028
4320.11,0.03301
4323.72,0.033028
4327.32,0.033052
4330.94,0.033083
4334.56,0.033084
4338.19,0.033063
4341.82,0.033082
4345.46,0.033113
4349.11,0.033134
4352.76,0.033128
4356.42,0.033135
4360.08,0.033139
4363.75,0.033153
4367.43,0.033222
4371.11,0.033235
4374.8,0.033211
4378.49,0.033217
4382.19,0.033226
4385.9,0.033265
4389.61,0.033302
4393.33,0.033297
4397.06,0.03326
4400.79,0.03324
4404.53,0.033278
4408.28,0.033305
4412.03,0.033294
4415.79,0.033275
4419.55,0.033281
4423.32,0.033305
4427.1,0.033322
4430.88,0.033343
4434.68,0.033381
4438.47,0.033393
4442.28,0.033361
4446.08,0.033384
4449.9,0.033458
4453.72,0.033457
4457.55,0.033442
4461.39,0.033468
4465.23,0.033466
4469.08,0.033469
4472.94,0.033497
4476.8,0.033517
4480.67,0.033536
4484.55,0.033548
4488.43,0.033555
4492.32,0.033604
4496.21,0.033599
4500.12,0.033589
4504.03,0.033611
4507.94,0.033688
4511.87,0.033695
4515.8,0.033672
4519.73,0.033691
4523.68,0.033693
4527.63,0.033692
4531.59,0.033708
4535.55,0.033725
4539.52,0.03374
4543.5,0.033761
4547.49,0.033814
4551.48,0.033826
4555.48,0.033823
4559.49,0.033816
4563.5,0.033815
4567.52,0.033833
4571.55,0.033834
4575.58,0.03385
4579.63,0.033875
4583.67,0.033858
4587.73,0.033877
4591.79,0.033898
4595.86,0.033896
4599.94,0.033926
4604.03,0.033962
4608.12,0.033986
4612.22,0.033967
4616.33,0.033936
4620.44,0.033945
4624.56,0.033963
4628.69,0.03399
4632.83,0.034039
4636.97,0.034066
4641.12,0.034059
4645.28,0.034033
4649.45,0.034038
4653.62,0.034055
4657.8,0.034056
4661.99,0.034067
4666.19,0.034081
4670.39,0.034073
4674.6,0.03409
4678.82,0.03411
4683.05,0.03409
4687.28,0.034085
4691.52,0.034092
4695.77,0.034137
4700.03,0.034202
4704.3,0.034227
4708.57,0.034238
4712.85,0.034253
4717.14,0.034296
4721.43,0.03429
4725.74,0.034269
4730.05,0.034292
4734.37,0.034373
4738.7,0.034403
4743.03,0.034377
4747.38,0.034351
4751.73,0.034367
4756.09,0.034392
4760.45,0.034402
4764.83,0.034429
4769.21,0.034446
4773.6,0.034444
4778.0,0.034437
4782.41,0.034446
4786.83,0.034455
4791.25,0.034465
4795.68,0.034496
4800.13,0.034509
4804.57,0.034494
4809.03,0.034487
4813.5,0.034519
4817.97,0.034576
4822.45,0.034588
4826.94,0.034585
4831.44,0.034593
4835.95,0.034598
4840.46,0.03463
4844.99,0.034656
4849.52,0.03467
4854.06,0.034661
4858.61,0.034686
4863.17,0.034693
4867.73,0.034688
4872.31,0.034722
4876.89,0.034721
4881.48,0.034749
4886.08,0.03477
4890.69,0.03479
4895.31,0.034802
4899.94,0.034795
4904.57,0.034804
4909.22,0.034813
4913.87,0.034807
4918.53,0.03479
4923.21,0.034798
4927.88,0.034809
4932.57,0.034826
4937.27,0.034842
4941.98,0.034888
4946.69,0.034892
4951.42,0.034855
4956.15,0.034858
4960.9,0.034864
4965.65,0.034867
4970.41,0.03489
4975.18,0.034916
4979.96,0.034935
4984.75,0.034986
4989.54,0.034987
4994.35,0.034947
4999.17,0.034952
5003.99,0.035003
5008.83,0.035017
5013.67,0.035018
5018.52,0.035019
5023.39,0.035048
5028.26,0.035091
5033.14,0.035104
5038.03,0.035076
5042.93,0.035053
5047.84,0.035068
5052.76,0.035099
5057.69,0.0351
5062.63,0.035105
5067.58,0.035137
5072.54,0.035149
5077.51,0.035149
5082.49,0.035145
5087.47,0.035129
5092.47,0.035137
5097.48,0.035152
5102.5,0.03516
5107.52,0.035149
5112.56,0.03514
5117.61,0.035186
5122.66,0.035237
5127.73,0.035246
5132.81,0.035245
5137.89,0.035243
5142.99,0.035231
5148.1,0.035221
5153.22,0.035203
5158.34,0.035196
5163.48,0.035232
5168.63,0.035252
5173.79,0.035247
5178.96,0.035273
5184.13,0.035308
5189.32,0.035335
5194.52,0.035331
5199.73,0.035293
5204.96,0.035314
5210.19,0.035345
5215.43,0.035338
5220.68,0.035352
5225.94,0.035404
5231.22,0.035405
5236.5,0.035373
5241.79,0.035357
5247.1,0.03539
5252.42,0.035399
5257.74,0.035394
5263.08,0.035409
5268.43,0.035397
5273.79,0.035372
5279.16,0.035375
5284.54,0.0354
5289.93,0.035464
5295.34,0.035479
5300.75,0.035447
5306.18,0.035458
5311.61,0.035504
5317.06,0.035489
5322.52,0.03547
5327.99,0.035501
5333.47,0.035522
5338.96,0.035526
5344.47,0.035531
5349.98,0.035533
5355.51,0.035548
5361.05,0.035563
5366.6,0.035585
5372.16,0.0356
5377.73,0.035654
5383.32,0.03569
5388.91,0.035658
5394.52,0.035635
5400.14,0.035636
5405.77,0.03566
5411.41,0.035699
5417.07,0.035731
5422.74,0.035753
5428.41,0.035759
5434.1,0.035752
5439.81,0.035778
5445.52,0.035809
5451.25,0.035793
5456.98,0.035772
5462.73,0.035803
5468.5,0.035817
5474.27,0.035766
5480.06,0.035732
5485.86,0.035735
5491.67,0.035753
5497.49,0.035783
5503.33,0.035788
5509.18,0.035805
5515.04,0.035822
5520.91,0.035804
5526.8,0.035791
5532.69,0.035789
5538.61,0.035751
5544.53,0.035742
5550.47,0.035758
5556.41,0.035746
5562.38,0.035764
5568.35,0.035776
5574.34,0.03577
5580.34,0.035736
5586.35,0.035756
5592.38,0.035774
5598.42,0.035739
5604.47,0.035737
5610.54,0.035765
5616.61,0.035737
5622.71,0.035713
5628.81,0.035753
5634.93,0.035775
5641.06,0.035773
5647.21,0.035765
5653.36,0.035775
5659.54,0.035808
5665.72,0.035846
5671.92,0.035866
5678.13,0.035856
5684.36,0.03589
5690.6,0.035951
5696.85,0.03598
5703.12,0.035995
5709.4,0.036001
5715.69,0.036002
5722.0,0.036004
5728.33,0.036023
5734.66,0.036051
5741.01,0.036072
5747.38,0.036075
5753.76,0.036092
5760.15,0.03609
5766.56,0.036047
5772.98,0.036032
5779.41,0.036081
5785.86,0.036133
5792.33,0.036083
5798.81,0.036075
5805.3,0.036047
5811.81,0.036004
5818.33,0.035992
5824.87,0.03591
5831.42,0.035893
5837.99,0.035943
5844.57,0.035919
5851.17,0.035855
5857.78,0.03579
5864.41,0.035746
5871.05,0.035734
5877.7,0.035711
5884.38,0.035636
5891.06,0.035586
5897.76,0.035583
5904.48,0.035503
5911.21,0.035435
5917.96,0.035422
5924.73,0.035363
5931.5,0.035292
5938.3,0.035223
5945.11,0.03515
5951.93,0.035115
5958.78,0.035097
5965.63,0.03504
5972.51,0.034947
5979.39,0.034895
5986.3,0.034883
5993.22,0.034826
6000.16,0.034734
6007.11,0.03468
6014.08,0.034665
6021.06,0.03464
6028.06,0.034573
6035.08,0.034526
6042.12,0.034506
6049.17,0.034447
6056.23,0.034347
6063.32,0.034342
6070.42,0.034398
6077.53,0.034326
6084.67,0.03426
6091.82,0.034196
6098.98,0.034126
6106.17,0.034075
6113.37,0.034006
6120.58,0.033924
6127.82,0.033849
6135.07,0.033844
6142.34,0.033871
6149.63,0.033868
6156.93,0.033882
6164.25,0.033929
6171.59,0.034007
6178.95,0.034025
6186.32,0.033987
6193.71,0.033953
6201.12,0.033946
6208.54,0.03393
6215.99,0.03398
6223.45,0.03402
6230.93,0.034047
6238.43,0.034048
6245.95,0.034066
6253.48,0.034109
6261.03,0.034161
6268.6,0.034228
6276.19,0.034314
6283.8,0.034379
6291.43,0.034414
6299.07,0.034427
6306.73,0.03444
6314.42,0.03446
6322.12,0.034492
6329.84,0.034593
6337.57,0.034691
6345.33,0.034722
6353.11,0.03474
6360.9,0.034822
6368.72,0.034892
6376.55,0.03495
6384.4,0.034997
6392.27,0.035016
6400.17,0.035053
6408.08,0.035098
6416.01,0.035086
6423.96,0.035063
6431.93,0.035093
6439.92,0.035131
6447.93,0.03518
6455.96,0.035187
6464.01,0.035191
6472.08,0.035212
6480.17,0.035219
6488.28,0.035193
6496.41,0.035181
6504.56,0.03519
6512.73,0.035214
6520.92,0.035223
6529.14,0.035232
6537.37,0.035257
6545.63,0.035282
6553.9,0.035267
6562.2,0.035243
6570.51,0.035237
6578.85,0.035253
6587.21,0.03525
6595.59,0.035236
6603.99,0.035246
6612.42,0.035272
6620.86,0.035266
6629.33,0.035269
6637.82,0.035286
6646.33,0.035288
6654.86,0.035319
6663.41,0.035362
6671.99,0.035386
6680.59,0.035391
6689.21,0.035353
6697.85,0.035354
6706.51,0.035358
6715.2,0.035321
6723.91,0.035305
6732.64,0.035257
6741.4,0.035155
6750.18,0.0351
6758.98,0.035119
6767.8,0.035181
6776.65,0.035205
6785.52,0.035144
6794.41,0.035059
6803.33,0.034997
6812.27,0.034952
6821.23,0.03488
6830.22,0.034762
6839.23,0.03466
6848.26,0.034622
6857.32,0.034614
6866.4,0.03458
6875.51,0.034536
6884.64,0.034544
6893.8,0.034498
6902.98,0.034416
6912.18,0.034373
6921.41,0.034409
6930.66,0.034432
6939.94,0.034371
6949.24,0.034334
6958.57,0.034329
6967.92,0.034286
6977.3,0.034254
6986.7,0.034251
6996.13,0.034223
7005.59,0.034203
7015.07,0.03422
7024.57,0.034266
7034.1,0.034285
7043.66,0.034311
7053.25,0.034354
7062.85,0.034403
7072.49,0.034438
7082.15,0.034442
7091.84,0.034481
7101.55,0.034518
7111.3,0.034507
7121.06,0.034509
7130.86,0.034504
7140.68,0.034503
7150.53,0.034542
7160.41,0.03451
7170.31,0.034486
7180.24,0.03451
7190.2,0.034515
7200.19,0.034504
7210.2,0.034493
7220.24,0.034487
7230.31,0.034449
7240.41,0.034403
7250.54,0.034436
7260.69,0.034417
7270.88,0.034404
7281.09,0.034404
7291.33,0.034372
7301.6,0.034385
7311.9,0.034429
7322.22,0.034435
7332.58,0.034456
7342.97,0.034479
7353.38,0.034478
7363.83,0.03451
7374.3,0.034545
7384.81,0.034568
7395.34,0.034571
7405.91,0.034552
7416.5,0.034534
7427.13,0.034508
7437.78,0.034497
7448.47,0.034457
7459.19,0.03441
7469.94,0.034379
7480.71,0.03437
7491.52,0.03434
7502.37,0.034297
7513.24,0.034267
7524.14,0.034256
7535.08,0.034236
7546.05,0.034175
7557.05,0.034095
7568.08,0.033954
7579.15,0.033836
7590.24,0.033763
7601.37,0.033693
7612.53,0.033676
7623.73,0.033708
7634.96,0.033734
7646.22,0.033768
7657.51,0.033787
7668.84,0.033822
7680.2,0.033862
7691.59,0.033884
7703.02,0.033941
7714.49,0.033972
7725.98,0.033919
7737.52,0.033886
7749.08,0.033865
7760.68,0.033787
7772.32,0.033709
7783.99,0.033645
7795.69,0.033595
7807.43,0.033474
7819.21,0.03335
7831.02,0.033278
7842.87,0.033215
7854.75,0.033154
7866.67,0.033142
7878.62,0.033139
7890.62,0.033106
7902.64,0.033091
7914.71,0.033119
7926.81,0.033098
7938.95,0.033049
7951.13,0.033012
7963.34,0.033007
7975.59,0.033
7987.88,0.032953
8000.21,0.032915
8012.57,0.032852
8024.98,0.03279
8037.42,0.032768
8049.9,0.032718
8062.42,0.032647
8074.98,0.032567
8087.57,0.03248
8100.21,0.032389
8112.89,0.032264
8125.6,0.032149
8138.36,0.03207
8151.16,0.03197
8163.99,0.031898
8176.87,0.031831
8189.79,0.031737
8202.75,0.031654
8215.75,0.0316
8228.79,0.031497
8241.87,0.031383
8254.99,0.031256
8268.16,0.031043
8281.37,0.030788
8294.62,0.030632
8307.91,0.03052
8321.24,0.030393
8334.62,0.03026
8348.04,0.030159
8361.51,0.030071
8375.02,0.029935
8388.57,0.029821
8402.16,0.02976
8415.8,0.029688
8429.49,0.029566
8443.22,0.029433
8456.99,0.029304
8470.81,0.029179
8484.67,0.029092
8498.58,0.02899
8512.54,0.028865
8526.54,0.028757
8540.58,0.028602
8554.68,0.028475
8568.82,0.028376
8583.0,0.02824
8597.24,0.028109
8611.52,0.027957
8625.85,0.027778
8640.23,0.027635
8654.65,0.027533
8669.12,0.027431
8683.64,0.027365
8698.21,0.027294
8712.83,0.027119
8727.5,0.026955
8742.22,0.02679
8756.99,0.026627
8771.8,0.026435
8786.67,0.026217
8801.59,0.026075
8816.56,0.025933
8831.58,0.025758
8846.65,0.025587
8861.77,0.025428
8876.94,0.025291
8892.17,0.025182
8907.45,0.025042
8922.78,0.024897
8938.16,0.024789
8953.6,0.024685
8969.09,0.024627
8984.64,0.024552
9000.23,0.024398
9015.89,0.024322
9031.59,0.024308
9047.36,0.024165
9063.17,0.024068
9079.05,0.02408
9094.97,0.024078
9110.96,0.024003
9127.0,0.023943
9143.1,0.023983
9159.25,0.023964
9175.46,0.023936
9191.73,0.023973
9208.06,0.024001
9224.44,0.024003
9240.88,0.024036
9257.38,0.024088
9273.94,0.024117
9290.56,0.024214
9307.24,0.024322
9323.98,0.024474
9340.78,0.024563
9357.64,0.024628
9374.57,0.024741
9391.55,0.024839
9408.59,0.024945
9425.7,0.025157
9442.87,0.025307
9460.1,0.025416
9477.4,0.025481
9494.75,0.025538
9512.17,0.025669
9529.66,0.025773
9547.21,0.025835
9564.83,0.02596
9582.5,0.026113
9600.25,0.026201
9618.06,0.026252
9635.94,0.026364
9653.88,0.026502
9671.89,0.02661
9689.97,0.026695
9708.12,0.026733
9726.33,0.026731
9744.62,0.026763
9762.97,0.026792
9781.39,0.026823
9799.88,0.026826
9818.44,0.02677
9837.07,0.026779
9855.77,0.026844
9874.54,0.026871
9893.39,0.026816
9912.3,0.026727
9931.29,0.026633
9950.36,0.026621
9969.49,0.026576
9988.7,0.026578
10007.98,0.026597
10027.34,0.02665
10046.77,0.026688
10066.28,0.026677
10085.87,0.026634
10105.53,0.026628
10125.26,0.026639
10145.08,0.026643
10164.97,0.026664
10184.94,0.026691
10204.99,0.026749
10225.12,0.026816
10245.33,0.026884
10265.61,0.02699
10285.98,0.027099
10306.43,0.027198
10326.96,0.027392
10347.57,0.027598
10368.27,0.027718
10389.05,0.027831
10409.91,0.028049
10430.86,0.028275
10451.88,0.028428
10473.0,0.028512
10494.2,0.028568
10515.49,0.028575
10536.86,0.028487
10558.32,0.02849
10579.87,0.028481
10601.5,0.028504
10623.23,0.028541
10645.04,0.028613
10666.94,0.028611
10688.94,0.028521
10711.02,0.028373
10733.2,0.028274
10755.47,0.02821
10777.83,0.028077
10800.28,0.027963
10822.83,0.027913
10845.47,0.027827
10868.21,0.02777
10891.04,0.027796
10913.97,0.027844
10936.99,0.027817
10960.12,0.027836
10983.34,0.027853
11006.66,0.027876
11030.07,0.027934
11053.59,0.028032
11077.21,0.02821
11100.93,0.028266
11124.75,0.028326
11148.68,0.028479
11172.71,0.028648
11196.84,0.028821
11221.07,0.028978
11245.41,0.029136
11269.86,0.029395
11294.41,0.02966
11319.07,0.029987
11343.84,0.030341
11368.72,0.030572
11393.7,0.030741
11418.8,0.031021
11444.01,0.031422
11469.33,0.031783
11494.76,0.032118
11520.3,0.032484
11545.96,0.032879
11571.73,0.033282
11597.62,0.033621
11623.62,0.033874
11649.74,0.034069
11675.98,0.034302
11702.34,0.034563
11728.81,0.034796
11755.41,0.03507
11782.13,0.035386
11808.96,0.035554
11835.92,0.035693
11863.01,0.035667
11890.22,0.03546
11917.55,0.035211
11945.01,0.034995
11972.6,0.035103
12000.31,0.035704
12028.16,0.0366
12056.13,0.037481
12084.23,0.038282
12112.46,0.039025
12140.83,0.039605
12169.33,0.040057
12197.96,0.040549
12226.73,0.040947
12255.64,0.041218
12284.68,0.041428
12313.86,0.041633
12343.18,0.04181
12372.64,0.041987
12402.24,0.042101
12431.98,0.042158
12461.86,0.042289
12491.89,0.04238
12522.07,0.04249
12552.38,0.042519
12582.85,0.042406
12613.47,0.042413
12644.23,0.042396
12675.15,0.042367
12706.21,0.042404
12737.43,0.042505
12768.81,0.042539
12800.33,0.042559
12832.02,0.042522
12863.86,0.042448
12895.86,0.042371
12928.02,0.04225
12960.34,0.042083
12992.82,0.042027
13025.46,0.041958
13058.27,0.041738
13091.25,0.041495
13124.39,0.041403
13157.7,0.041268
13191.18,0.041127
13224.83,0.040901
13258.66,0.04067
13292.65,0.040446
13326.83,0.040352
13361.17,0.040274
13395.7,0.040146
13430.4,0.040006
13465.29,0.039822
13500.35,0.039668
13535.6,0.03954
13571.03,0.039378
13606.65,0.039302
13642.46,0.039178
13678.46,0.039062
13714.64,0.038988
13751.02,0.038716
13787.59,0.038394
13824.36,0.038228
13861.32,0.038072
13898.49,0.03792
13935.85,0.037727
13973.41,0.037475
14011.17,0.037198
14049.15,0.036882
14087.32,0.036599
14125.71,0.036334
14164.3,0.035994
14203.11,0.035704
14242.13,0.035408
14281.36,0.035112
14320.81,0.034785
14360.49,0.034447
14400.38,0.034066
14440.49,0.033661
14480.82,0.03339
14521.39,0.033194
14562.18,0.032882
14603.2,0.032593
14644.45,0.032497
14685.93,0.032426
14727.66,0.032357
14769.62,0.032201
14811.81,0.032136
14854.25,0.032056
14896.94,0.031942
14939.87,0.031933
14983.05,0.032086
15026.48,0.032246
15070.16,0.032325
15114.1,0.032432
15158.29,0.032731
15202.74,0.033013
15247.46,0.033003
15292.43,0.03307
15337.68,0.033269
15383.19,0.033418
15428.97,0.033371
15475.03,0.033221
15521.36,0.033274
15567.97,0.033233
15614.87,0.032901
15662.04,0.032762
15709.5,0.032663
15757.25,0.032426
15805.29,0.032082
15853.62,0.031876
15902.26,0.031663
15951.19,0.031368
16000.42,0.031241
16049.95,0.031174
16099.8,0.031004
16149.95,0.030895
16200.42,0.030841
16251.21,0.030873
16302.31,0.030981
16353.74,0.031105
16405.49,0.031281
16457.57,0.031572
16509.98,0.031748
16562.73,0.031783
16615.82,0.03183
16669.24,0.031924
16723.02,0.032051
16777.14,0.032175
16831.61,0.032067
16886.43,0.03212
16941.62,0.032368
16997.16,0.032405
17053.08,0.032554
17109.36,0.03268
17166.01,0.032743
17223.04,0.032921
17280.45,0.033071
17338.24,0.033069
17396.43,0.032995
17455.0,0.033026
17513.97,0.032956
17573.34,0.032747
17633.11,0.032757
17693.29,0.032706
17753.89,0.032504
17814.9,0.032361
17876.33,0.032145
17938.18,0.031987
18000.47,0.03196
18063.19,0.03203
18126.35,0.032007
18189.95,0.031769
18254.0,0.031657
18318.5,0.031779
18383.46,0.031993
18448.88,0.032165
18514.77,0.032271
18581.13,0.032519
18647.97,0.032612
18715.29,0.032808
18783.1,0.033278
18851.4,0.033643
18920.2,0.033775
18989.51,0.033885
19059.32,0.034142
19129.65,0.034485
19200.5,0.03467
19271.88,0.034694
19343.79,0.034778
19416.24,0.034775
19489.23,0.034681
19562.77,0.034718
19636.88,0.034914
19711.54,0.034921
19786.78,0.03514
19862.59,0.035342
19938.98,0.035514
20015.96,0.035756
20093.55,0.03581
20171.73,0.035961
20250.53,0.036261
20329.94,0.036226
20409.98,0.036093
20490.65,0.036211
20571.96,0.036505
20653.92,0.036535
20736.54,0.03645
20819.82,0.036593
20903.77,0.03689
20988.4,0.037061
21073.72,0.037225
21159.73,0.037662
21246.46,0.038139
21333.89,0.038417
21422.04,0.038606
21510.93,0.038836
21600.56,0.038907
21690.94,0.038904
21782.08,0.039195
21873.99,0.03932
21966.67,0.039534
22060.15,0.039881
22154.42,0.040162
22249.51,0.039859
22345.41,0.039495
22442.14,0.039483
22539.72,0.03991
22638.14,0.040171
22737.43,0.04024
22837.6,0.04007
22938.65,0.040105
23040.6,0.040155
23143.46,0.039764
23247.24,0.039309
23351.96,0.039569
23457.63,0.039099
23564.25,0.038349
23671.85,0.038411
23780.44,0.038957
23890.02,0.039117
24000.63,0.038638
24112.26,0.038393
24224.93,0.038332
24338.66,0.038027
24453.47,0.037686
24569.36,0.037774
24686.36,0.03787
24804.47,0.038338
24923.73,0.03951
25044.13,0.039054
25165.71,0.038525
25288.46,0.039414
25412.43,0.039377
25537.61,0.038758
25664.04,0.039029
25791.72,0.039617
25920.68,0.039942
