Database of Origin,University of Winnipeg Spectrophotometer Facility
Sample Description,Carbonaceous chondrites - RELAB archive 2. CM chondrites
Date Added,2018-07-23 23:44:49.535129

Data ID,RLA_MET_33_13       
Sample ID,Bells
Mineral Name,CM Chondrite
Grain Size,<100 um
Viewing Geometry,30/0
Material Class,CM2

Wavelength
305.0,0.019346
310.0,0.018349
315.0,0.01899
320.0,0.018939
325.0,0.019033
330.0,0.019546
335.0,0.019459
340.0,0.020282
345.0,0.020894
350.0,0.021013
355.0,0.021787
360.0,0.022662
365.0,0.023265
370.0,0.024199
375.0,0.025089
380.0,0.026193
385.0,0.027262
390.0,0.028467
395.0,0.029858
400.0,0.030774
405.0,0.03165
410.0,0.033096
415.0,0.034175
420.0,0.035268
425.0,0.036626
430.0,0.037908
435.0,0.039216
440.0,0.040368
445.0,0.041618
450.0,0.04299
455.0,0.044008
460.0,0.044856
465.0,0.045679
470.0,0.046481
475.0,0.047255
480.0,0.048051
485.0,0.048832
490.0,0.049736
495.0,0.050625
500.0,0.05167
505.0,0.05269
510.0,0.053808
515.0,0.054843
520.0,0.055814
525.0,0.056774
530.0,0.057753
535.0,0.058654
540.0,0.05946
545.0,0.060146
550.0,0.060956
555.0,0.061696
560.0,0.062117
565.0,0.062758
570.0,0.063189
575.0,0.063606
580.0,0.064068
585.0,0.064377
590.0,0.064773
595.0,0.065038
600.0,0.065371
605.0,0.065661
610.0,0.066078
615.0,0.066323
620.0,0.066444
625.0,0.066808
630.0,0.067086
635.0,0.067165
640.0,0.067299
645.0,0.06736
650.0,0.067528
655.0,0.067533
660.0,0.067565
665.0,0.067656
670.0,0.067503
675.0,0.067604
680.0,0.067773
685.0,0.06779
690.0,0.067716
695.0,0.067917
700.0,0.067957
705.0,0.068082
710.0,0.068128
715.0,0.068195
720.0,0.068282
725.0,0.068279
730.0,0.068204
735.0,0.068473
740.0,0.068312
745.0,0.068375
750.0,0.068522
755.0,0.068712
760.0,0.068862
765.0,0.068206
770.0,0.06856
775.0,0.06865
780.0,0.068589
785.0,0.06853
790.0,0.068673
795.0,0.069021
800.0,0.06919
805.0,0.068835
810.0,0.068852
815.0,0.069451
820.0,0.069634
825.0,0.069788
830.0,0.069231
835.0,0.069206
840.0,0.069628
845.0,0.06976
850.0,0.069078
855.0,0.070649
860.0,0.069709
865.0,0.069604
870.0,0.069592
875.0,0.0695
880.0,0.069086
885.0,0.069523
890.0,0.069714
895.0,0.069483
900.0,0.069683
905.0,0.070413
910.0,0.070187
915.0,0.070103
920.0,0.070193
925.0,0.069964
930.0,0.070229
935.0,0.07028
940.0,0.070301
945.0,0.070243
950.0,0.070295
955.0,0.070392
960.0,0.070719
965.0,0.070575
970.0,0.070912
975.0,0.070485
980.0,0.070644
985.0,0.070762
990.0,0.070912
995.0,0.070661
1000.0,0.070959
1005.0,0.071201
1010.0,0.071262
1015.0,0.070875
1020.0,0.070942
1025.0,0.071499
1030.0,0.071488
1035.0,0.071435
1040.0,0.071326
1045.0,0.071601
1050.0,0.071558
1055.0,0.071532
1060.0,0.071597
1065.0,0.071696
1070.0,0.072023
1075.0,0.071977
1080.0,0.072057
1085.0,0.072083
1090.0,0.072149
1095.0,0.072115
1100.0,0.072127
1105.0,0.072529
1110.0,0.072455
1115.0,0.072544
1120.0,0.072394
1125.0,0.072689
1130.0,0.073208
1135.0,0.073127
1140.0,0.072823
1145.0,0.072902
1150.0,0.073169
1155.0,0.073289
1160.0,0.073368
1165.0,0.073635
1170.0,0.073319
1175.0,0.073595
1180.0,0.073616
1185.0,0.073728
1190.0,0.07406
1195.0,0.074003
1200.0,0.073839
1205.0,0.074051
1210.0,0.07402
1215.0,0.074219
1220.0,0.07398
1225.0,0.074118
1230.0,0.074731
1235.0,0.074465
1240.0,0.074452
1245.0,0.074801
1250.0,0.074615
1255.0,0.074873
1260.0,0.075085
1265.0,0.075176
1270.0,0.075175
1275.0,0.074912
1280.0,0.075009
1285.0,0.075424
1290.0,0.07524
1295.0,0.075525
1300.0,0.075588
1305.0,0.07562
1310.0,0.075877
1315.0,0.075792
1320.0,0.075987
1325.0,0.076041
1330.0,0.075999
1335.0,0.076225
1340.0,0.076364
1345.0,0.076162
1350.0,0.07615
1355.0,0.076268
1360.0,0.076197
1365.0,0.076427
1370.0,0.076391
1375.0,0.076954
1380.0,0.07627
1385.0,0.076703
1390.0,0.076861
1395.0,0.076817
1400.0,0.076461
1405.0,0.076795
1410.0,0.076906
1415.0,0.077128
1420.0,0.077328
1425.0,0.077541
1430.0,0.077662
1435.0,0.077795
1440.0,0.077593
1445.0,0.077455
1450.0,0.077817
1455.0,0.078247
1460.0,0.077679
1465.0,0.078149
1470.0,0.078059
1475.0,0.077947
1480.0,0.078048
1485.0,0.078021
1490.0,0.078224
1495.0,0.078288
1500.0,0.078395
1505.0,0.078652
1510.0,0.078682
1515.0,0.078864
1520.0,0.078716
1525.0,0.078813
1530.0,0.078868
1535.0,0.079158
1540.0,0.079223
1545.0,0.079059
1550.0,0.079054
1555.0,0.079231
1560.0,0.07944
1565.0,0.079475
1570.0,0.079504
1575.0,0.07954
1580.0,0.079773
1585.0,0.079225
1590.0,0.079781
1595.0,0.079766
1600.0,0.079599
1605.0,0.079958
1610.0,0.080016
1615.0,0.079963
1620.0,0.07993
1625.0,0.080025
1630.0,0.079999
1635.0,0.080252
1640.0,0.080116
1645.0,0.080435
1650.0,0.080706
1655.0,0.080775
1660.0,0.080532
1665.0,0.080596
1670.0,0.080743
1675.0,0.081029
1680.0,0.08109
1685.0,0.080967
1690.0,0.081048
1695.0,0.08113
1700.0,0.081112
1705.0,0.081237
1710.0,0.081304
1715.0,0.081142
1720.0,0.08129
1725.0,0.081144
1730.0,0.081254
1735.0,0.081224
1740.0,0.08136
1745.0,0.081807
1750.0,0.081391
1755.0,0.081434
1760.0,0.08138
1765.0,0.081552
1770.0,0.081579
1775.0,0.081985
1780.0,0.081671
1785.0,0.082074
1790.0,0.081698
1795.0,0.081967
1800.0,0.082213
1805.0,0.082131
1810.0,0.082012
1815.0,0.082085
1820.0,0.082206
1825.0,0.082184
1830.0,0.082908
1835.0,0.082588
1840.0,0.082092
1845.0,0.082854
1850.0,0.08268
1855.0,0.082705
1860.0,0.082562
1865.0,0.082737
1870.0,0.083307
1875.0,0.083483
1880.0,0.083278
1885.0,0.083416
1890.0,0.083426
1895.0,0.083309
1900.0,0.083186
1905.0,0.08315
1910.0,0.083166
1915.0,0.082801
1920.0,0.082924
1925.0,0.082963
1930.0,0.083192
1935.0,0.083205
1940.0,0.083178
1945.0,0.083382
1950.0,0.083344
1955.0,0.083515
1960.0,0.083341
1965.0,0.083509
1970.0,0.083627
1975.0,0.08362
1980.0,0.08363
1985.0,0.083781
1990.0,0.084009
1995.0,0.084067
2000.0,0.084242
2005.0,0.084179
2010.0,0.084408
2015.0,0.084273
2020.0,0.084449
2025.0,0.084751
2030.0,0.084475
2035.0,0.084811
2040.0,0.084785
2045.0,0.084972
2050.0,0.084716
2055.0,0.085218
2060.0,0.084742
2065.0,0.085111
2070.0,0.084893
2075.0,0.085158
2080.0,0.085006
2085.0,0.085274
2090.0,0.08501
2095.0,0.085378
2100.0,0.085452
2105.0,0.085202
2110.0,0.085273
2115.0,0.085607
2120.0,0.0854
2125.0,0.085578
2130.0,0.08583
2135.0,0.085712
2140.0,0.085486
2145.0,0.085656
2150.0,0.08513
2155.0,0.085651
2160.0,0.085774
2165.0,0.08575
2170.0,0.085693
2175.0,0.085541
2180.0,0.085926
2185.0,0.085934
2190.0,0.086217
2195.0,0.086062
2200.0,0.08616
2205.0,0.08614
2210.0,0.086262
2215.0,0.085957
2220.0,0.086282
2225.0,0.086352
2230.0,0.086402
2235.0,0.086461
2240.0,0.086671
2245.0,0.086415
2250.0,0.086275
2255.0,0.086547
2260.0,0.086515
2265.0,0.086182
2270.0,0.086799
2275.0,0.086585
2280.0,0.086854
2285.0,0.08689
2290.0,0.086608
2295.0,0.08669
2300.0,0.087086
2305.0,0.086897
2310.0,0.086612
2315.0,0.086691
2320.0,0.086889
2325.0,0.086901
2330.0,0.08693
2335.0,0.086649
2340.0,0.086629
2345.0,0.086564
2350.0,0.086371
2355.0,0.086438
2360.0,0.086732
2365.0,0.086448
2370.0,0.086449
2375.0,0.086448
2380.0,0.086288
2385.0,0.086716
2390.0,0.086721
2395.0,0.086509
2400.0,0.086384
2405.0,0.086645
2410.0,0.086591
2415.0,0.086781
2420.0,0.087018
2425.0,0.086909
2430.0,0.086594
2435.0,0.086784
2440.0,0.086557
2445.0,0.086785
2450.0,0.086789
2455.0,0.086415
2460.0,0.086378
2465.0,0.08674
2470.0,0.086431
2475.0,0.086548
2480.0,0.086481
2485.0,0.08638
2490.0,0.086227
2495.0,0.086572
2500.0,0.086525
2505.0,0.086246
2510.0,0.086624
2515.0,0.087138
2520.0,0.087121
2525.0,0.087064
2530.0,0.086822
2535.0,0.086816
2540.0,0.087161
2545.0,0.086996
2550.0,0.086715
2555.0,0.086844
2560.0,0.085927
2565.0,0.086697
2570.0,0.086177
2575.0,0.085989
2580.0,0.08602
2585.0,0.087011
2590.0,0.087113
2595.0,0.08696
2600.0,0.086483
