Database of Origin,University of Winnipeg Spectrophotometer Facility
Sample Description,Carbonaceous chondrites - RELAB archive 8. Lab-heated carbonaceous chondrites
Other Information,Heated Ivuna 200C lamp18G
Date Added,2018-07-23 23:45:04.590456

Data ID,RLA_MET_40_8        
Sample ID,Ivuna
Mineral Name,Ivuna
Viewing Geometry,30/0/ 30
Resolution,5/ 0.6-129 nm
Material Class,CI1

Wavelength
305.0,0.020476
310.0,0.019455
315.0,0.020016
320.0,0.019725
325.0,0.019844
330.0,0.020254
335.0,0.020332
340.0,0.0202
345.0,0.020625
350.0,0.020746
355.0,0.020737
360.0,0.021054
365.0,0.021142
370.0,0.021211
375.0,0.021241
380.0,0.021447
385.0,0.021612
390.0,0.021744
395.0,0.021905
400.0,0.021941
405.0,0.022101
410.0,0.02241
415.0,0.022674
420.0,0.022821
425.0,0.022981
430.0,0.02301
435.0,0.023151
440.0,0.023274
445.0,0.023318
450.0,0.023284
455.0,0.023336
460.0,0.023358
465.0,0.023604
470.0,0.023524
475.0,0.02349
480.0,0.023631
485.0,0.023748
490.0,0.023739
495.0,0.023743
500.0,0.023919
505.0,0.02394
510.0,0.024085
515.0,0.024312
520.0,0.024309
525.0,0.024404
530.0,0.024668
535.0,0.024671
540.0,0.024773
545.0,0.024893
550.0,0.024798
555.0,0.025101
560.0,0.024982
565.0,0.025066
570.0,0.025168
575.0,0.025072
580.0,0.025301
585.0,0.025088
590.0,0.025245
595.0,0.025247
600.0,0.025286
605.0,0.025267
610.0,0.02548
615.0,0.025357
620.0,0.025475
625.0,0.02569
630.0,0.025383
635.0,0.025744
640.0,0.025569
645.0,0.025619
650.0,0.025627
655.0,0.025516
660.0,0.025772
665.0,0.025495
670.0,0.025575
675.0,0.025678
680.0,0.025407
685.0,0.025671
690.0,0.025568
695.0,0.025404
700.0,0.025464
705.0,0.02537
710.0,0.025329
715.0,0.025478
720.0,0.025237
725.0,0.025276
730.0,0.025407
735.0,0.025398
740.0,0.025173
745.0,0.025164
750.0,0.025403
755.0,0.025458
760.0,0.025362
765.0,0.025188
770.0,0.025212
775.0,0.025383
780.0,0.025375
785.0,0.025253
790.0,0.025208
795.0,0.025222
800.0,0.025051
805.0,0.025178
810.0,0.025352
815.0,0.025237
820.0,0.025154
825.0,0.025156
830.0,0.025202
835.0,0.02527
840.0,0.024976
845.0,0.024991
850.0,0.025182
855.0,0.024976
860.0,0.024953
865.0,0.024723
870.0,0.024886
875.0,0.024871
880.0,0.025318
885.0,0.025026
890.0,0.024871
895.0,0.024753
900.0,0.024682
905.0,0.024499
910.0,0.024504
915.0,0.024445
920.0,0.02418
925.0,0.024106
930.0,0.024264
935.0,0.024371
940.0,0.024281
945.0,0.024224
950.0,0.024149
955.0,0.024277
960.0,0.024373
965.0,0.024292
970.0,0.024252
975.0,0.024205
980.0,0.024296
985.0,0.024225
990.0,0.024261
995.0,0.024451
1000.0,0.024405
1005.0,0.024509
1010.0,0.024322
1015.0,0.024301
1020.0,0.02412
1025.0,0.024149
1030.0,0.024383
1035.0,0.024438
1040.0,0.024552
1045.0,0.024528
1050.0,0.024343
1055.0,0.024356
1060.0,0.024505
1065.0,0.024593
1070.0,0.024485
1075.0,0.024245
1080.0,0.023938
1085.0,0.023861
1090.0,0.023985
1095.0,0.024013
1100.0,0.024259
1105.0,0.024348
1110.0,0.024341
1115.0,0.024214
1120.0,0.024092
1125.0,0.024004
1130.0,0.024226
1135.0,0.024196
1140.0,0.024197
1145.0,0.024078
1150.0,0.024119
1155.0,0.024061
1160.0,0.024144
1165.0,0.024239
1170.0,0.024251
1175.0,0.024282
1180.0,0.024345
1185.0,0.024305
1190.0,0.024347
1195.0,0.024329
1200.0,0.024357
1205.0,0.024271
1210.0,0.024427
1215.0,0.02444
1220.0,0.024307
1225.0,0.02435
1230.0,0.024358
1235.0,0.02438
1240.0,0.024376
1245.0,0.024376
1250.0,0.024324
1255.0,0.024337
1260.0,0.024138
1265.0,0.024142
1270.0,0.024096
1275.0,0.024098
1280.0,0.024124
1285.0,0.024125
1290.0,0.024161
1295.0,0.024241
1300.0,0.024367
1305.0,0.024467
1310.0,0.024499
1315.0,0.024401
1320.0,0.024464
1325.0,0.024263
1330.0,0.024299
1335.0,0.024226
1340.0,0.024333
1345.0,0.024395
1350.0,0.024513
1355.0,0.024408
1360.0,0.024419
1365.0,0.024471
1370.0,0.024392
1375.0,0.024454
1380.0,0.024443
1385.0,0.024468
1390.0,0.02441
1395.0,0.024457
1400.0,0.024489
1405.0,0.024618
1410.0,0.024734
1415.0,0.024819
1420.0,0.024869
1425.0,0.024822
1430.0,0.024801
1435.0,0.024788
1440.0,0.024734
1445.0,0.024751
1450.0,0.024866
1455.0,0.024831
1460.0,0.024804
1465.0,0.024804
1470.0,0.024876
1475.0,0.02493
1480.0,0.02499
1485.0,0.025028
1490.0,0.025075
1495.0,0.025187
1500.0,0.025338
1505.0,0.025246
1510.0,0.025359
1515.0,0.025221
1520.0,0.025228
1525.0,0.025278
1530.0,0.025222
1535.0,0.025344
1540.0,0.025445
1545.0,0.02536
1550.0,0.025496
1555.0,0.025414
1560.0,0.025459
1565.0,0.025382
1570.0,0.02545
1575.0,0.025452
1580.0,0.025427
1585.0,0.025575
1590.0,0.02546
1595.0,0.025341
1600.0,0.025379
1605.0,0.025507
1610.0,0.025651
1615.0,0.025676
1620.0,0.025603
1625.0,0.025978
1630.0,0.026015
1635.0,0.026086
1640.0,0.026082
1645.0,0.026095
1650.0,0.026086
1655.0,0.025951
1660.0,0.025972
1665.0,0.026089
1670.0,0.025982
1675.0,0.025959
1680.0,0.02591
1685.0,0.025797
1690.0,0.025835
1695.0,0.025844
1700.0,0.026061
1705.0,0.026137
1710.0,0.026115
1715.0,0.026121
1720.0,0.026195
1725.0,0.026218
1730.0,0.026225
1735.0,0.026248
1740.0,0.026288
1745.0,0.026336
1750.0,0.026295
1755.0,0.026146
1760.0,0.02626
1765.0,0.026325
1770.0,0.026259
1775.0,0.026277
1780.0,0.026304
1785.0,0.026401
1790.0,0.026311
1795.0,0.0264
1800.0,0.026445
1805.0,0.026465
1810.0,0.026341
1815.0,0.026291
1820.0,0.026166
1825.0,0.026154
1830.0,0.026118
1835.0,0.02602
1840.0,0.026002
1845.0,0.025857
1850.0,0.025813
1855.0,0.025769
1860.0,0.025834
1865.0,0.025826
1870.0,0.025839
1875.0,0.026194
1880.0,0.026129
1885.0,0.026243
1890.0,0.026293
1895.0,0.026432
1900.0,0.026607
1905.0,0.026701
1910.0,0.026795
1915.0,0.02675
1920.0,0.026654
1925.0,0.026692
1930.0,0.026606
1935.0,0.026551
1940.0,0.026544
1945.0,0.026453
1950.0,0.026358
1955.0,0.026206
1960.0,0.02617
1965.0,0.026063
1970.0,0.026075
1975.0,0.026064
1980.0,0.025978
1985.0,0.02599
1990.0,0.026067
1995.0,0.026044
2000.0,0.026152
2005.0,0.026268
2010.0,0.026432
2015.0,0.026476
2020.0,0.026528
2025.0,0.026589
2030.0,0.026587
2035.0,0.026744
2040.0,0.026681
2045.0,0.026768
2050.0,0.026714
2055.0,0.026666
2060.0,0.026716
2065.0,0.026697
2070.0,0.026737
2075.0,0.026701
2080.0,0.026709
2085.0,0.026717
2090.0,0.026655
2095.0,0.02672
2100.0,0.026672
2105.0,0.0267
2110.0,0.026684
2115.0,0.026741
2120.0,0.026809
2125.0,0.026836
2130.0,0.026847
2135.0,0.026802
2140.0,0.026733
2145.0,0.026684
2150.0,0.026626
2155.0,0.026598
2160.0,0.026627
2165.0,0.026578
2170.0,0.026558
2175.0,0.026615
2180.0,0.026546
2185.0,0.026509
2190.0,0.026421
2195.0,0.0264
2200.0,0.026365
2205.0,0.026287
2210.0,0.026391
2215.0,0.02638
2220.0,0.026434
2225.0,0.026511
2230.0,0.026551
2235.0,0.026679
2240.0,0.026707
2245.0,0.026778
2250.0,0.026804
2255.0,0.026743
2260.0,0.02687
2265.0,0.026915
2270.0,0.027038
2275.0,0.02715
2280.0,0.027112
2285.0,0.027062
2290.0,0.027119
2295.0,0.027118
2300.0,0.027041
2305.0,0.027039
2310.0,0.026998
2315.0,0.026901
2320.0,0.026801
2325.0,0.026793
2330.0,0.026751
2335.0,0.026796
2340.0,0.026782
2345.0,0.026789
2350.0,0.026696
2355.0,0.026638
2360.0,0.02664
2365.0,0.026594
2370.0,0.026626
2375.0,0.026689
2380.0,0.026626
2385.0,0.026626
2390.0,0.026595
2395.0,0.026562
2400.0,0.026595
2405.0,0.026598
2410.0,0.026724
2415.0,0.026675
2420.0,0.026771
2425.0,0.026806
2430.0,0.026755
2435.0,0.026707
2440.0,0.026758
2445.0,0.026695
2450.0,0.02683
2455.0,0.026898
2460.0,0.026882
2465.0,0.026882
2470.0,0.026786
2475.0,0.02671
2480.0,0.026631
2485.0,0.026629
2490.0,0.026616
2495.0,0.026769
2500.0,0.026714
2502.0,0.026752
2503.2,0.026526
2504.41,0.026284
2505.62,0.026263
2506.83,0.026293
2508.05,0.026512
2509.26,0.026804
2510.48,0.026745
2511.69,0.026607
2512.91,0.026726
2514.13,0.026691
2515.35,0.026631
2516.57,0.026578
2517.79,0.026551
2519.02,0.026539
2520.24,0.026505
2521.47,0.02659
2522.69,0.026678
2523.92,0.026572
2525.15,0.026307
2526.38,0.026197
2527.61,0.026516
2528.85,0.026564
2530.08,0.026318
2531.32,0.026495
2532.55,0.026917
2533.79,0.026978
2535.03,0.026846
2536.27,0.026763
2537.51,0.026741
2538.75,0.026714
2540.0,0.026733
2541.24,0.026612
2542.49,0.026479
2543.74,0.026597
2544.99,0.026675
2546.24,0.026661
2547.49,0.026638
2548.74,0.026727
2549.99,0.026827
2551.25,0.026801
2552.5,0.026547
2553.76,0.026514
2555.02,0.026785
2556.28,0.026869
2557.54,0.026715
2558.8,0.02677
2560.07,0.026964
2561.33,0.026993
2562.6,0.026672
2563.86,0.026462
2565.13,0.026571
2566.4,0.026694
2567.67,0.026763
2568.95,0.026829
2570.22,0.026995
2571.5,0.026975
2572.77,0.026675
2574.05,0.026668
2575.33,0.026913
2576.61,0.026948
2577.89,0.026852
2579.17,0.026964
2580.46,0.026953
2581.74,0.026831
2583.03,0.026817
2584.31,0.026841
2585.6,0.026818
2586.89,0.026809
2588.19,0.026859
2589.48,0.026713
2590.77,0.026869
2592.07,0.026939
2593.36,0.026853
2594.66,0.026933
2595.96,0.027048
2597.26,0.027147
2598.56,0.027246
2599.87,0.027172
2601.17,0.026969
2602.48,0.026964
2603.78,0.027163
2605.09,0.027165
2606.4,0.02695
2607.71,0.026826
2609.03,0.026817
2610.34,0.026961
2611.66,0.026947
2612.97,0.026862
2614.29,0.026772
2615.61,0.026828
2616.93,0.026935
2618.25,0.026808
2619.57,0.026921
2620.9,0.026961
2622.22,0.026814
2623.55,0.026919
2624.88,0.027203
2626.21,0.027317
2627.54,0.027099
2628.87,0.027036
2630.21,0.027127
2631.54,0.027056
2632.88,0.027064
2634.21,0.027279
2635.55,0.02725
2636.89,0.02702
2638.24,0.026854
2639.58,0.02685
2640.92,0.026844
2642.27,0.026938
2643.62,0.027098
2644.97,0.027088
2646.32,0.027087
2647.67,0.026898
2649.02,0.026875
2650.38,0.027017
2651.73,0.026958
2653.09,0.026992
2654.45,0.027111
2655.81,0.027108
2657.17,0.027072
2658.53,0.027038
2659.89,0.027081
2661.26,0.027018
2662.63,0.026937
2664.0,0.026842
2665.36,0.026901
2666.74,0.0269
2668.11,0.026795
2669.48,0.026736
2670.86,0.026851
2672.23,0.026844
2673.61,0.026821
2674.99,0.026754
2676.37,0.026734
2677.76,0.026675
2679.14,0.026635
2680.52,0.026535
2681.91,0.026381
2683.3,0.026246
2684.69,0.02598
2686.08,0.025654
2687.47,0.025402
2688.87,0.024995
2690.26,0.024853
2691.66,0.024914
2693.06,0.024652
2694.46,0.024274
2695.86,0.024133
2697.26,0.023876
2698.66,0.023494
2700.07,0.023214
2701.48,0.02309
2702.89,0.02292
2704.3,0.022609
2705.71,0.02241
2707.12,0.022239
2708.53,0.02218
2709.95,0.022043
2711.37,0.022013
2712.79,0.02208
2714.21,0.022061
2715.63,0.022182
2717.05,0.022114
2718.48,0.022072
2719.9,0.022214
2721.33,0.022335
2722.76,0.022431
2724.19,0.022494
2725.62,0.022379
2727.06,0.022313
2728.49,0.022356
2729.93,0.022348
2731.37,0.022555
2732.81,0.022854
2734.25,0.022919
2735.69,0.022848
2737.14,0.022717
2738.58,0.022921
2740.03,0.023078
2741.48,0.023027
2742.93,0.023022
2744.38,0.023096
2745.83,0.022978
2747.29,0.022848
2748.75,0.022923
2750.2,0.02293
2751.66,0.022771
2753.13,0.022685
2754.59,0.022814
2756.05,0.022968
2757.52,0.022955
2758.99,0.022816
2760.46,0.022783
2761.93,0.022878
2763.4,0.022836
2764.87,0.02275
2766.35,0.022736
2767.82,0.022697
2769.3,0.022744
2770.78,0.02281
2772.26,0.022857
2773.75,0.022793
2775.23,0.02289
2776.72,0.022967
2778.21,0.022833
2779.7,0.022786
2781.19,0.022675
2782.68,0.02272
2784.18,0.022828
2785.67,0.022906
2787.17,0.023016
2788.67,0.02302
2790.17,0.022805
2791.67,0.022706
2793.18,0.02279
2794.68,0.022734
2796.19,0.022741
2797.7,0.022844
2799.21,0.022816
2800.72,0.022757
2802.24,0.022585
2803.75,0.022656
2805.27,0.022734
2806.79,0.022617
2808.31,0.022535
2809.83,0.022712
2811.35,0.022783
2812.88,0.022758
2814.41,0.022742
2815.93,0.022629
2817.46,0.022662
2819.0,0.022771
2820.53,0.022779
2822.07,0.02278
2823.6,0.022822
2825.14,0.022907
2826.68,0.022778
2828.22,0.022572
2829.77,0.022567
2831.31,0.022652
2832.86,0.022719
2834.41,0.022698
2835.96,0.022694
2837.51,0.022876
2839.07,0.022825
2840.62,0.022774
2842.18,0.022825
2843.74,0.022864
2845.3,0.022768
2846.86,0.022662
2848.43,0.022697
2849.99,0.022728
2851.56,0.022776
2853.13,0.022868
2854.7,0.022846
2856.27,0.022888
2857.85,0.022932
2859.42,0.022947
2861.0,0.022861
2862.58,0.022785
2864.16,0.022721
2865.75,0.022793
2867.33,0.022877
2868.92,0.022965
2870.51,0.022908
2872.1,0.022841
2873.69,0.022861
2875.28,0.022826
2876.88,0.02285
2878.48,0.022879
2880.07,0.022716
2881.68,0.022574
2883.28,0.022708
2884.88,0.022812
2886.49,0.02285
2888.1,0.022831
2889.71,0.022821
2891.32,0.022967
2892.93,0.023058
2894.55,0.022989
2896.16,0.022865
2897.78,0.022837
2899.4,0.022912
2901.03,0.022963
2902.65,0.022942
2904.28,0.022997
2905.91,0.022958
2907.54,0.022981
2909.17,0.023116
2910.8,0.023011
2912.44,0.022792
2914.07,0.022848
2915.71,0.022993
2917.35,0.022979
2918.99,0.022964
2920.64,0.022911
2922.29,0.022946
2923.93,0.023056
2925.58,0.023159
2927.24,0.023109
2928.89,0.023068
2930.55,0.023113
2932.2,0.023016
2933.86,0.022901
2935.52,0.022892
2937.19,0.022904
2938.85,0.022907
2940.52,0.022922
2942.19,0.022876
2943.86,0.023095
2945.53,0.023183
2947.21,0.023037
2948.88,0.023046
2950.56,0.023018
2952.24,0.023089
2953.92,0.023094
2955.61,0.023054
2957.29,0.023062
2958.98,0.02304
2960.67,0.023089
2962.36,0.023118
2964.06,0.023084
2965.75,0.023007
2967.45,0.023025
2969.15,0.023185
2970.85,0.023211
2972.55,0.023143
2974.26,0.023195
2975.97,0.023141
2977.68,0.023075
2979.39,0.023111
2981.1,0.023224
2982.82,0.023299
2984.53,0.02326
2986.25,0.023126
2987.97,0.023083
2989.7,0.023122
2991.42,0.023147
2993.15,0.023226
2994.88,0.023247
2996.61,0.02314
2998.34,0.023
3000.08,0.022957
3001.82,0.0231
3003.55,0.023199
3005.3,0.023187
3007.04,0.023276
3008.78,0.023335
3010.53,0.023232
3012.28,0.023076
3014.03,0.023033
3015.79,0.023088
3017.54,0.023107
3019.3,0.023194
3021.06,0.023281
3022.82,0.023292
3024.58,0.023293
3026.35,0.023283
3028.12,0.023284
3029.89,0.023363
3031.66,0.023433
3033.43,0.023414
3035.21,0.023452
3036.99,0.023458
3038.77,0.02335
3040.55,0.023307
3042.33,0.023352
3044.12,0.023357
3045.91,0.023498
3047.7,0.023547
3049.49,0.023453
3051.29,0.023446
3053.08,0.023433
3054.88,0.023428
3056.68,0.023399
3058.49,0.023361
3060.29,0.023526
3062.1,0.023601
3063.91,0.023517
3065.72,0.023401
3067.54,0.023445
3069.35,0.023489
3071.17,0.023494
3072.99,0.023428
3074.81,0.023425
3076.64,0.023589
3078.47,0.023656
3080.29,0.023588
3082.13,0.023577
3083.96,0.023554
3085.79,0.023583
3087.63,0.023623
3089.47,0.023584
3091.31,0.023558
3093.16,0.023438
3095.01,0.023404
3096.85,0.023525
3098.71,0.023613
3100.56,0.023628
3102.41,0.023733
3104.27,0.023786
3106.13,0.023683
3107.99,0.023601
3109.86,0.023698
3111.73,0.02379
3113.59,0.0238
3115.47,0.023794
3117.34,0.023808
3119.21,0.023788
3121.09,0.023772
3122.97,0.023732
3124.86,0.023787
3126.74,0.023893
3128.63,0.023935
3130.52,0.023982
3132.41,0.023982
3134.3,0.023948
3136.2,0.024001
3138.1,0.024084
3140.0,0.024102
3141.9,0.024165
3143.81,0.024197
3145.71,0.024198
3147.62,0.024158
3149.54,0.024145
3151.45,0.02418
3153.37,0.024196
3155.29,0.024182
3157.21,0.024188
3159.13,0.024185
3161.06,0.024232
3162.99,0.024307
3164.92,0.024427
3166.85,0.02444
3168.79,0.024421
3170.72,0.024557
3172.67,0.02451
3174.61,0.024366
3176.55,0.024393
3178.5,0.02451
3180.45,0.024502
3182.4,0.024545
3184.36,0.024641
3186.32,0.02462
3188.27,0.024588
3190.24,0.024602
3192.2,0.024706
3194.17,0.024739
3196.14,0.024751
3198.11,0.024863
3200.08,0.024876
3202.06,0.024784
3204.04,0.024721
3206.02,0.024749
3208.0,0.024821
3209.99,0.024854
3211.98,0.024917
3213.97,0.02484
3215.96,0.024818
3217.96,0.024949
3219.96,0.025035
3221.96,0.025043
3223.96,0.025035
3225.97,0.025015
3227.98,0.024965
3229.99,0.024998
3232.0,0.025018
3234.02,0.025014
3236.04,0.025069
3238.06,0.025137
3240.08,0.025129
3242.11,0.025103
3244.14,0.02516
3246.17,0.025208
3248.2,0.025171
3250.24,0.025186
3252.28,0.025235
3254.32,0.025269
3256.37,0.025171
3258.41,0.025134
3260.46,0.025183
3262.51,0.025254
3264.57,0.025285
3266.63,0.025302
3268.69,0.025356
3270.75,0.025342
3272.81,0.025284
3274.88,0.025328
3276.95,0.025438
3279.02,0.02542
3281.1,0.025464
3283.18,0.025549
3285.26,0.025526
3287.34,0.025541
3289.43,0.025644
3291.51,0.025667
3293.61,0.02568
3295.7,0.025683
3297.8,0.025629
3299.9,0.025623
3302.0,0.025623
3304.1,0.025692
3306.21,0.025789
3308.32,0.025811
3310.43,0.025768
3312.55,0.025726
3314.66,0.025733
3316.79,0.025858
3318.91,0.025955
3321.03,0.025929
3323.16,0.025909
3325.29,0.025856
3327.43,0.025856
3329.57,0.025887
3331.71,0.025909
3333.85,0.025939
3335.99,0.025898
3338.14,0.025885
3340.29,0.025935
3342.45,0.025944
3344.6,0.02588
3346.76,0.025844
3348.92,0.025896
3351.09,0.025891
3353.26,0.025892
3355.43,0.025896
3357.6,0.026034
3359.78,0.026087
3361.96,0.025917
3364.14,0.025801
3366.32,0.025736
3368.51,0.025783
3370.7,0.025809
3372.89,0.025822
3375.09,0.025831
3377.29,0.025836
3379.49,0.025787
3381.69,0.025818
3383.9,0.025866
3386.11,0.025826
3388.32,0.025903
3390.54,0.025965
3392.76,0.026019
3394.98,0.026119
3397.21,0.026172
3399.43,0.026075
3401.66,0.026
3403.9,0.025942
3406.13,0.025926
3408.37,0.025871
3410.61,0.025844
3412.86,0.025874
3415.11,0.025876
3417.36,0.02586
3419.61,0.025858
3421.87,0.025904
3424.13,0.02589
3426.39,0.025949
3428.66,0.026007
3430.93,0.02615
3433.2,0.026321
3435.48,0.026416
3437.76,0.026463
3440.04,0.026418
3442.32,0.026381
3444.61,0.026417
3446.9,0.02655
3449.19,0.026681
3451.49,0.02673
3453.79,0.026722
3456.09,0.026671
3458.4,0.026602
3460.7,0.026631
3463.02,0.026696
3465.33,0.02675
3467.65,0.026834
3469.97,0.026818
3472.29,0.026761
3474.62,0.026832
3476.95,0.026904
3479.29,0.026892
3481.62,0.02684
3483.96,0.026812
3486.3,0.026791
3488.65,0.026849
3491.0,0.026954
3493.35,0.026937
3495.71,0.026893
3498.07,0.026944
3500.43,0.026918
3502.79,0.026872
3505.16,0.026954
3507.53,0.027021
3509.91,0.027093
3512.29,0.027196
3514.67,0.027269
3517.05,0.027349
3519.44,0.027431
3521.83,0.027486
3524.23,0.027559
3526.62,0.02765
3529.02,0.027695
3531.43,0.027738
3533.83,0.02771
3536.24,0.02775
3538.66,0.027766
3541.08,0.027802
3543.5,0.027859
3545.92,0.027907
3548.35,0.027884
3550.78,0.027882
3553.21,0.027887
3555.65,0.027955
3558.09,0.028013
3560.53,0.028034
3562.98,0.028107
3565.43,0.028102
3567.88,0.028044
3570.34,0.028111
3572.8,0.02819
3575.27,0.028137
3577.73,0.028126
3580.2,0.028198
3582.68,0.028249
3585.16,0.028279
3587.64,0.028296
3590.12,0.028224
3592.61,0.028208
3595.1,0.028317
3597.6,0.028353
3600.09,0.028386
3602.6,0.028409
3605.1,0.028435
3607.61,0.028447
3610.12,0.028458
3612.64,0.028417
3615.16,0.028399
3617.68,0.028452
3620.21,0.028465
3622.74,0.028551
3625.27,0.02861
3627.81,0.02851
3630.35,0.028524
3632.89,0.028624
3635.44,0.028655
3637.99,0.028662
3640.54,0.02867
3643.1,0.028704
3645.66,0.028728
3648.23,0.028675
3650.8,0.028717
3653.37,0.028775
3655.95,0.028775
3658.53,0.028844
3661.11,0.028799
3663.7,0.028828
3666.29,0.028851
3668.89,0.028817
3671.48,0.028798
3674.09,0.028804
3676.69,0.028859
3679.3,0.028884
3681.91,0.028928
3684.53,0.028969
3687.15,0.028983
3689.78,0.028946
3692.4,0.028931
3695.04,0.028997
3697.67,0.029013
3700.31,0.029015
3702.95,0.029059
3705.6,0.029181
3708.25,0.02918
3710.91,0.029142
3713.56,0.0291
3716.23,0.029119
3718.89,0.029255
3721.56,0.029356
3724.23,0.029329
3726.91,0.029292
3729.59,0.029264
3732.28,0.029289
3734.97,0.0293
3737.66,0.029341
3740.36,0.029357
3743.06,0.029345
3745.76,0.029412
3748.47,0.029402
3751.18,0.029391
3753.9,0.029444
3756.62,0.029457
3759.34,0.029432
3762.07,0.02941
3764.8,0.029418
3767.54,0.029417
3770.28,0.029459
3773.02,0.0295
3775.77,0.029548
3778.52,0.029598
3781.28,0.029573
3784.04,0.029563
3786.8,0.029608
3789.57,0.029593
3792.34,0.029604
3795.12,0.029587
3797.9,0.029552
3800.69,0.029609
3803.47,0.029609
3806.27,0.029578
3809.06,0.029617
3811.86,0.02966
3814.67,0.02974
3817.48,0.029719
3820.29,0.0297
3823.11,0.029769
3825.93,0.029764
3828.76,0.029712
3831.59,0.029709
3834.42,0.029698
3837.26,0.029722
3840.1,0.02973
3842.95,0.029752
3845.8,0.029801
3848.65,0.029834
3851.51,0.029779
3854.38,0.02976
3857.24,0.029786
3860.12,0.029853
3862.99,0.029848
3865.87,0.029801
3868.76,0.029771
3871.65,0.029786
3874.54,0.029861
3877.44,0.029896
3880.34,0.029848
3883.25,0.029883
3886.16,0.02996
3889.07,0.030022
3891.99,0.030046
3894.92,0.029956
3897.85,0.029893
3900.78,0.029903
3903.72,0.029911
3906.66,0.029932
3909.6,0.030003
3912.55,0.030022
3915.51,0.029944
3918.47,0.029873
3921.43,0.029872
3924.4,0.029951
3927.38,0.029953
3930.35,0.029911
3933.33,0.029964
3936.32,0.030024
3939.31,0.029937
3942.31,0.029941
3945.31,0.030002
3948.31,0.029988
3951.32,0.029999
3954.34,0.030046
3957.35,0.030117
3960.38,0.030165
3963.41,0.030184
3966.44,0.030129
3969.48,0.030089
3972.52,0.030137
3975.56,0.030131
3978.61,0.030191
3981.67,0.030231
3984.73,0.03019
3987.8,0.030162
3990.87,0.0302
3993.94,0.030249
3997.02,0.030308
4000.1,0.030349
4003.19,0.030347
4006.29,0.03043
4009.39,0.030506
4012.49,0.030552
4015.6,0.030536
4018.71,0.030497
4021.83,0.030478
4024.95,0.03053
4028.08,0.030514
4031.21,0.030464
4034.35,0.030465
4037.49,0.030492
4040.64,0.03047
4043.79,0.030495
4046.94,0.030567
4050.11,0.030598
4053.27,0.030588
4056.44,0.030561
4059.62,0.030577
4062.8,0.030604
4065.99,0.030602
4069.18,0.030603
4072.38,0.030593
4075.58,0.030575
4078.78,0.030542
4082.0,0.030526
4085.21,0.030527
4088.43,0.030539
4091.66,0.030543
4094.89,0.030527
4098.13,0.030575
4101.37,0.030605
4104.62,0.030681
4107.87,0.030675
4111.13,0.030657
4114.39,0.030659
4117.66,0.030675
4120.93,0.030649
4124.21,0.030625
4127.5,0.030667
4130.79,0.030707
4134.08,0.030719
4137.38,0.030723
4140.68,0.030703
4143.99,0.030663
4147.31,0.030684
4150.63,0.030704
4153.95,0.030643
4157.29,0.030662
4160.62,0.030719
4163.96,0.030694
4167.31,0.030686
4170.66,0.030708
4174.02,0.03077
4177.39,0.030793
4180.75,0.030739
4184.13,0.030753
4187.51,0.030733
4190.89,0.030718
4194.28,0.030706
4197.68,0.030736
4201.08,0.030753
4204.49,0.030733
4207.9,0.030722
4211.32,0.030673
4214.74,0.030715
4218.17,0.030785
4221.61,0.03081
4225.05,0.030764
4228.5,0.03068
4231.95,0.030629
4235.4,0.030631
4238.87,0.030657
4242.34,0.030696
4245.81,0.030751
4249.29,0.030793
4252.78,0.030818
4256.27,0.030786
4259.77,0.030776
4263.27,0.030795
4266.78,0.03075
4270.29,0.030701
4273.81,0.030701
4277.34,0.030724
4280.87,0.030799
4284.41,0.030821
4287.95,0.030815
4291.5,0.030792
4295.06,0.030744
4298.62,0.030787
4302.19,0.030808
4305.76,0.030812
4309.34,0.03085
4312.92,0.030854
4316.52,0.030864
4320.11,0.030872
4323.72,0.03083
4327.32,0.030833
4330.94,0.030845
4334.56,0.03085
4338.19,0.030913
4341.82,0.030953
4345.46,0.030914
4349.11,0.030857
4352.76,0.030846
4356.42,0.030929
4360.08,0.030983
4363.75,0.030941
4367.43,0.03089
4371.11,0.030853
4374.8,0.030872
4378.49,0.030895
4382.19,0.030859
4385.9,0.030857
4389.61,0.03088
4393.33,0.030885
4397.06,0.030939
4400.79,0.030933
4404.53,0.03093
4408.28,0.03094
4412.03,0.030886
4415.79,0.030889
4419.55,0.03093
4423.32,0.030964
4427.1,0.030994
4430.88,0.030989
4434.68,0.030928
4438.47,0.030928
4442.28,0.031005
4446.08,0.03102
4449.9,0.030994
4453.72,0.030966
4457.55,0.030957
4461.39,0.031016
4465.23,0.031001
4469.08,0.030952
4472.94,0.030968
4476.8,0.031015
4480.67,0.031031
4484.55,0.030994
4488.43,0.03092
4492.32,0.030923
4496.21,0.030982
4500.12,0.030998
4504.03,0.030974
4507.94,0.030979
4511.87,0.03097
4515.8,0.030958
4519.73,0.030978
4523.68,0.031014
4527.63,0.031048
4531.59,0.031033
4535.55,0.031012
4539.52,0.03098
4543.5,0.030948
4547.49,0.030947
4551.48,0.031015
4555.48,0.031086
4559.49,0.031087
4563.5,0.031079
4567.52,0.031108
4571.55,0.031065
4575.58,0.031035
4579.63,0.031086
4583.67,0.031108
4587.73,0.031091
4591.79,0.031111
4595.86,0.0311
4599.94,0.031057
4604.03,0.031036
4608.12,0.031031
4612.22,0.031069
4616.33,0.031101
4620.44,0.031131
4624.56,0.031113
4628.69,0.031077
4632.83,0.031107
4636.97,0.031135
4641.12,0.031109
4645.28,0.031076
4649.45,0.031055
4653.62,0.031039
4657.8,0.031088
4661.99,0.031174
4666.19,0.031143
4670.39,0.031098
4674.6,0.031078
4678.82,0.031118
4683.05,0.031184
4687.28,0.031177
4691.52,0.031114
4695.77,0.031075
4700.03,0.031129
4704.3,0.031195
4708.57,0.031256
4712.85,0.031243
4717.14,0.03121
4721.43,0.031231
4725.74,0.031276
4730.05,0.031289
4734.37,0.031264
4738.7,0.031223
4743.03,0.031265
4747.38,0.031364
4751.73,0.03138
4756.09,0.031383
4760.45,0.031377
4764.83,0.031329
4769.21,0.031308
4773.6,0.031286
4778.0,0.031268
4782.41,0.031321
4786.83,0.031351
4791.25,0.031318
4795.68,0.031314
4800.13,0.03133
4804.57,0.031329
4809.03,0.031314
4813.5,0.031361
4817.97,0.031376
4822.45,0.031342
4826.94,0.031342
4831.44,0.031382
4835.95,0.031433
4840.46,0.031442
4844.99,0.031443
4849.52,0.031484
4854.06,0.031461
4858.61,0.031406
4863.17,0.031419
4867.73,0.031473
4872.31,0.031467
4876.89,0.031443
4881.48,0.031397
4886.08,0.031403
4890.69,0.03144
4895.31,0.031435
4899.94,0.031408
4904.57,0.03145
4909.22,0.031475
4913.87,0.031504
4918.53,0.031562
4923.21,0.031532
4927.88,0.031493
4932.57,0.031505
4937.27,0.031522
4941.98,0.031498
4946.69,0.031458
4951.42,0.031482
4956.15,0.031567
4960.9,0.03162
4965.65,0.031645
4970.41,0.031612
4975.18,0.031554
4979.96,0.031558
4984.75,0.031606
4989.54,0.031639
4994.35,0.0316
4999.17,0.031609
5003.99,0.031613
5008.83,0.031572
5013.67,0.031568
5018.52,0.031617
5023.39,0.031653
5028.26,0.031661
5033.14,0.03166
5038.03,0.031667
5042.93,0.031658
5047.84,0.031653
5052.76,0.031657
5057.69,0.031636
5062.63,0.031582
5067.58,0.0316
5072.54,0.031627
5077.51,0.031614
5082.49,0.031636
5087.47,0.031655
5092.47,0.03163
5097.48,0.031602
5102.5,0.031616
5107.52,0.031594
5112.56,0.031596
5117.61,0.031612
5122.66,0.031614
5127.73,0.031671
5132.81,0.031686
5137.89,0.031612
5142.99,0.031545
5148.1,0.031545
5153.22,0.031527
5158.34,0.031551
5163.48,0.031606
5168.63,0.031611
5173.79,0.031585
5178.96,0.031563
5184.13,0.031538
5189.32,0.031542
5194.52,0.031575
5199.73,0.031586
5204.96,0.031495
5210.19,0.031469
5215.43,0.03152
5220.68,0.031507
5225.94,0.031523
5231.22,0.031586
5236.5,0.031586
5241.79,0.03154
5247.1,0.031518
5252.42,0.031475
5257.74,0.031398
5263.08,0.03143
5268.43,0.031484
5273.79,0.031515
5279.16,0.031513
5284.54,0.031503
5289.93,0.031471
5295.34,0.031449
5300.75,0.031449
5306.18,0.031482
5311.61,0.031501
5317.06,0.031528
5322.52,0.031529
5327.99,0.031512
5333.47,0.031482
5338.96,0.031487
5344.47,0.031507
5349.98,0.031449
5355.51,0.03139
5361.05,0.031426
5366.6,0.031484
5372.16,0.031473
5377.73,0.031432
5383.32,0.031404
5388.91,0.031402
5394.52,0.031377
5400.14,0.031358
5405.77,0.03137
5411.41,0.031337
5417.07,0.031298
5422.74,0.031313
5428.41,0.031304
5434.1,0.031279
5439.81,0.031336
5445.52,0.031373
5451.25,0.031286
5456.98,0.031204
5462.73,0.031196
5468.5,0.031185
5474.27,0.031149
5480.06,0.031123
5485.86,0.03107
5491.67,0.031023
5497.49,0.03105
5503.33,0.031049
5509.18,0.030999
5515.04,0.030982
5520.91,0.031006
5526.8,0.031049
5532.69,0.031046
5538.61,0.031011
5544.53,0.031022
5550.47,0.031006
5556.41,0.030927
5562.38,0.030914
5568.35,0.030945
5574.34,0.030913
5580.34,0.030841
5586.35,0.030817
5592.38,0.030879
5598.42,0.030893
5604.47,0.030827
5610.54,0.030796
5616.61,0.030808
5622.71,0.030786
5628.81,0.030728
5634.93,0.030687
5641.06,0.030694
5647.21,0.030699
5653.36,0.030601
5659.54,0.030548
5665.72,0.030548
5671.92,0.030546
5678.13,0.030513
5684.36,0.030458
5690.6,0.030456
5696.85,0.030399
5703.12,0.030311
5709.4,0.03029
5715.69,0.030239
5722.0,0.03023
5728.33,0.030252
5734.66,0.030224
5741.01,0.030176
5747.38,0.030087
5753.76,0.030044
5760.15,0.03002
5766.56,0.029949
5772.98,0.029866
5779.41,0.029816
5785.86,0.029723
5792.33,0.029606
5798.81,0.029523
5805.3,0.029455
5811.81,0.029369
5818.33,0.029308
5824.87,0.029251
5831.42,0.029121
5837.99,0.029004
5844.57,0.028897
5851.17,0.028807
5857.78,0.028749
5864.41,0.028622
5871.05,0.028544
5877.7,0.028534
5884.38,0.028499
5891.06,0.0284
5897.76,0.02831
5904.48,0.028172
5911.21,0.028072
5917.96,0.027984
5924.73,0.02791
5931.5,0.027867
5938.3,0.027777
5945.11,0.027646
5951.93,0.027558
5958.78,0.027484
5965.63,0.027408
5972.51,0.02734
5979.39,0.027259
5986.3,0.02729
5993.22,0.027317
6000.16,0.027238
6007.11,0.027186
6014.08,0.027203
6021.06,0.027167
6028.06,0.027155
6035.08,0.027166
6042.12,0.027159
6049.17,0.027135
6056.23,0.027099
6063.32,0.027056
6070.42,0.027016
6077.53,0.026998
6084.67,0.02702
6091.82,0.027071
6098.98,0.027078
6106.17,0.027072
6113.37,0.027072
6120.58,0.027088
6127.82,0.027069
6135.07,0.027134
6142.34,0.027195
6149.63,0.02723
6156.93,0.027237
6164.25,0.02727
6171.59,0.027336
6178.95,0.027417
6186.32,0.027488
6193.71,0.027557
6201.12,0.027619
6208.54,0.027636
6215.99,0.027665
6223.45,0.02768
6230.93,0.027683
6238.43,0.027715
6245.95,0.027761
6253.48,0.027837
6261.03,0.027947
6268.6,0.027969
6276.19,0.027979
6283.8,0.028066
6291.43,0.028146
6299.07,0.02822
6306.73,0.028296
6314.42,0.028369
6322.12,0.028414
6329.84,0.028395
6337.57,0.028438
6345.33,0.028548
6353.11,0.028634
6360.9,0.028748
6368.72,0.028827
6376.55,0.028825
6384.4,0.028827
6392.27,0.028864
6400.17,0.028915
6408.08,0.028955
6416.01,0.028954
6423.96,0.028928
6431.93,0.02892
6439.92,0.028898
6447.93,0.028909
6455.96,0.028952
6464.01,0.028993
6472.08,0.029
6480.17,0.029031
6488.28,0.028981
6496.41,0.028912
6504.56,0.028928
6512.73,0.028963
6520.92,0.02897
6529.14,0.028957
6537.37,0.028966
6545.63,0.028982
6553.9,0.028965
6562.2,0.028978
6570.51,0.029011
6578.85,0.029008
6587.21,0.028967
6595.59,0.029009
6603.99,0.029054
6612.42,0.029127
6620.86,0.02915
6629.33,0.029179
6637.82,0.029226
6646.33,0.029252
6654.86,0.029321
6663.41,0.029414
6671.99,0.029381
6680.59,0.02936
6689.21,0.029367
6697.85,0.029341
6706.51,0.029324
6715.2,0.029326
6723.91,0.029326
6732.64,0.029331
6741.4,0.029281
6750.18,0.02927
6758.98,0.029333
6767.8,0.029271
6776.65,0.029163
6785.52,0.0291
6794.41,0.028983
6803.33,0.028807
6812.27,0.028757
6821.23,0.028753
6830.22,0.02869
6839.23,0.028594
6848.26,0.02854
6857.32,0.028498
6866.4,0.028399
6875.51,0.028301
6884.64,0.028277
6893.8,0.028203
6902.98,0.028144
6912.18,0.028123
6921.41,0.028087
6930.66,0.028076
6939.94,0.028032
6949.24,0.028007
6958.57,0.028053
6967.92,0.028025
6977.3,0.027971
6986.7,0.027949
6996.13,0.027957
7005.59,0.027971
7015.07,0.027945
7024.57,0.027884
7034.1,0.027937
7043.66,0.027997
7053.25,0.02799
7062.85,0.027939
7072.49,0.027899
7082.15,0.02794
7091.84,0.028007
7101.55,0.028005
7111.3,0.028004
7121.06,0.028046
7130.86,0.028074
7140.68,0.028099
7150.53,0.028166
7160.41,0.028206
7170.31,0.028277
7180.24,0.028339
7190.2,0.028354
7200.19,0.028374
7210.2,0.028376
7220.24,0.028395
7230.31,0.028447
7240.41,0.028461
7250.54,0.028474
7260.69,0.02849
7270.88,0.02858
7281.09,0.028653
7291.33,0.028626
7301.6,0.02866
7311.9,0.028713
7322.22,0.028767
7332.58,0.028798
7342.97,0.028835
7353.38,0.028881
7363.83,0.028913
7374.3,0.028909
7384.81,0.028957
7395.34,0.028968
7405.91,0.02898
7416.5,0.028997
7427.13,0.028967
7437.78,0.028988
7448.47,0.029009
7459.19,0.028989
7469.94,0.028956
7480.71,0.028931
7491.52,0.028879
7502.37,0.028821
7513.24,0.028816
7524.14,0.028794
7535.08,0.028751
7546.05,0.028735
7557.05,0.028728
7568.08,0.02867
7579.15,0.028611
7590.24,0.028526
7601.37,0.02844
7612.53,0.028413
7623.73,0.028437
7634.96,0.02845
7646.22,0.028425
7657.51,0.028457
7668.84,0.028458
7680.2,0.028471
7691.59,0.028499
7703.02,0.028503
7714.49,0.028468
7725.98,0.02846
7737.52,0.02849
7749.08,0.028474
7760.68,0.028419
7772.32,0.028414
7783.99,0.028402
7795.69,0.028348
7807.43,0.028201
7819.21,0.028127
7831.02,0.028172
7842.87,0.028128
7854.75,0.028038
7866.67,0.02796
7878.62,0.027884
7890.62,0.027849
7902.64,0.027806
7914.71,0.027737
7926.81,0.027653
7938.95,0.027574
7951.13,0.027468
7963.34,0.027396
7975.59,0.027324
7987.88,0.027211
8000.21,0.02709
8012.57,0.026976
8024.98,0.026856
8037.42,0.026749
8049.9,0.026634
8062.42,0.026528
8074.98,0.026392
8087.57,0.026218
8100.21,0.026101
8112.89,0.025946
8125.6,0.02585
8138.36,0.02592
8151.16,0.025921
8163.99,0.025855
8176.87,0.025875
8189.79,0.025914
8202.75,0.025948
8215.75,0.025998
8228.79,0.026042
8241.87,0.026081
8254.99,0.026124
8268.16,0.026165
8281.37,0.026139
8294.62,0.026194
8307.91,0.026301
8321.24,0.026292
8334.62,0.026296
8348.04,0.026391
8361.51,0.026478
8375.02,0.026566
8388.57,0.026604
8402.16,0.026611
8415.8,0.026651
8429.49,0.026663
8443.22,0.026657
8456.99,0.026693
8470.81,0.026747
8484.67,0.026735
8498.58,0.026814
8512.54,0.026917
8526.54,0.026944
8540.58,0.02693
8554.68,0.026919
8568.82,0.026956
8583.0,0.026987
8597.24,0.02699
8611.52,0.027097
8625.85,0.027319
8640.23,0.027373
8654.65,0.02732
8669.12,0.027335
8683.64,0.02734
8698.21,0.027363
8712.83,0.027383
8727.5,0.027337
8742.22,0.027337
8756.99,0.027309
8771.8,0.027312
8786.67,0.027332
8801.59,0.027368
8816.56,0.027485
8831.58,0.027567
8846.65,0.027567
8861.77,0.027654
8876.94,0.027826
8892.17,0.027996
8907.45,0.028208
8922.78,0.028441
8938.16,0.028567
8953.6,0.028687
8969.09,0.028746
8984.64,0.028788
9000.23,0.028894
9015.89,0.029049
9031.59,0.029174
9047.36,0.029353
9063.17,0.02965
9079.05,0.029953
9094.97,0.030284
9110.96,0.030595
9127.0,0.030882
9143.1,0.031237
9159.25,0.031572
9175.46,0.031893
9191.73,0.032288
9208.06,0.032693
9224.44,0.03306
9240.88,0.033447
9257.38,0.033778
9273.94,0.03416
9290.56,0.034562
9307.24,0.035042
9323.98,0.035545
9340.78,0.036119
9357.64,0.036773
9374.57,0.037392
9391.55,0.038045
9408.59,0.038749
9425.7,0.039462
9442.87,0.040081
9460.1,0.040747
9477.4,0.041381
9494.75,0.041997
9512.17,0.042709
9529.66,0.043507
9547.21,0.044194
9564.83,0.044744
9582.5,0.04515
9600.25,0.045553
9618.06,0.046085
9635.94,0.04655
9653.88,0.046944
9671.89,0.047345
9689.97,0.047667
9708.12,0.047977
9726.33,0.048296
9744.62,0.04851
9762.97,0.048703
9781.39,0.048952
9799.88,0.049209
9818.44,0.049317
9837.07,0.049343
9855.77,0.049313
9874.54,0.049222
9893.39,0.049124
9912.3,0.049064
9931.29,0.04893
9950.36,0.048675
9969.49,0.04844
9988.7,0.048212
10007.98,0.047987
10027.34,0.047712
10046.77,0.047405
10066.28,0.047142
10085.87,0.04688
10105.53,0.046595
10125.26,0.046387
10145.08,0.046169
10164.97,0.045952
10184.94,0.045731
10204.99,0.045488
10225.12,0.045265
10245.33,0.045161
10265.61,0.045053
10285.98,0.044849
10306.43,0.04467
10326.96,0.044528
10347.57,0.044411
10368.27,0.044299
10389.05,0.044189
10409.91,0.044066
10430.86,0.043919
10451.88,0.043904
10473.0,0.043921
10494.2,0.044066
10515.49,0.044157
10536.86,0.044181
10558.32,0.044209
10579.87,0.044143
10601.5,0.044067
10623.23,0.04401
10645.04,0.043934
10666.94,0.043798
10688.94,0.0437
10711.02,0.043628
10733.2,0.043575
10755.47,0.043469
10777.83,0.043236
10800.28,0.043025
10822.83,0.042877
10845.47,0.042699
10868.21,0.042493
10891.04,0.04236
10913.97,0.042307
10936.99,0.042188
10960.12,0.042078
10983.34,0.04203
11006.66,0.04209
11030.07,0.042044
11053.59,0.042077
11077.21,0.042253
11100.93,0.042377
11124.75,0.042453
11148.68,0.042615
11172.71,0.042869
11196.84,0.043082
11221.07,0.043328
11245.41,0.043602
11269.86,0.043858
11294.41,0.044007
11319.07,0.044114
11343.84,0.044205
11368.72,0.044312
11393.7,0.044329
11418.8,0.04433
11444.01,0.044316
11469.33,0.044176
11494.76,0.04394
11520.3,0.043654
11545.96,0.043369
11571.73,0.043004
11597.62,0.042666
11623.62,0.042231
11649.74,0.041732
11675.98,0.041366
11702.34,0.041078
11728.81,0.040774
11755.41,0.04039
11782.13,0.040036
11808.96,0.039914
11835.92,0.039697
11863.01,0.039394
11890.22,0.03926
11917.55,0.039239
11945.01,0.039237
11972.6,0.03945
12000.31,0.039533
12028.16,0.039372
12056.13,0.03917
12084.23,0.038974
12112.46,0.038789
12140.83,0.0385
12169.33,0.038253
12197.96,0.038077
12226.73,0.037983
12255.64,0.037944
12284.68,0.037835
12313.86,0.03768
12343.18,0.03742
12372.64,0.037321
12402.24,0.037191
12431.98,0.036915
12461.86,0.036794
12491.89,0.036739
12522.07,0.036557
12552.38,0.03635
12582.85,0.036245
12613.47,0.036238
12644.23,0.036132
12675.15,0.036046
12706.21,0.035946
12737.43,0.035819
12768.81,0.035772
12800.33,0.035629
12832.02,0.035466
12863.86,0.035329
12895.86,0.0353
12928.02,0.035191
12960.34,0.035011
12992.82,0.034904
13025.46,0.034737
13058.27,0.034529
13091.25,0.034462
13124.39,0.034478
13157.7,0.034383
13191.18,0.034337
13224.83,0.034227
13258.66,0.034005
13292.65,0.033867
13326.83,0.033724
13361.17,0.033622
13395.7,0.033578
13430.4,0.033595
13465.29,0.033531
13500.35,0.033355
13535.6,0.033205
13571.03,0.03319
13606.65,0.033099
13642.46,0.032927
13678.46,0.032867
13714.64,0.032916
13751.02,0.032909
13787.59,0.032686
13824.36,0.032714
13861.32,0.032765
13898.49,0.032603
13935.85,0.032505
13973.41,0.032499
14011.17,0.032438
14049.15,0.032406
14087.32,0.032175
14125.71,0.032161
14164.3,0.03222
14203.11,0.032136
14242.13,0.032097
14281.36,0.032027
14320.81,0.03205
14360.49,0.032106
14400.38,0.032203
14440.49,0.032323
14480.82,0.032184
14521.39,0.032173
14562.18,0.032363
14603.2,0.032426
14644.45,0.032488
14685.93,0.032488
14727.66,0.032681
14769.62,0.033022
14811.81,0.033095
14854.25,0.033021
14896.94,0.033062
14939.87,0.033227
14983.05,0.03332
15026.48,0.033336
15070.16,0.033394
15114.1,0.033446
15158.29,0.033511
15202.74,0.033581
15247.46,0.033577
15292.43,0.033524
15337.68,0.033434
15383.19,0.033553
15428.97,0.033714
15475.03,0.033826
15521.36,0.034128
15567.97,0.034163
15614.87,0.03399
15662.04,0.033945
15709.5,0.034058
15757.25,0.034077
15805.29,0.034019
15853.62,0.034091
15902.26,0.034085
15951.19,0.034332
16000.42,0.034497
16049.95,0.034537
16099.8,0.034759
16149.95,0.035121
16200.42,0.035421
16251.21,0.035596
16302.31,0.035787
16353.74,0.036009
16405.49,0.036193
16457.57,0.036329
16509.98,0.036406
16562.73,0.03646
16615.82,0.036484
16669.24,0.036582
16723.02,0.0367
16777.14,0.036674
16831.61,0.036782
16886.43,0.036883
16941.62,0.036865
16997.16,0.036913
17053.08,0.03672
17109.36,0.036665
17166.01,0.036701
17223.04,0.036744
17280.45,0.036516
17338.24,0.036323
17396.43,0.036531
17455.0,0.036701
17513.97,0.03666
17573.34,0.036706
17633.11,0.036943
17693.29,0.036961
17753.89,0.036821
17814.9,0.036954
17876.33,0.037189
17938.18,0.037475
18000.47,0.037676
18063.19,0.037776
18126.35,0.037539
18189.95,0.037429
18254.0,0.037776
18318.5,0.038181
18383.46,0.038349
18448.88,0.038399
18514.77,0.03896
18581.13,0.039566
18647.97,0.039759
18715.29,0.040223
18783.1,0.041078
18851.4,0.041815
18920.2,0.042774
18989.51,0.043665
19059.32,0.044502
19129.65,0.045452
19200.5,0.046264
19271.88,0.046845
19343.79,0.047588
19416.24,0.048702
19489.23,0.049496
19562.77,0.050669
19636.88,0.052167
19711.54,0.053078
19786.78,0.053987
19862.59,0.055342
19938.98,0.056328
20015.96,0.057238
20093.55,0.058591
20171.73,0.059786
20250.53,0.060749
20329.94,0.061657
20409.98,0.0624
20490.65,0.063456
20571.96,0.064757
20653.92,0.065619
20736.54,0.06607
20819.82,0.067304
20903.77,0.068643
20988.4,0.06968
21073.72,0.070886
21159.73,0.07146
21246.46,0.071732
21333.89,0.07177
21422.04,0.072407
21510.93,0.07291
21600.56,0.07263
21690.94,0.071957
21782.08,0.071387
21873.99,0.071382
21966.67,0.071066
22060.15,0.070798
22154.42,0.071295
22249.51,0.071681
22345.41,0.071913
22442.14,0.072017
22539.72,0.072343
22638.14,0.072524
22737.43,0.072295
22837.6,0.07082
22938.65,0.069159
23040.6,0.06834
23143.46,0.067497
23247.24,0.066833
23351.96,0.066293
23457.63,0.065409
23564.25,0.064819
23671.85,0.064502
23780.44,0.064123
23890.02,0.063554
24000.63,0.062784
24112.26,0.063195
24224.93,0.06379
24338.66,0.062941
24453.47,0.062132
24569.36,0.062508
24686.36,0.062133
24804.47,0.06048
24923.73,0.059931
25044.13,0.060802
25165.71,0.061181
25288.46,0.061142
25412.43,0.060519
25537.61,0.060135
25664.04,0.062798
25791.72,0.061847
25920.68,0.05
