Database of Origin,University of Winnipeg Spectrophotometer Facility
Sample Description,Carbonates and Oxolates - RELAB+Nicolet spectra Newly merged spectra (merged by RELAB)
Other Information,dry seived
Date Added,2018-08-06 20:49:03.472606

Data ID,RLA_CARB_1_58       
Sample ID,CRB218
Mineral Name,Artinite
Locality,Rocca di Castellaccio/ Torre di Santa Maria/ Valmalenco/ Sondrio/ Italy
Grain Size,45-90 um
Viewing Geometry,30/0/30
Resolution,5/ 0.6-129 nm
Formula,Mg2(CO3)(OH)2*3(H2O)
Composition,Powdered sample provided.

Wavelength
305.0,0.546997
310.0,0.558964
315.0,0.56954
320.0,0.580509
325.0,0.587026
330.0,0.59507
335.0,0.601463
340.0,0.610479
345.0,0.615967
350.0,0.626373
355.0,0.631185
360.0,0.639318
365.0,0.643128
370.0,0.650189
375.0,0.652756
380.0,0.654677
385.0,0.659146
390.0,0.667325
395.0,0.670779
400.0,0.672064
405.0,0.675921
410.0,0.681297
415.0,0.681771
420.0,0.685266
425.0,0.689511
430.0,0.688026
435.0,0.692728
440.0,0.699557
445.0,0.702603
450.0,0.701068
455.0,0.706177
460.0,0.707132
465.0,0.709446
470.0,0.712565
475.0,0.715855
480.0,0.716812
485.0,0.720648
490.0,0.723042
495.0,0.726849
500.0,0.727256
505.0,0.729711
510.0,0.733779
515.0,0.736228
520.0,0.737352
525.0,0.740245
530.0,0.741153
535.0,0.743361
540.0,0.748443
545.0,0.750868
550.0,0.749999
555.0,0.751553
560.0,0.752588
565.0,0.753477
570.0,0.756977
575.0,0.758518
580.0,0.757343
585.0,0.758927
590.0,0.762247
595.0,0.763903
600.0,0.765552
605.0,0.76654
610.0,0.765056
615.0,0.765763
620.0,0.767005
625.0,0.766403
630.0,0.766805
635.0,0.765834
640.0,0.763906
645.0,0.763468
650.0,0.766356
655.0,0.767241
660.0,0.767644
665.0,0.769643
670.0,0.769776
675.0,0.770058
680.0,0.766668
685.0,0.768153
690.0,0.768339
695.0,0.770738
700.0,0.769146
705.0,0.771215
710.0,0.769093
715.0,0.772474
720.0,0.771298
725.0,0.767052
730.0,0.768508
735.0,0.769546
740.0,0.769028
745.0,0.767739
750.0,0.769208
755.0,0.769459
760.0,0.770763
765.0,0.770331
770.0,0.770384
775.0,0.76983
780.0,0.771219
785.0,0.771709
790.0,0.772173
795.0,0.771054
800.0,0.7699
805.0,0.769682
810.0,0.773072
815.0,0.772753
820.0,0.772515
825.0,0.771644
830.0,0.773
835.0,0.772434
840.0,0.772645
845.0,0.77289
850.0,0.772268
855.0,0.776261
860.0,0.773976
865.0,0.774406
870.0,0.772475
875.0,0.775618
880.0,0.774948
885.0,0.776229
890.0,0.775395
895.0,0.776477
900.0,0.773298
905.0,0.774603
910.0,0.775509
915.0,0.774636
920.0,0.776351
925.0,0.777026
930.0,0.773642
935.0,0.774677
940.0,0.773984
945.0,0.771828
950.0,0.774872
955.0,0.770966
960.0,0.770669
965.0,0.767959
970.0,0.768611
975.0,0.767775
980.0,0.769923
985.0,0.769758
990.0,0.775413
995.0,0.773508
1000.0,0.774701
1005.0,0.771563
1010.0,0.775568
1015.0,0.771891
1020.0,0.774535
1025.0,0.772697
1030.0,0.775774
1035.0,0.774284
1040.0,0.772739
1045.0,0.772076
1050.0,0.770954
1055.0,0.771491
1060.0,0.772094
1065.0,0.77204
1070.0,0.7697
1075.0,0.769785
1080.0,0.769647
1085.0,0.770355
1090.0,0.766959
1095.0,0.766858
1100.0,0.765678
1105.0,0.765337
1110.0,0.764605
1115.0,0.765172
1120.0,0.765795
1125.0,0.767911
1130.0,0.766917
1135.0,0.76537
1140.0,0.762999
1145.0,0.762137
1150.0,0.765882
1155.0,0.764264
1160.0,0.761975
1165.0,0.761212
1170.0,0.760886
1175.0,0.759754
1180.0,0.758912
1185.0,0.757888
1190.0,0.755464
1195.0,0.755827
1200.0,0.75858
1205.0,0.757527
1210.0,0.757437
1215.0,0.759353
1220.0,0.755315
1225.0,0.753696
1230.0,0.752395
1235.0,0.752304
1240.0,0.751294
1245.0,0.749123
1250.0,0.745155
1255.0,0.743086
1260.0,0.740205
1265.0,0.738927
1270.0,0.741912
1275.0,0.739057
1280.0,0.732992
1285.0,0.729242
1290.0,0.7268
1295.0,0.727587
1300.0,0.730462
1305.0,0.732695
1310.0,0.732698
1315.0,0.732681
1320.0,0.732749
1325.0,0.731905
1330.0,0.732794
1335.0,0.73102
1340.0,0.729782
1345.0,0.72828
1350.0,0.727665
1355.0,0.726643
1360.0,0.72503
1365.0,0.722759
1370.0,0.719673
1375.0,0.715135
1380.0,0.708049
1385.0,0.701865
1420.0,0.651471
1425.0,0.62769
1430.0,0.591885
1435.0,0.632018
1440.0,0.659935
1445.0,0.66726
1450.0,0.671127
1455.0,0.67133
1460.0,0.671536
1465.0,0.670287
1470.0,0.667814
1475.0,0.664953
1480.0,0.661749
1485.0,0.658067
1490.0,0.654324
1495.0,0.649718
1500.0,0.644612
1505.0,0.639241
1510.0,0.634592
1515.0,0.629142
1520.0,0.624068
1525.0,0.620647
1530.0,0.615864
1535.0,0.61177
1540.0,0.605917
1545.0,0.600604
1550.0,0.593871
1555.0,0.588018
1560.0,0.581838
1565.0,0.57426
1570.0,0.567941
1575.0,0.561678
1580.0,0.555758
1585.0,0.548765
1590.0,0.543207
1595.0,0.537981
1600.0,0.533002
1605.0,0.528371
1610.0,0.523963
1615.0,0.51946
1620.0,0.515573
1625.0,0.511223
1630.0,0.507383
1635.0,0.503492
1640.0,0.500495
1645.0,0.496746
1650.0,0.492715
1655.0,0.488859
1660.0,0.48478
1665.0,0.481592
1670.0,0.477607
1675.0,0.473463
1680.0,0.470328
1685.0,0.466617
1690.0,0.463718
1695.0,0.460325
1700.0,0.457577
1705.31,0.454656
1709.81,0.452512
1715.46,0.449667
1720.02,0.447261
1724.6,0.444861
1730.35,0.441602
1734.98,0.439103
1739.64,0.436484
1745.5,0.432942
1750.21,0.43051
1754.95,0.42784
1759.72,0.42532
1764.51,0.423048
1770.54,0.419961
1775.39,0.417581
1780.27,0.415462
1785.17,0.41333
1790.1,0.41115
1795.06,0.409265
1800.05,0.407169
1805.06,0.405345
1810.1,0.403368
1815.17,0.401529
1820.27,0.399803
1825.4,0.398045
1830.56,0.396328
1834.44,0.39515
1839.65,0.393309
1844.89,0.391302
1850.16,0.389411
1855.45,0.387402
1859.45,0.385639
1864.8,0.383846
1870.18,0.381633
1875.59,0.379495
1879.67,0.377687
1885.14,0.375399
1890.64,0.373292
1894.79,0.371426
1900.34,0.368789
1904.53,0.36667
1910.15,0.363871
1914.38,0.36181
1920.05,0.358797
1924.33,0.356507
1930.06,0.353571
1934.38,0.351834
1940.17,0.349228
1944.54,0.347605
1950.39,0.344981
1954.8,0.342782
1960.72,0.34001
1965.18,0.337621
1969.66,0.335235
1975.66,0.33147
1980.19,0.328604
1984.74,0.326007
1989.31,0.323717
1995.43,0.321772
2000.05,0.320673
2004.69,0.319707
2009.35,0.319289
2015.6,0.318961
2020.32,0.319102
2025.05,0.318676
2029.81,0.318171
2034.59,0.317275
2039.39,0.31575
2044.22,0.313811
2050.69,0.310769
2055.57,0.30816
2060.47,0.305687
2065.39,0.302894
2070.34,0.300255
2075.31,0.297556
2080.31,0.295025
2085.33,0.292623
2090.38,0.290314
2095.45,0.288436
2100.54,0.286846
2105.66,0.285643
2110.8,0.284706
2114.25,0.284201
2119.43,0.28332
2124.65,0.28247
2129.88,0.281342
2135.15,0.28071
2140.44,0.279623
2145.75,0.278667
2149.31,0.278171
2154.67,0.277117
2160.06,0.276463
2165.47,0.276137
2170.91,0.276051
2174.55,0.276182
2180.04,0.276619
2185.55,0.276806
2189.25,0.277086
2194.81,0.277406
2200.4,0.277063
2204.14,0.276652
2209.78,0.275449
2215.44,0.274119
2219.24,0.272833
2224.95,0.271725
2230.7,0.270742
2234.54,0.270175
2240.33,0.269194
2244.21,0.268136
2250.06,0.265529
2255.93,0.261915
2259.87,0.258615
2265.79,0.25137
2269.76,0.24412
2275.74,0.230468
2279.74,0.225971
2285.77,0.230727
2289.81,0.235835
2295.9,0.239486
2299.97,0.239577
2304.06,0.23836
2310.22,0.234528
2314.35,0.233275
2320.56,0.23688
2324.72,0.24129
2331.0,0.246711
2335.2,0.249747
2339.41,0.252126
2345.76,0.254649
2350.02,0.255474
2354.28,0.255355
2360.72,0.254809
2365.03,0.254536
2369.35,0.254345
2375.86,0.253421
2380.23,0.252537
2384.61,0.251492
2389.0,0.250418
2395.63,0.248911
2400.06,0.247392
2404.52,0.246094
2408.98,0.244781
2415.72,0.242507
2420.23,0.240801
2424.76,0.238755
2429.3,0.236346
2433.87,0.234042
2440.74,0.230921
2445.35,0.229125
2449.97,0.226783
2454.61,0.223687
2459.27,0.220009
2463.94,0.216022
2470.99,0.210027
2475.71,0.205819
2480.45,0.202731
2485.2,0.202495
2489.98,0.204265
2494.77,0.205848
2499.58,0.206738
2504.41,0.207253
2509.26,0.207532
2514.13,0.207276
2519.02,0.20664
2523.92,0.204805
2528.85,0.202644
2533.79,0.200178
2541.24,0.195774
2543.74,0.19458
2548.74,0.192635
2553.76,0.19118
2556.28,0.190609
2558.8,0.189917
2561.33,0.18946
2563.86,0.18916
2566.4,0.188884
2568.95,0.188707
2571.5,0.18852
2574.05,0.188284
2576.61,0.187953
2579.17,0.187473
2581.74,0.186925
2584.31,0.186243
2586.89,0.185416
2589.48,0.184431
2592.07,0.183573
2594.66,0.182729
2597.26,0.181819
2599.87,0.18077
2602.48,0.179691
2605.09,0.178713
2607.71,0.177748
2610.34,0.176867
2612.97,0.176074
2615.61,0.175303
2618.25,0.174694
2620.9,0.174075
2623.55,0.173243
2626.21,0.172371
2628.87,0.171496
2631.54,0.170409
2634.22,0.169237
2636.89,0.167808
2639.58,0.166201
2642.27,0.164331
2644.97,0.162299
2647.67,0.160421
2650.38,0.158669
2653.09,0.157115
2655.81,0.155768
2658.53,0.154559
2661.26,0.153539
2664.0,0.152537
2666.74,0.151392
2669.48,0.149665
2672.23,0.147485
2674.99,0.14489
2677.76,0.142023
2680.52,0.138417
2683.3,0.134116
2686.08,0.129561
2688.87,0.125191
2691.66,0.121281
2694.46,0.117601
2697.26,0.113817
2700.07,0.109416
2702.89,0.104173
2705.71,0.099267
2708.53,0.096653
2711.37,0.094928
2714.21,0.092688
2717.05,0.089873
2719.9,0.087078
2722.76,0.084659
2725.62,0.082238
2728.49,0.079815
2731.37,0.077449
2734.25,0.075705
2737.14,0.073991
2740.03,0.072061
2742.93,0.07003
2745.83,0.06757
2748.75,0.064613
2751.66,0.060534
2754.59,0.056341
2757.52,0.054126
2760.46,0.052347
2763.4,0.051522
2766.35,0.05791
2769.3,0.071766
2772.26,0.082519
2775.23,0.084509
2778.21,0.080181
2781.19,0.071527
2784.18,0.062947
2787.17,0.057274
2790.17,0.054392
2793.18,0.053314
2796.19,0.052339
2799.21,0.051639
2802.24,0.052189
2805.27,0.052933
2808.31,0.052908
2811.35,0.052601
2814.41,0.052129
2817.46,0.051562
2820.53,0.050835
2823.6,0.049804
2826.68,0.048634
2829.77,0.047435
2832.86,0.046286
2835.96,0.045162
2839.07,0.044185
2842.18,0.04315
2845.3,0.04187
2848.43,0.0408
2851.56,0.039928
2854.7,0.039225
2857.85,0.038492
2861.0,0.037839
2864.16,0.037278
2867.33,0.03657
2870.51,0.035921
2873.69,0.035402
2876.88,0.034955
2880.07,0.034435
2883.28,0.034088
2886.49,0.0337
2889.71,0.033255
2892.93,0.032698
2896.17,0.032437
2899.4,0.031998
2902.65,0.031555
2905.91,0.031171
2909.17,0.030807
2912.44,0.030388
2915.71,0.030047
2918.99,0.029725
2922.29,0.029345
2925.58,0.028788
2928.89,0.028335
2932.2,0.028146
2935.52,0.028071
2938.85,0.02795
2942.19,0.027537
2945.53,0.026988
2948.88,0.026787
2952.24,0.02672
2955.61,0.02651
2958.98,0.026267
2962.36,0.026194
2965.75,0.026242
2969.15,0.026018
2972.55,0.025798
2975.97,0.025629
2979.39,0.02548
2986.25,0.025253
2989.7,0.02502
2993.15,0.024833
2996.61,0.024601
3000.08,0.024484
3003.55,0.024667
3007.04,0.024675
3010.53,0.024833
3014.03,0.024703
3017.54,0.024395
3021.06,0.024249
3024.58,0.024549
3028.12,0.024808
3031.66,0.024729
3035.21,0.024621
3038.77,0.024619
3042.33,0.024626
3045.91,0.024767
3049.49,0.025041
3053.08,0.025118
3056.68,0.025124
3060.29,0.025372
3063.91,0.025397
3067.54,0.025521
3071.17,0.025702
3074.81,0.025783
3078.47,0.02597
3082.13,0.026194
3085.79,0.026211
3089.47,0.026342
3093.16,0.02666
3096.85,0.027026
3100.56,0.027213
3104.27,0.027624
3107.99,0.027813
3111.73,0.028018
3115.47,0.027954
3119.21,0.028511
3122.97,0.028489
3126.74,0.028646
3130.52,0.028892
3134.3,0.029436
3138.1,0.029382
3141.9,0.029611
3145.71,0.029849
3149.54,0.030373
3153.37,0.030654
3157.21,0.03113
3161.06,0.031305
3164.92,0.031381
3168.79,0.031694
3172.67,0.032161
3176.55,0.032107
3180.45,0.032016
3184.36,0.03257
3188.27,0.032769
3192.2,0.033037
3196.14,0.033445
3200.08,0.033431
3204.04,0.033666
3208.0,0.034072
3211.98,0.034563
3215.96,0.034434
3219.96,0.034362
3223.96,0.035105
3227.98,0.03541
3232.0,0.035719
3236.04,0.0359
3240.08,0.036279
3244.14,0.036696
3248.2,0.036993
3252.28,0.037476
3256.37,0.037739
3260.46,0.038339
3264.57,0.038674
3268.69,0.038598
3272.81,0.039132
3276.95,0.039849
3281.1,0.040047
3285.26,0.04067
3289.43,0.041251
3293.61,0.041747
3297.8,0.042037
3302.0,0.042873
3306.21,0.04336
3310.43,0.04389
3314.66,0.044184
3318.91,0.044394
3323.16,0.044888
3327.43,0.045321
3331.71,0.045874
3335.99,0.0461
3340.29,0.046274
3344.6,0.046425
3348.92,0.046707
3353.26,0.046985
3357.6,0.047157
3361.96,0.047091
3366.32,0.047361
3370.7,0.047371
3375.09,0.047617
3379.49,0.047696
3383.9,0.048002
3388.32,0.047578
3392.76,0.047659
3397.21,0.04807
3401.66,0.048085
3406.13,0.048094
3410.61,0.048183
3415.11,0.048398
3419.61,0.048548
3424.13,0.048627
3428.66,0.04853
3433.2,0.048748
3437.76,0.048581
3442.32,0.048615
3446.9,0.048822
3451.49,0.049041
3456.09,0.048942
3460.7,0.048593
3465.33,0.04884
3469.97,0.049107
3474.62,0.049091
3479.29,0.049189
3483.96,0.049466
3488.65,0.049322
3493.35,0.049436
3498.07,0.049602
3502.79,0.049757
3507.53,0.049737
3512.29,0.049616
3517.05,0.049895
3521.83,0.049866
3526.62,0.049661
3531.43,0.049763
3536.24,0.049891
3541.08,0.049863
3543.5,0.049896
3545.92,0.049896
3548.35,0.049877
3550.78,0.049868
3553.21,0.050027
3555.65,0.050179
3558.09,0.049968
3560.53,0.049975
3562.98,0.050115
3565.43,0.050263
3567.88,0.05033
3570.34,0.050193
3572.8,0.050162
3575.27,0.0502
3577.73,0.050183
3580.2,0.050284
3582.68,0.050447
3585.16,0.050436
3587.64,0.050429
3590.12,0.050557
3592.61,0.050502
3595.1,0.050483
3597.6,0.050694
3600.09,0.050623
3602.6,0.050437
3605.1,0.050485
3607.61,0.050661
3610.12,0.050683
3612.64,0.050544
3615.16,0.050622
3617.68,0.050782
3620.21,0.050839
3622.74,0.0508
3625.27,0.050832
3627.81,0.050809
3630.35,0.05085
3632.89,0.050875
3635.44,0.050845
3637.99,0.05078
3640.54,0.050791
3643.1,0.050872
3645.66,0.05098
3648.23,0.051009
3650.8,0.050987
3653.37,0.050987
3655.95,0.051096
3658.53,0.05114
3661.11,0.051091
3663.7,0.051204
3666.29,0.051312
3668.89,0.051254
3671.48,0.051184
3674.09,0.051316
3676.69,0.051344
3679.3,0.051242
3681.91,0.051282
3684.53,0.051425
3687.15,0.051459
3689.78,0.0514
3692.4,0.051274
3695.04,0.051098
3697.67,0.051272
3700.31,0.051538
3702.95,0.051515
3705.6,0.051326
3708.25,0.051313
3710.91,0.05134
3713.56,0.051394
3716.23,0.051447
3718.89,0.051464
3721.56,0.051535
3724.23,0.051533
3726.91,0.051505
3729.59,0.051632
3732.28,0.051608
3734.97,0.051535
3737.66,0.051454
3740.36,0.051522
3743.06,0.051693
3745.76,0.051688
3748.47,0.051536
3751.18,0.051522
3753.9,0.051579
3756.62,0.051775
3759.34,0.051836
3762.07,0.051775
3764.8,0.051618
3767.54,0.051686
3770.28,0.051766
3773.02,0.051756
3775.77,0.051772
3778.52,0.051737
3781.28,0.051755
3784.04,0.051849
3786.8,0.051962
3789.57,0.052008
3792.34,0.051996
3795.12,0.051995
3797.9,0.051817
3800.69,0.051727
3803.47,0.051793
3806.27,0.051971
3809.06,0.052138
3811.86,0.052041
3814.67,0.051767
3817.48,0.051758
3820.29,0.051926
3823.11,0.052029
3825.93,0.051949
3828.76,0.05187
3831.59,0.051988
3834.42,0.052068
3837.26,0.052042
3840.1,0.052112
3842.95,0.052062
3845.8,0.051981
3848.65,0.05215
3851.51,0.05221
3854.38,0.052169
3857.24,0.052113
3860.12,0.052095
3862.99,0.052275
3865.87,0.052276
3868.76,0.052204
3871.65,0.052245
3874.54,0.052289
3877.44,0.052308
3880.34,0.052364
3883.25,0.052312
3886.16,0.05228
3889.07,0.052291
3891.99,0.052328
3894.92,0.05233
3897.85,0.052364
3900.78,0.0524
3903.72,0.052351
3906.66,0.052328
3909.6,0.052311
3912.55,0.0523
3915.51,0.052238
3918.47,0.052273
3921.43,0.052369
3924.4,0.052452
3927.38,0.052366
3930.35,0.052171
3933.33,0.052032
3936.32,0.052146
3939.31,0.052315
3942.31,0.05225
3945.31,0.052124
3948.31,0.05211
3951.32,0.052231
3954.34,0.052231
3957.35,0.05218
3960.38,0.052204
3963.41,0.052152
3966.44,0.052055
3969.48,0.052024
3972.52,0.052032
3975.56,0.051973
3978.61,0.051875
3981.67,0.051738
3984.73,0.051745
3987.8,0.051894
3990.87,0.051809
3993.94,0.051661
3997.02,0.051672
4000.1,0.051655
4003.19,0.051573
4006.29,0.051537
4009.39,0.051541
4012.49,0.051526
4015.6,0.051504
4018.71,0.051461
4021.83,0.051377
4024.95,0.051348
4028.08,0.051418
4031.21,0.051337
4034.35,0.051205
4037.49,0.051126
4040.64,0.051033
4043.79,0.051073
4046.94,0.051309
4050.11,0.051294
4053.27,0.051229
4056.44,0.051142
4059.62,0.050956
4062.8,0.050946
4065.99,0.050937
4069.18,0.050808
4072.38,0.050838
4075.58,0.050859
4078.78,0.050865
4082.0,0.050812
4085.21,0.050797
4088.43,0.050724
4091.66,0.050674
4094.89,0.050596
4098.13,0.050531
4101.37,0.050509
4104.62,0.050492
4107.87,0.050523
4111.13,0.050468
4114.39,0.050313
4117.66,0.050158
4120.93,0.050166
4124.21,0.050277
4127.5,0.050168
4130.79,0.050078
4134.08,0.050072
4137.38,0.050245
4140.68,0.050429
4143.99,0.0504
4147.31,0.050375
4150.63,0.05053
4153.95,0.050692
4157.29,0.05069
4160.62,0.05073
4163.96,0.051016
4167.31,0.051131
4170.66,0.051175
4174.02,0.051257
4177.39,0.051241
4180.75,0.051347
4184.13,0.051521
4187.51,0.051617
4190.89,0.051694
4194.28,0.051809
4197.68,0.051859
4201.08,0.051908
4204.49,0.051919
4207.9,0.05198
4211.32,0.052183
4214.74,0.05237
4218.17,0.052355
4221.61,0.052384
4225.05,0.052414
4228.5,0.052472
4231.95,0.052699
4235.4,0.052869
4238.87,0.052937
4242.34,0.053029
4245.81,0.053142
4249.29,0.053237
4252.78,0.053191
4256.27,0.053062
4259.77,0.053145
4263.27,0.053299
4266.78,0.053353
4270.29,0.053395
4273.81,0.053508
4277.34,0.053656
4280.87,0.05384
4284.41,0.053969
4287.95,0.054014
4291.5,0.054194
4295.06,0.054284
4298.62,0.054188
4302.19,0.054144
4305.76,0.054261
4309.34,0.054377
4312.92,0.054356
4316.52,0.054382
4320.11,0.054553
4323.72,0.054701
4327.32,0.054704
4330.94,0.054726
4334.56,0.054902
4338.19,0.055086
4341.82,0.055083
4345.46,0.055123
4349.11,0.055256
4352.76,0.055362
4356.42,0.055418
4360.08,0.055468
4363.75,0.055526
4367.43,0.055565
4371.11,0.055588
4374.8,0.055771
4378.49,0.055995
4382.19,0.05603
4385.9,0.056014
4389.61,0.056122
4393.33,0.056307
4397.06,0.056355
4400.79,0.056279
4404.53,0.056157
4408.28,0.056244
4412.03,0.056439
4415.79,0.056546
4419.55,0.05644
4423.32,0.056395
4427.1,0.056465
4430.88,0.056582
4434.68,0.056645
4438.47,0.056718
4442.28,0.056843
4446.08,0.056975
4449.9,0.056991
4453.72,0.057032
4457.55,0.05715
4461.39,0.057249
4465.23,0.057393
4469.08,0.057558
4472.94,0.057754
4476.8,0.058045
4480.67,0.058349
4484.55,0.058463
4488.43,0.058587
4492.32,0.058798
4496.21,0.059041
4500.12,0.059404
4504.03,0.059731
4507.94,0.060066
4511.87,0.06048
4515.8,0.060814
4519.73,0.061133
4523.68,0.06144
4527.63,0.061711
4531.59,0.061961
4535.55,0.062324
4539.52,0.062614
4543.5,0.063002
4547.49,0.06338
4551.48,0.063591
4555.48,0.063908
4559.49,0.064314
4563.5,0.064602
4567.52,0.064828
4571.55,0.065169
4575.58,0.065488
4579.63,0.065841
4583.67,0.066151
4587.73,0.066592
4591.79,0.067023
4595.86,0.067393
4599.94,0.0678
4604.03,0.068072
4608.12,0.068357
4612.22,0.068732
4616.33,0.06908
4620.44,0.069317
4624.56,0.069538
4628.69,0.069827
4632.83,0.070059
4636.97,0.070237
4641.12,0.070549
4645.28,0.07088
4649.45,0.071126
4653.62,0.071383
4657.8,0.071647
4661.99,0.071836
4666.19,0.072009
4670.39,0.072247
4674.6,0.072432
4678.82,0.072624
4683.05,0.072753
4687.28,0.07285
4691.52,0.072925
4695.77,0.073056
4700.03,0.073259
4704.3,0.073411
4708.57,0.073578
4712.85,0.073699
4717.14,0.073833
4721.43,0.074054
4725.74,0.074183
4730.05,0.074321
4734.37,0.074443
4738.7,0.074549
4743.03,0.07461
4747.38,0.074708
4751.73,0.074882
4756.09,0.074971
4760.45,0.075062
4764.83,0.075284
4769.21,0.075507
4773.6,0.075626
4778.0,0.075707
4782.41,0.075825
4786.83,0.075951
4791.25,0.075997
4795.68,0.076036
4800.13,0.076139
4804.57,0.076323
4809.03,0.076516
4813.5,0.076615
4817.97,0.076661
4822.45,0.076715
4826.94,0.07691
4831.44,0.076993
4835.95,0.076967
4840.46,0.077115
4844.99,0.077266
4849.52,0.077329
4854.06,0.077357
4858.61,0.077403
4863.17,0.077513
4867.73,0.077668
4872.31,0.077783
4876.89,0.077813
4881.48,0.077832
4886.08,0.077864
4890.69,0.077891
4895.31,0.077939
4899.94,0.078034
4904.57,0.078131
4909.22,0.078268
4913.87,0.078399
4918.53,0.078424
4923.21,0.078476
4927.88,0.078545
4932.57,0.078555
4937.27,0.078722
4941.98,0.078871
4946.69,0.079035
4951.42,0.079245
4956.15,0.079477
4960.9,0.079668
4965.65,0.079689
4970.41,0.079827
4975.18,0.07999
4979.96,0.080181
4984.75,0.080441
4989.54,0.080676
4994.35,0.080848
4999.17,0.080956
5003.99,0.081023
5008.83,0.081119
5013.67,0.081277
5018.52,0.081421
5023.39,0.08152
5028.26,0.081673
5033.14,0.081793
5038.03,0.081821
5042.93,0.081835
5047.84,0.081926
5052.76,0.082005
5057.69,0.082031
5062.63,0.082023
5067.58,0.082022
5072.54,0.08207
5077.51,0.082091
5082.49,0.08208
5087.47,0.082027
5092.47,0.081946
5097.48,0.081889
5102.5,0.081812
5107.52,0.081796
5112.56,0.081735
5117.61,0.081689
5122.66,0.081628
5127.73,0.081405
5132.81,0.081165
5137.89,0.081071
5142.99,0.080925
5148.1,0.080776
5153.22,0.080716
5158.34,0.080565
5163.48,0.080394
5168.63,0.080214
5173.79,0.080032
5178.96,0.079855
5184.13,0.079668
5189.32,0.07942
5194.52,0.079202
5199.73,0.079109
5204.96,0.07899
5210.19,0.078775
5215.43,0.078599
5220.68,0.078376
5225.94,0.078145
5231.22,0.07803
5236.5,0.077796
5241.79,0.077506
5247.1,0.077279
5252.42,0.076963
5257.74,0.076701
5263.08,0.076497
5268.43,0.076238
5273.79,0.075976
5279.16,0.075759
5284.54,0.075583
5289.93,0.075352
5295.34,0.075103
5300.75,0.074798
5306.18,0.074506
5311.61,0.074222
5317.06,0.073955
5322.52,0.073729
5327.99,0.073472
5333.47,0.073142
5338.96,0.072754
5344.47,0.072432
5349.98,0.072232
5355.51,0.071966
5361.05,0.071641
5366.6,0.071413
5372.16,0.071162
5377.73,0.070843
5383.32,0.070541
5388.91,0.07016
5394.52,0.069799
5400.14,0.069513
5405.77,0.069225
5411.41,0.068911
5417.07,0.068533
5422.74,0.068248
5428.41,0.067983
5434.1,0.067556
5439.81,0.067151
5445.52,0.066749
5451.25,0.066365
5456.98,0.065905
5462.73,0.065497
5468.5,0.065039
5474.27,0.064499
5480.06,0.064027
5485.86,0.063543
5491.67,0.063111
5497.49,0.062614
5503.33,0.062004
5509.18,0.061356
5515.04,0.060617
5520.91,0.059845
5526.8,0.05904
5532.69,0.058153
5538.61,0.057261
5544.53,0.05636
5550.47,0.055414
5556.41,0.054521
5562.38,0.053598
5568.35,0.052937
5574.34,0.052548
5580.34,0.052407
5586.35,0.052405
5592.38,0.052637
5598.42,0.053179
5604.47,0.053737
5610.54,0.054284
5616.61,0.054751
5622.71,0.055179
5628.81,0.055581
5634.93,0.055878
5641.06,0.056029
5647.21,0.056124
5653.36,0.056222
5659.54,0.056262
5665.72,0.056194
5671.92,0.056074
5678.13,0.055954
5684.36,0.055827
5690.6,0.055697
5696.85,0.055501
5703.12,0.055298
5709.4,0.055065
5715.69,0.054696
5722.0,0.054381
5728.33,0.05429
5734.66,0.053999
5741.01,0.053612
5747.38,0.053484
5753.76,0.053313
5760.15,0.052899
5766.56,0.052595
5772.98,0.052194
5779.41,0.051741
5785.86,0.051569
5792.33,0.051313
5798.81,0.050919
5805.3,0.050651
5811.81,0.050392
5818.33,0.050099
5824.87,0.049798
5831.42,0.049423
5837.99,0.049133
5844.57,0.048826
5851.17,0.048539
5857.78,0.048312
5864.41,0.048047
5871.05,0.047753
5877.7,0.04758
5884.38,0.047414
5891.06,0.047056
5897.76,0.047009
5904.48,0.046912
5911.21,0.046599
5917.96,0.046398
5924.73,0.046178
5931.5,0.046065
5938.3,0.04613
5945.11,0.045996
5951.93,0.045691
5958.78,0.04562
5965.63,0.045633
5972.51,0.045645
5979.39,0.045494
5986.3,0.045539
5993.22,0.04556
6000.16,0.045459
6007.11,0.045453
6014.08,0.045528
6021.06,0.045483
6028.06,0.045476
6035.08,0.045504
6042.12,0.045575
6049.17,0.045645
6056.23,0.045535
6063.32,0.045346
6070.42,0.045434
6077.53,0.045449
6084.67,0.045389
6091.82,0.045369
6098.98,0.045382
6106.17,0.045396
6113.37,0.04547
6120.58,0.045301
6127.82,0.045042
6135.07,0.045009
6142.34,0.045029
6149.63,0.045047
6156.93,0.045166
6164.25,0.045099
6171.59,0.044944
6178.95,0.044989
6186.32,0.045208
6193.71,0.045279
6201.12,0.045206
6208.54,0.045306
6215.99,0.045625
6223.45,0.045914
6230.93,0.046206
6238.43,0.04653
6245.95,0.046937
6253.48,0.047492
6261.03,0.048184
6268.6,0.04886
6276.19,0.049646
6283.8,0.05044
6291.43,0.05115
6299.07,0.051746
6306.73,0.052485
6314.42,0.05311
6322.12,0.053485
6329.84,0.053753
6337.57,0.054003
6345.33,0.054056
6353.11,0.053966
6360.9,0.053737
6368.72,0.053506
6376.55,0.053177
6384.4,0.052842
6392.27,0.052602
6400.17,0.052251
6408.08,0.051952
6416.01,0.051737
6423.96,0.051322
6431.93,0.050962
6439.92,0.050652
6447.93,0.050371
6455.96,0.050135
6464.01,0.049803
6472.08,0.049449
6480.17,0.049125
6488.28,0.048796
6496.41,0.048615
6504.56,0.048212
6512.73,0.047839
6520.92,0.047591
6529.14,0.047259
6537.37,0.046929
6545.63,0.046919
6553.9,0.046876
6562.2,0.046709
6570.51,0.046548
6578.85,0.046501
6587.21,0.0463
6595.59,0.046453
6603.99,0.046619
6612.42,0.04676
6620.86,0.046931
6629.33,0.04736
6637.82,0.047877
6646.33,0.04856
6654.86,0.049153
6663.41,0.050016
6671.99,0.051119
6680.59,0.052498
6689.21,0.054034
6697.85,0.055998
6706.51,0.058169
6715.2,0.060796
6723.91,0.063762
6732.64,0.067155
6741.4,0.070753
6750.18,0.074655
6758.98,0.078862
6767.8,0.083334
6776.65,0.087994
6785.52,0.093064
6794.41,0.098168
6803.33,0.103673
6812.27,0.108834
6821.23,0.114067
6830.22,0.119484
6839.23,0.125241
6848.26,0.130484
6857.32,0.13569
6866.4,0.140994
6875.51,0.146838
6884.64,0.15192
6893.8,0.157007
6902.98,0.162048
6912.18,0.167048
6921.41,0.171574
6930.66,0.175702
6939.94,0.179408
6949.24,0.182864
6958.57,0.185674
6967.92,0.18846
6977.3,0.190744
6986.7,0.192322
6996.13,0.19359
7005.59,0.19485
7015.07,0.195552
7024.57,0.196117
7034.1,0.196617
7043.66,0.196883
7053.25,0.196925
7062.85,0.196756
7072.49,0.196018
7082.15,0.195309
7091.84,0.194289
7101.55,0.19304
7111.3,0.191378
7121.06,0.189644
7130.86,0.187632
7140.68,0.185481
7150.53,0.183417
7160.41,0.18192
7170.31,0.18057
7180.24,0.179646
7190.2,0.178691
7200.19,0.177626
7210.2,0.176398
7220.24,0.175033
7230.31,0.173207
7240.41,0.171143
7250.54,0.168871
7260.69,0.166472
7270.88,0.163958
7281.09,0.161367
7291.33,0.158852
7301.6,0.156505
7311.9,0.154223
7322.22,0.151971
7332.58,0.149699
7342.97,0.147404
7353.38,0.145227
7363.83,0.143444
7374.3,0.142088
7384.81,0.141269
7395.34,0.141123
7405.91,0.141714
7416.5,0.14295
7427.13,0.144746
7437.78,0.146752
7448.47,0.148951
7459.19,0.151322
7469.94,0.15383
7480.71,0.156314
7491.52,0.158442
7502.37,0.159954
7513.24,0.16088
7524.14,0.161137
7535.08,0.160816
7546.05,0.159745
7557.05,0.158091
7568.08,0.155776
7579.15,0.152965
7590.24,0.149722
7601.37,0.146325
7612.53,0.142945
7623.73,0.139809
7634.96,0.136892
7646.22,0.134126
7657.51,0.131586
7668.84,0.12935
7680.2,0.127317
7691.59,0.125323
7703.02,0.123445
7714.49,0.121932
7725.98,0.120627
7737.52,0.119379
7749.08,0.118083
7760.68,0.117005
7772.32,0.116069
7783.99,0.115295
7795.69,0.114584
7807.43,0.113832
7819.21,0.113136
7831.02,0.112669
7842.87,0.112164
7854.75,0.111795
7866.67,0.111436
7878.62,0.111038
7890.62,0.11071
7902.64,0.110465
7914.71,0.110278
7926.81,0.110132
7938.95,0.109902
7951.13,0.109662
7963.34,0.109478
7975.59,0.10933
7987.88,0.109197
8000.21,0.109204
8012.57,0.109251
8024.98,0.109149
8037.42,0.109105
8049.9,0.10917
8062.42,0.10931
8074.98,0.109599
8087.57,0.109767
8100.21,0.110022
8112.89,0.110227
8125.6,0.110389
8138.36,0.110519
8151.16,0.110719
8163.99,0.110829
8176.87,0.110966
8189.79,0.111085
8202.75,0.111152
8215.75,0.111298
8228.79,0.111393
8241.87,0.111356
8254.99,0.111329
8268.16,0.111343
8281.37,0.111398
8294.62,0.111427
8307.91,0.111571
8321.24,0.111676
8334.62,0.111664
8348.04,0.111493
8361.51,0.111342
8375.02,0.111313
8388.57,0.111283
8402.16,0.111159
8415.8,0.111001
8429.49,0.110955
8443.22,0.110934
8456.99,0.110791
8470.81,0.110622
8484.67,0.110509
8498.58,0.110613
8512.54,0.110579
8526.54,0.110498
8540.58,0.11053
8554.68,0.110573
8568.82,0.110723
8583.0,0.110768
8597.24,0.110783
8611.52,0.110908
8625.85,0.111073
8640.23,0.111223
8654.65,0.111306
8669.12,0.11139
8683.64,0.111399
8698.21,0.111262
8712.83,0.110959
8727.5,0.110881
8742.22,0.110767
8756.99,0.110519
8771.8,0.110179
8786.67,0.109775
8801.59,0.109314
8816.56,0.108749
8831.58,0.108209
8846.65,0.107634
8861.77,0.106854
8876.94,0.106089
8892.17,0.105213
8907.45,0.104296
8922.78,0.103308
8938.16,0.102107
8953.6,0.100947
8969.09,0.099614
8984.64,0.097948
9000.23,0.095965
9015.89,0.093632
9031.59,0.090983
9047.36,0.087889
9063.17,0.084278
9079.05,0.080118
9094.97,0.075787
9110.96,0.07177
9127.0,0.068967
9143.1,0.068236
9159.25,0.069582
9175.46,0.072439
9191.73,0.07587
9208.06,0.079064
9224.44,0.081807
9240.88,0.083996
9257.38,0.085279
9273.94,0.085678
9290.56,0.085387
9307.24,0.084769
9323.98,0.084457
9340.78,0.083954
9357.64,0.083254
9374.57,0.082472
9391.55,0.081484
9408.59,0.08049
9425.7,0.079348
9442.87,0.078219
9460.1,0.077291
9477.4,0.076394
9494.75,0.075242
9512.17,0.074256
9529.66,0.073372
9547.21,0.072378
9564.83,0.071369
9582.5,0.070528
9600.25,0.069628
9618.06,0.06867
9635.94,0.067771
9653.88,0.06683
9671.89,0.06589
9689.97,0.065088
9708.12,0.064346
9726.33,0.063541
9744.62,0.062757
9762.97,0.06194
9781.39,0.061221
9799.88,0.060638
9818.44,0.059895
9837.07,0.059155
9855.77,0.058579
9874.54,0.058073
9893.39,0.057692
9912.3,0.057417
9931.29,0.057174
9950.36,0.056984
9969.49,0.057089
9988.7,0.057398
10007.98,0.057795
10027.34,0.058346
10046.77,0.059048
10066.28,0.060075
10085.87,0.061159
10105.53,0.062432
10125.26,0.063973
10145.08,0.065558
10164.97,0.06718
10184.94,0.068878
10204.99,0.07058
10225.12,0.072391
10245.33,0.074381
10265.61,0.076389
10285.98,0.078385
10306.43,0.080293
10326.96,0.082296
10347.57,0.084035
10368.27,0.085639
10389.05,0.087226
10409.91,0.088726
10430.86,0.090086
10451.88,0.09108
10473.0,0.091748
10494.2,0.092361
10515.49,0.092659
10536.86,0.092748
10558.32,0.092763
10579.87,0.092678
10601.5,0.092273
10623.23,0.091732
10645.04,0.091205
10666.94,0.090625
10688.94,0.089712
10711.02,0.088638
10733.2,0.087792
10755.47,0.086956
10777.83,0.085763
10800.28,0.084489
10822.83,0.083508
10845.47,0.082567
10868.21,0.081488
10891.04,0.08034
10913.97,0.079307
10936.99,0.078345
10960.12,0.077556
10983.34,0.076933
11006.66,0.076396
11030.07,0.075791
11053.59,0.075307
11077.21,0.074952
11100.93,0.074754
11124.75,0.0744
11148.68,0.073861
11172.71,0.073306
11196.84,0.072889
11221.07,0.072699
11245.41,0.072185
11269.86,0.071468
11294.41,0.07082
11319.07,0.070185
11343.84,0.069554
11368.72,0.068961
11393.7,0.068287
11418.8,0.067824
11444.01,0.0673
11469.33,0.066589
11494.76,0.065843
11520.3,0.065384
11545.96,0.065026
11571.73,0.064519
11597.62,0.064012
11623.62,0.063437
11649.74,0.063239
11675.98,0.063233
11702.34,0.063007
11728.81,0.062848
11755.41,0.06273
11782.13,0.062717
11808.96,0.062764
11835.92,0.062556
11863.01,0.062338
11890.22,0.062374
11917.55,0.062367
11945.01,0.062426
11972.6,0.062528
12000.31,0.062654
12028.16,0.062939
12056.13,0.063133
12084.23,0.063398
12112.46,0.063681
12140.83,0.064121
12169.33,0.064908
12197.96,0.065942
12226.73,0.067016
12255.64,0.068165
12284.68,0.069592
12313.86,0.071027
12343.18,0.072291
12372.64,0.073839
12402.24,0.075484
12431.98,0.077264
12461.86,0.078998
12491.89,0.08071
12522.07,0.082374
12552.38,0.084006
12582.85,0.085637
12613.47,0.087454
12644.23,0.089234
12675.15,0.09099
12706.21,0.09278
12737.43,0.094498
12768.81,0.095777
12800.33,0.097207
12832.02,0.099089
12863.86,0.100628
12895.86,0.101858
12928.02,0.103114
12960.34,0.104154
12992.82,0.104831
13025.46,0.105434
13058.27,0.105596
13091.25,0.105385
13124.39,0.10508
13157.7,0.104508
13191.18,0.103531
13224.83,0.102204
13258.66,0.101039
13292.65,0.099727
13326.83,0.098172
13361.17,0.096651
13395.7,0.095133
13430.4,0.094067
13465.29,0.093568
13500.35,0.093107
13535.6,0.092875
13571.03,0.093262
13606.65,0.0941
13642.46,0.09521
13678.46,0.096098
13714.64,0.097291
13751.02,0.098492
13787.59,0.0996
13824.36,0.10037
13861.32,0.100784
13898.49,0.100576
13935.85,0.099792
13973.41,0.098489
14011.17,0.097067
14049.15,0.095457
14087.32,0.093666
14125.71,0.091822
14164.3,0.090535
14203.11,0.089949
14242.13,0.090246
14281.36,0.091546
14320.81,0.093575
14360.49,0.096047
14400.38,0.098671
14440.49,0.101845
14480.82,0.10546
14521.39,0.109142
14562.18,0.113157
14603.2,0.116994
14644.45,0.120066
14685.93,0.122829
14727.66,0.12533
14769.62,0.126768
14811.81,0.127274
14854.25,0.127105
14896.94,0.126173
14939.87,0.124721
14983.05,0.123182
15026.48,0.121348
15070.16,0.119478
15114.1,0.117769
15158.29,0.11615
15202.74,0.114361
15247.46,0.112652
15292.43,0.111088
15337.68,0.109806
15383.19,0.108427
15428.97,0.107264
15475.03,0.106417
15521.36,0.105618
15567.97,0.104358
15614.87,0.103169
15662.04,0.102591
15709.5,0.102066
15757.25,0.101042
15805.29,0.100144
15853.62,0.099787
15902.26,0.099743
15951.19,0.099471
16000.42,0.099106
16049.95,0.098433
16099.8,0.097799
16149.95,0.097591
16200.42,0.097728
16251.21,0.097612
16302.31,0.097364
16353.74,0.097259
16405.49,0.096922
16457.57,0.096478
16509.98,0.09646
16562.73,0.096005
16615.82,0.095586
16669.24,0.095493
16723.02,0.095001
16777.14,0.094466
16831.61,0.093864
16886.43,0.093552
16941.62,0.093293
16997.16,0.093206
17053.08,0.093428
17109.36,0.092999
17166.01,0.092229
17223.04,0.091895
17280.45,0.092033
17338.24,0.091832
17396.43,0.090985
17455.0,0.090156
17513.97,0.089558
17573.34,0.089014
17633.11,0.088375
17693.29,0.087609
17753.89,0.087105
17814.9,0.086583
17876.33,0.085417
17938.18,0.084214
18000.47,0.083127
18063.19,0.082046
18126.35,0.081199
18189.95,0.080032
18254.0,0.078655
18318.5,0.077992
18383.46,0.078176
18448.88,0.078425
18514.77,0.078813
18581.13,0.079467
18647.97,0.080894
18715.29,0.082628
18783.1,0.084122
18851.4,0.08555
18920.2,0.087449
18989.51,0.089122
19059.32,0.090163
19129.65,0.091295
19200.5,0.091965
19271.88,0.091907
19343.79,0.090875
19416.24,0.089785
19489.23,0.089593
19562.77,0.088816
19636.88,0.087626
19711.54,0.086846
19786.78,0.085255
19862.59,0.083423
19938.98,0.081896
20015.96,0.080507
20093.55,0.078819
20171.73,0.076644
20250.53,0.075181
20329.94,0.074098
20409.98,0.073001
20490.65,0.072471
20571.96,0.072315
20653.92,0.073228
20736.54,0.07461
20819.82,0.076538
20903.77,0.079069
20988.4,0.081567
21073.72,0.084588
21159.73,0.089435
21246.46,0.094818
21333.89,0.099321
21422.04,0.103999
21510.93,0.109584
21600.56,0.115134
21690.94,0.120228
21782.08,0.125378
21873.99,0.130365
21966.67,0.136996
22060.15,0.143433
22154.42,0.149263
22249.51,0.155828
22345.41,0.162328
22442.14,0.168396
22539.72,0.176039
22638.14,0.185507
22737.43,0.195873
22837.6,0.205213
22938.65,0.214406
23040.6,0.2216
23143.46,0.227495
23247.24,0.233754
23351.96,0.23959
23457.63,0.24396
23564.25,0.248875
23671.85,0.252059
23780.44,0.253138
23890.02,0.253074
24000.63,0.255993
24112.26,0.260678
24224.93,0.26317
24338.66,0.264916
24453.47,0.266585
24569.36,0.266686
24686.36,0.267108
24804.47,0.266388
24923.73,0.268925
25044.13,0.26841
25165.71,0.266104
25288.46,0.262518
25412.43,0.259765
25537.61,0.255805
25664.04,0.247536
25791.72,0.235038
25920.68,0.224562
