Database of Origin,University of Winnipeg Spectrophotometer Facility
Sample Description,Carbonaceous chondrites - RELAB archive 8. Lab-heated carbonaceous chondrites
Other Information,Heated Ivuna 400C ncmp18B
Date Added,2018-07-23 23:45:04.431432

Data ID,RLA_MET_40_3        
Sample ID,Ivuna
Mineral Name,Ivuna
Viewing Geometry,30/0/ 30
Resolution,5/ 0.6-129 nm
Material Class,CI1

Wavelength
305.0,0.014514
310.0,0.015623
315.0,0.015442
320.0,0.015298
325.0,0.015353
330.0,0.015007
335.0,0.015347
340.0,0.014853
345.0,0.014828
350.0,0.014897
355.0,0.014846
360.0,0.014796
365.0,0.014904
370.0,0.014777
375.0,0.014814
380.0,0.014878
385.0,0.014894
390.0,0.01502
395.0,0.015059
400.0,0.015207
405.0,0.015338
410.0,0.015399
415.0,0.015428
420.0,0.015552
425.0,0.015754
430.0,0.015849
435.0,0.015863
440.0,0.015952
445.0,0.015997
450.0,0.016091
455.0,0.016106
460.0,0.016199
465.0,0.016226
470.0,0.016286
475.0,0.01639
480.0,0.016636
485.0,0.016719
490.0,0.016706
495.0,0.016641
500.0,0.016784
505.0,0.016877
510.0,0.016896
515.0,0.016933
520.0,0.017085
525.0,0.017159
530.0,0.017204
535.0,0.01737
540.0,0.017486
545.0,0.017693
550.0,0.017589
555.0,0.017614
560.0,0.017681
565.0,0.017734
570.0,0.01777
575.0,0.017822
580.0,0.017853
585.0,0.01788
590.0,0.017908
595.0,0.017941
600.0,0.017982
605.0,0.017995
610.0,0.018036
615.0,0.018062
620.0,0.018076
625.0,0.018085
630.0,0.018101
635.0,0.018134
640.0,0.018168
645.0,0.018206
650.0,0.018152
655.0,0.018178
660.0,0.018121
665.0,0.018181
670.0,0.018
675.0,0.01805
680.0,0.018019
685.0,0.018093
690.0,0.018139
695.0,0.018071
700.0,0.018089
705.0,0.018028
710.0,0.018
715.0,0.018085
720.0,0.018012
725.0,0.018023
730.0,0.017975
735.0,0.018039
740.0,0.017993
745.0,0.018036
750.0,0.018202
755.0,0.018091
760.0,0.018141
765.0,0.018031
770.0,0.018047
775.0,0.018051
780.0,0.017976
785.0,0.01793
790.0,0.018082
795.0,0.017953
800.0,0.018021
805.0,0.018016
810.0,0.018197
815.0,0.017905
820.0,0.017933
825.0,0.017981
830.0,0.017967
835.0,0.018122
840.0,0.018039
845.0,0.017947
850.0,0.018095
855.0,0.017986
860.0,0.018101
865.0,0.018122
870.0,0.01816
875.0,0.018034
880.0,0.018149
885.0,0.018012
890.0,0.018177
895.0,0.018205
900.0,0.01811
905.0,0.018158
910.0,0.017991
915.0,0.018046
920.0,0.018028
925.0,0.017984
930.0,0.017967
935.0,0.018043
940.0,0.017991
945.0,0.018001
950.0,0.017993
955.0,0.017999
960.0,0.017912
965.0,0.01794
970.0,0.017884
975.0,0.017977
980.0,0.018055
985.0,0.018047
990.0,0.017967
995.0,0.018023
1000.0,0.017992
1005.0,0.017995
1010.0,0.017944
1015.0,0.017928
1020.0,0.017946
1025.0,0.018043
1030.0,0.018069
1035.0,0.01816
1040.0,0.018163
1045.0,0.018148
1050.0,0.018218
1055.0,0.018144
1060.0,0.018146
1065.0,0.018109
1070.0,0.018092
1075.0,0.018053
1080.0,0.017985
1085.0,0.018116
1090.0,0.018091
1095.0,0.018079
1100.0,0.018021
1105.0,0.018108
1110.0,0.018026
1115.0,0.018096
1120.0,0.018055
1125.0,0.018055
1130.0,0.018051
1135.0,0.018086
1140.0,0.018113
1145.0,0.018075
1150.0,0.018114
1155.0,0.018118
1160.0,0.018179
1165.0,0.018217
1170.0,0.018217
1175.0,0.018228
1180.0,0.01816
1185.0,0.018236
1190.0,0.018316
1195.0,0.018281
1200.0,0.018325
1205.0,0.018424
1210.0,0.0185
1215.0,0.01845
1220.0,0.018555
1225.0,0.018431
1230.0,0.018426
1235.0,0.01839
1240.0,0.018529
1245.0,0.018461
1250.0,0.01847
1255.0,0.018369
1260.0,0.018334
1265.0,0.018365
1270.0,0.018404
1275.0,0.018387
1280.0,0.018466
1285.0,0.018539
1290.0,0.018507
1295.0,0.018568
1300.0,0.018638
1305.0,0.018671
1310.0,0.018772
1315.0,0.018763
1320.0,0.018686
1325.0,0.018777
1330.0,0.018743
1335.0,0.018784
1340.0,0.018835
1345.0,0.018941
1350.0,0.019029
1355.0,0.018927
1360.0,0.019026
1365.0,0.019023
1370.0,0.018958
1375.0,0.018907
1380.0,0.019047
1385.0,0.018987
1390.0,0.018982
1395.0,0.019057
1400.0,0.019035
1405.0,0.019136
1410.0,0.019007
1415.0,0.019091
1420.0,0.019036
1425.0,0.019093
1430.0,0.019173
1435.0,0.019077
1440.0,0.019091
1445.0,0.019157
1450.0,0.019198
1455.0,0.019178
1460.0,0.019247
1465.0,0.01918
1470.0,0.019054
1475.0,0.01919
1480.0,0.01917
1485.0,0.019211
1490.0,0.019283
1495.0,0.019295
1500.0,0.019342
1505.0,0.019393
1510.0,0.019344
1515.0,0.019428
1520.0,0.019391
1525.0,0.019493
1530.0,0.019465
1535.0,0.019556
1540.0,0.019463
1545.0,0.019366
1550.0,0.019382
1555.0,0.019427
1560.0,0.019305
1565.0,0.019351
1570.0,0.019319
1575.0,0.019388
1580.0,0.019366
1585.0,0.019432
1590.0,0.019478
1595.0,0.019485
1600.0,0.019385
1605.0,0.019404
1610.0,0.019441
1615.0,0.019539
1620.0,0.019499
1625.0,0.019487
1630.0,0.019573
1635.0,0.019547
1640.0,0.019575
1645.0,0.019593
1650.0,0.019677
1655.0,0.01966
1660.0,0.019671
1665.0,0.019699
1670.0,0.019777
1675.0,0.0198
1680.0,0.019772
1685.0,0.019735
1690.0,0.019782
1695.0,0.019756
1700.0,0.019674
1705.0,0.019843
1710.0,0.019731
1715.0,0.01983
1720.0,0.019805
1725.0,0.019769
1730.0,0.01997
1735.0,0.019895
1740.0,0.019816
1745.0,0.019777
1750.0,0.019775
1755.0,0.019806
1760.0,0.019644
1765.0,0.019827
1770.0,0.019764
1775.0,0.019894
1780.0,0.019835
1785.0,0.019906
1790.0,0.019769
1795.0,0.019621
1800.0,0.019612
1805.0,0.01978
1810.0,0.019786
1815.0,0.0198
1820.0,0.019829
1825.0,0.019901
1830.0,0.019883
1835.0,0.019925
1840.0,0.019897
1845.0,0.019989
1850.0,0.019946
1855.0,0.02002
1860.0,0.02
1865.0,0.019973
1870.0,0.020074
1875.0,0.020013
1880.0,0.020001
1885.0,0.019918
1890.0,0.02019
1895.0,0.020199
1900.0,0.020263
1905.0,0.020171
1910.0,0.019927
1915.0,0.020082
1920.0,0.020024
1925.0,0.020078
1930.0,0.020082
1935.0,0.020122
1940.0,0.020196
1945.0,0.020178
1950.0,0.020227
1955.0,0.020209
1960.0,0.020171
1965.0,0.020346
1970.0,0.02019
1975.0,0.020253
1980.0,0.02019
1985.0,0.020137
1990.0,0.020249
1995.0,0.020204
2000.0,0.020208
2005.0,0.020259
2010.0,0.020237
2015.0,0.020209
2020.0,0.020184
2025.0,0.020312
2030.0,0.020269
2035.0,0.020235
2040.0,0.020229
2045.0,0.020184
2050.0,0.020143
2055.0,0.020245
2060.0,0.020281
2065.0,0.02023
2070.0,0.020367
2075.0,0.020496
2080.0,0.020449
2085.0,0.020448
2090.0,0.020318
2095.0,0.020346
2100.0,0.02046
2105.0,0.02036
2110.0,0.020464
2115.0,0.020295
2120.0,0.020469
2125.0,0.020474
2130.0,0.020385
2135.0,0.020432
2140.0,0.020378
2145.0,0.020492
2150.0,0.020464
2155.0,0.020408
2160.0,0.020442
2165.0,0.020535
2170.0,0.020467
2175.0,0.020526
2180.0,0.020438
2185.0,0.02047
2190.0,0.020564
2195.0,0.02046
2200.0,0.020508
2205.0,0.02052
2210.0,0.020629
2215.0,0.020476
2220.0,0.020586
2225.0,0.020548
2230.0,0.020378
2235.0,0.020569
2240.0,0.02038
2245.0,0.020572
2250.0,0.020428
2255.0,0.020655
2260.0,0.020533
2265.0,0.020614
2270.0,0.020584
2275.0,0.020531
2280.0,0.020442
2285.0,0.020513
2290.0,0.020636
2295.0,0.02052
2300.0,0.020621
2305.0,0.020524
2310.0,0.020489
2315.0,0.0205
2320.0,0.020535
2325.0,0.020508
2330.0,0.020543
2335.0,0.020468
2340.0,0.020464
2345.0,0.020481
2350.0,0.020461
2355.0,0.02051
2360.0,0.020635
2365.0,0.020684
2370.0,0.020776
2375.0,0.020697
2380.0,0.020827
2385.0,0.020654
2390.0,0.020677
2395.0,0.020787
2400.0,0.020716
2405.0,0.020813
2410.0,0.020828
2415.0,0.020809
2420.0,0.020797
2425.0,0.020838
2430.0,0.020876
2435.0,0.020773
2440.0,0.020756
2445.0,0.020748
2450.0,0.020715
2455.0,0.02081
2460.0,0.020746
2465.0,0.020691
2470.0,0.020728
2475.0,0.020592
2480.0,0.02082
2485.0,0.020877
2490.0,0.020685
2495.0,0.02069
2500.0,0.020669
2502.0,0.020734
2503.2,0.020801
2504.41,0.020742
2505.62,0.020708
2506.83,0.020765
2508.05,0.020864
2509.26,0.020927
2510.48,0.020913
2511.69,0.020914
2512.91,0.020866
2514.13,0.020862
2515.35,0.020888
2516.57,0.020833
2517.79,0.020819
2519.02,0.020964
2520.24,0.020972
2521.47,0.020966
2522.69,0.021054
2523.92,0.021169
2525.15,0.021143
2526.38,0.020956
2527.61,0.020829
2528.85,0.020885
2530.08,0.020894
2531.32,0.020925
2532.55,0.020977
2533.79,0.020941
2535.03,0.020971
2536.27,0.021013
2537.51,0.020903
2538.75,0.02095
2540.0,0.02101
2541.24,0.020874
2542.49,0.020955
2543.74,0.021202
2544.99,0.021223
2546.24,0.021166
2547.49,0.021153
2548.74,0.021118
2549.99,0.020992
2551.25,0.020967
2552.5,0.021057
2553.76,0.021075
2555.02,0.021026
2556.28,0.020923
2557.54,0.020871
2558.8,0.021068
2560.07,0.021202
2561.33,0.02121
2562.6,0.021157
2563.86,0.021088
2565.13,0.021119
2566.4,0.021194
2567.67,0.021245
2568.95,0.021155
2570.22,0.021071
2571.5,0.021099
2572.77,0.021036
2574.05,0.020966
2575.33,0.021066
2576.61,0.021224
2577.89,0.021285
2579.17,0.02126
2580.46,0.021245
2581.74,0.021222
2583.03,0.021099
2584.31,0.021061
2585.6,0.021093
2586.89,0.021173
2588.19,0.021315
2589.48,0.021263
2590.77,0.021186
2592.07,0.021323
2593.36,0.021425
2594.66,0.021345
2595.96,0.0212
2597.26,0.021261
2598.56,0.021348
2599.87,0.021461
2601.17,0.021566
2602.48,0.021454
2603.78,0.021455
2605.09,0.021384
2606.4,0.021292
2607.71,0.021331
2609.03,0.021363
2610.34,0.021455
2611.66,0.021507
2612.97,0.021415
2614.29,0.021474
2615.61,0.021482
2616.93,0.021429
2618.25,0.021425
2619.57,0.021499
2620.9,0.021513
2622.22,0.021452
2623.55,0.021472
2624.88,0.021493
2626.21,0.021545
2627.54,0.021595
2628.87,0.021606
2630.21,0.021603
2631.54,0.021484
2632.88,0.02154
2634.21,0.021642
2635.55,0.021645
2636.89,0.021608
2638.24,0.021588
2639.58,0.021511
2640.92,0.021518
2642.27,0.021531
2643.62,0.021553
2644.97,0.021578
2646.32,0.02162
2647.67,0.021564
2649.02,0.021453
2650.38,0.021524
2651.73,0.021597
2653.09,0.021615
2654.45,0.021704
2655.81,0.021676
2657.17,0.021504
2658.53,0.021435
2659.89,0.021478
2661.26,0.021459
2662.63,0.021457
2664.0,0.021505
2665.36,0.021669
2666.74,0.021616
2668.11,0.021494
2669.48,0.02158
2670.86,0.021585
2672.23,0.021497
2673.61,0.021506
2674.99,0.021567
2676.37,0.021533
2677.76,0.021426
2679.14,0.021444
2680.52,0.021517
2681.91,0.021513
2683.3,0.021398
2684.69,0.021262
2686.08,0.021188
2687.47,0.021123
2688.87,0.021048
2690.26,0.020965
2691.66,0.020737
2693.06,0.020612
2694.46,0.020545
2695.86,0.020562
2697.26,0.020454
2698.66,0.020218
2700.07,0.020104
2701.48,0.019973
2702.89,0.019804
2704.3,0.019716
2705.71,0.019594
2707.12,0.019502
2708.53,0.019464
2709.95,0.019453
2711.37,0.019489
2712.79,0.019551
2714.21,0.019454
2715.63,0.019337
2717.05,0.019385
2718.48,0.019491
2719.9,0.01948
2721.33,0.019415
2722.76,0.019455
2724.19,0.019622
2725.62,0.019744
2727.06,0.019749
2728.49,0.01981
2729.93,0.019815
2731.37,0.019848
2732.81,0.01987
2734.25,0.019753
2735.69,0.019764
2737.14,0.019848
2738.58,0.019872
2740.03,0.019929
2741.48,0.019983
2742.93,0.019971
2744.38,0.019998
2745.83,0.020049
2747.29,0.020086
2748.75,0.020097
2750.2,0.020154
2751.66,0.020131
2753.13,0.020132
2754.59,0.020152
2756.05,0.020127
2757.52,0.020143
2758.99,0.020169
2760.46,0.02022
2761.93,0.020269
2763.4,0.020283
2764.87,0.020292
2766.35,0.020295
2767.82,0.020318
2769.3,0.020335
2770.78,0.02033
2772.26,0.020294
2773.75,0.020296
2775.23,0.020325
2776.72,0.020394
2778.21,0.020456
2779.7,0.020358
2781.19,0.020298
2782.68,0.020357
2784.18,0.020471
2785.67,0.020466
2787.17,0.020438
2788.67,0.020498
2790.17,0.02044
2791.67,0.020483
2793.18,0.020513
2794.68,0.020403
2796.19,0.02041
2797.7,0.020461
2799.21,0.02041
2800.72,0.020373
2802.24,0.020336
2803.75,0.020174
2805.27,0.02005
2806.79,0.020105
2808.31,0.020152
2809.83,0.020165
2811.35,0.02031
2812.88,0.02044
2814.41,0.020463
2815.93,0.020417
2817.46,0.020395
2819.0,0.02044
2820.53,0.020417
2822.07,0.020346
2823.6,0.020287
2825.14,0.020349
2826.68,0.020438
2828.22,0.020433
2829.77,0.020361
2831.31,0.020319
2832.86,0.020376
2834.41,0.020384
2835.96,0.020415
2837.51,0.0205
2839.07,0.020526
2840.62,0.020468
2842.18,0.020378
2843.74,0.02036
2845.3,0.020377
2846.86,0.020442
2848.43,0.020491
2849.99,0.020433
2851.56,0.020462
2853.13,0.02046
2854.7,0.020388
2856.27,0.02044
2857.85,0.020564
2859.42,0.020626
2861.0,0.020506
2862.58,0.020386
2864.16,0.02043
2865.75,0.020463
2867.33,0.020449
2868.92,0.020399
2870.51,0.020474
2872.1,0.020527
2873.69,0.020512
2875.28,0.020466
2876.88,0.020474
2878.48,0.020484
2880.07,0.020485
2881.68,0.020424
2883.28,0.020448
2884.88,0.020517
2886.49,0.020531
2888.1,0.020541
2889.71,0.020583
2891.32,0.020557
2892.93,0.020554
2894.55,0.020575
2896.16,0.020579
2897.78,0.020559
2899.4,0.020605
2901.03,0.020642
2902.65,0.020673
2904.28,0.020721
2905.91,0.020694
2907.54,0.020653
2909.17,0.020657
2910.8,0.020668
2912.44,0.020675
2914.07,0.020676
2915.71,0.020637
2917.35,0.020625
2918.99,0.020676
2920.64,0.020767
2922.29,0.020818
2923.93,0.020801
2925.58,0.020743
2927.24,0.020744
2928.89,0.020778
2930.55,0.020829
2932.2,0.020892
2933.86,0.020868
2935.52,0.020824
2937.19,0.020807
2938.85,0.020791
2940.52,0.020771
2942.19,0.020787
2943.86,0.020906
2945.53,0.020992
2947.21,0.020899
2948.88,0.020819
2950.56,0.020835
2952.24,0.020838
2953.92,0.020917
2955.61,0.02093
2957.29,0.02093
2958.98,0.020872
2960.67,0.020864
2962.36,0.020904
2964.06,0.02088
2965.75,0.020933
2967.45,0.020949
2969.15,0.020866
2970.85,0.020911
2972.55,0.020986
2974.26,0.020953
2975.97,0.020941
2977.68,0.020947
2979.39,0.021014
2981.1,0.020987
2982.82,0.020937
2984.53,0.021018
2986.25,0.021051
2987.97,0.021009
2989.7,0.021014
2991.42,0.020981
2993.15,0.021043
2994.88,0.021073
2996.61,0.021093
2998.34,0.021148
3000.08,0.02108
3001.82,0.021038
3003.55,0.021133
3005.3,0.021129
3007.04,0.021022
3008.78,0.021037
3010.53,0.021141
3012.28,0.021192
3014.03,0.021118
3015.79,0.021084
3017.54,0.021154
3019.3,0.021198
3021.06,0.021241
3022.82,0.021238
3024.58,0.021144
3026.35,0.021085
3028.12,0.021112
3029.89,0.021177
3031.66,0.021248
3033.43,0.021283
3035.21,0.021205
3036.99,0.021224
3038.77,0.021334
3040.55,0.021362
3042.33,0.021356
3044.12,0.021321
3045.91,0.02127
3047.7,0.021288
3049.49,0.021218
3051.29,0.021209
3053.08,0.021287
3054.88,0.021367
3056.68,0.021377
3058.49,0.021354
3060.29,0.021329
3062.1,0.021389
3063.91,0.021451
3065.72,0.021477
3067.54,0.021501
3069.35,0.021518
3071.17,0.021508
3072.99,0.021479
3074.81,0.021489
3076.64,0.021557
3078.47,0.021611
3080.29,0.021598
3082.13,0.021561
3083.96,0.021587
3085.79,0.021611
3087.63,0.021565
3089.47,0.021619
3091.31,0.021677
3093.16,0.021695
3095.01,0.021789
3096.85,0.021805
3098.71,0.021767
3100.56,0.02183
3102.41,0.021838
3104.27,0.021811
3106.13,0.021815
3107.99,0.021785
3109.86,0.021818
3111.73,0.021912
3113.59,0.021954
3115.47,0.021932
3117.34,0.021936
3119.21,0.021992
3121.09,0.021925
3122.97,0.02189
3124.86,0.022005
3126.74,0.02211
3128.63,0.022154
3130.52,0.022135
3132.41,0.022079
3134.3,0.022101
3136.2,0.02218
3138.1,0.022226
3140.0,0.022166
3141.9,0.022156
3143.81,0.022202
3145.71,0.022212
3147.62,0.02221
3149.54,0.022161
3151.45,0.022222
3153.37,0.022263
3155.29,0.022268
3157.21,0.022271
3159.13,0.022278
3161.06,0.022345
3162.99,0.022352
3164.92,0.022317
3166.85,0.022381
3168.79,0.022466
3170.72,0.022408
3172.67,0.022392
3174.61,0.022396
3176.55,0.022414
3178.5,0.022428
3180.45,0.02244
3182.4,0.02252
3184.36,0.022519
3186.32,0.022483
3188.27,0.022607
3190.24,0.022708
3192.2,0.022703
3194.17,0.022634
3196.14,0.022627
3198.11,0.022658
3200.08,0.022681
3202.06,0.022706
3204.04,0.022662
3206.02,0.022672
3208.0,0.022695
3209.99,0.022714
3211.98,0.022723
3213.97,0.022727
3215.96,0.022743
3217.96,0.022768
3219.96,0.022798
3221.96,0.022815
3223.96,0.022834
3225.97,0.022838
3227.98,0.022802
3229.99,0.022783
3232.0,0.022817
3234.02,0.022865
3236.04,0.022919
3238.06,0.022879
3240.08,0.022857
3242.11,0.022862
3244.14,0.022891
3246.17,0.02295
3248.2,0.022895
3250.24,0.022884
3252.28,0.022902
3254.32,0.022883
3256.37,0.022915
3258.41,0.022951
3260.46,0.022943
3262.51,0.022931
3264.57,0.022962
3266.63,0.022965
3268.69,0.022996
3270.75,0.023042
3272.81,0.022979
3274.88,0.022967
3276.95,0.022957
3279.02,0.02294
3281.1,0.022911
3283.18,0.022902
3285.26,0.022905
3287.34,0.022943
3289.43,0.022902
3291.51,0.022856
3293.61,0.022958
3295.7,0.022964
3297.8,0.022942
3299.9,0.02295
3302.0,0.022957
3304.1,0.02296
3306.21,0.022969
3308.32,0.02299
3310.43,0.023047
3312.55,0.023131
3314.66,0.023128
3316.79,0.023062
3318.91,0.02308
3321.03,0.02316
3323.16,0.023115
3325.29,0.023023
3327.43,0.023069
3329.57,0.023112
3331.71,0.023095
3333.85,0.023104
3335.99,0.023133
3338.14,0.023139
3340.29,0.023158
3342.45,0.023186
3344.6,0.02322
3346.76,0.023234
3348.92,0.02319
3351.09,0.023168
3353.26,0.023199
3355.43,0.023161
3357.6,0.023148
3359.78,0.02318
3361.96,0.023218
3364.14,0.023177
3366.32,0.023099
3368.51,0.023046
3370.7,0.023084
3372.89,0.023121
3375.09,0.023105
3377.29,0.023118
3379.49,0.02316
3381.69,0.023177
3383.9,0.023167
3386.11,0.023148
3388.32,0.023166
3390.54,0.023141
3392.76,0.023072
3394.98,0.023094
3397.21,0.023148
3399.43,0.023156
3401.66,0.023128
3403.9,0.023099
3406.13,0.023082
3408.37,0.023077
3410.61,0.023059
3412.86,0.023075
3415.11,0.023104
3417.36,0.023139
3419.61,0.023092
3421.87,0.023024
3424.13,0.023001
3426.39,0.023025
3428.66,0.02308
3430.93,0.023097
3433.2,0.023079
3435.48,0.023067
3437.76,0.023068
3440.04,0.023068
3442.32,0.023039
3444.61,0.02304
3446.9,0.023118
3449.19,0.023178
3451.49,0.023205
3453.79,0.023223
3456.09,0.023228
3458.4,0.023243
3460.7,0.023246
3463.02,0.023255
3465.33,0.023308
3467.65,0.023321
3469.97,0.023357
3472.29,0.023397
3474.62,0.02338
3476.95,0.023379
3479.29,0.023381
3481.62,0.023347
3483.96,0.023341
3486.3,0.023424
3488.65,0.023507
3491.0,0.023502
3493.35,0.023516
3495.71,0.023518
3498.07,0.023486
3500.43,0.023509
3502.79,0.023549
3505.16,0.023587
3507.53,0.023612
3509.91,0.023616
3512.29,0.023622
3514.67,0.02366
3517.05,0.02368
3519.44,0.023696
3521.83,0.023765
3524.23,0.023867
3526.62,0.023884
3529.02,0.023924
3531.43,0.023941
3533.83,0.023947
3536.24,0.024012
3538.66,0.024026
3541.08,0.024018
3543.5,0.024028
3545.92,0.024068
3548.35,0.024092
3550.78,0.024115
3553.21,0.024185
3555.65,0.024193
3558.09,0.024208
3560.53,0.024236
3562.98,0.024168
3565.43,0.024105
3567.88,0.024151
3570.34,0.024203
3572.8,0.024246
3575.27,0.024298
3577.73,0.024345
3580.2,0.024354
3582.68,0.024339
3585.16,0.024288
3587.64,0.024302
3590.12,0.024343
3592.61,0.024385
3595.1,0.024435
3597.6,0.024491
3600.09,0.024453
3602.6,0.02439
3605.1,0.024399
3607.61,0.024439
3610.12,0.024478
3612.64,0.024496
3615.16,0.024533
3617.68,0.024538
3620.21,0.024518
3622.74,0.024513
3625.27,0.024479
3627.81,0.024457
3630.35,0.024511
3632.89,0.024508
3635.44,0.02453
3637.99,0.024523
3640.54,0.024505
3643.1,0.024543
3645.66,0.024574
3648.23,0.024588
3650.8,0.024617
3653.37,0.024627
3655.95,0.024601
3658.53,0.024623
3661.11,0.024648
3663.7,0.024569
3666.29,0.024593
3668.89,0.024669
3671.48,0.024669
3674.09,0.024702
3676.69,0.024774
3679.3,0.024773
3681.91,0.024787
3684.53,0.024797
3687.15,0.024786
3689.78,0.024777
3692.4,0.024741
3695.04,0.024766
3697.67,0.024852
3700.31,0.024874
3702.95,0.024856
3705.6,0.024827
3708.25,0.024815
3710.91,0.024803
3713.56,0.024797
3716.23,0.024825
3718.89,0.024859
3721.56,0.024866
3724.23,0.024867
3726.91,0.024885
3729.59,0.02492
3732.28,0.024893
3734.97,0.024928
3737.66,0.024956
3740.36,0.024899
3743.06,0.024893
3745.76,0.024893
3748.47,0.024926
3751.18,0.02494
3753.9,0.024923
3756.62,0.024884
3759.34,0.024866
3762.07,0.02484
3764.8,0.024832
3767.54,0.024901
3770.28,0.02492
3773.02,0.02486
3775.77,0.024828
3778.52,0.024849
3781.28,0.024854
3784.04,0.02484
3786.8,0.024832
3789.57,0.024835
3792.34,0.024864
3795.12,0.02484
3797.9,0.02479
3800.69,0.024805
3803.47,0.024855
3806.27,0.024848
3809.06,0.024849
3811.86,0.024832
3814.67,0.024879
3817.48,0.024855
3820.29,0.024819
3823.11,0.024845
3825.93,0.024874
3828.76,0.024885
3831.59,0.024872
3834.42,0.024872
3837.26,0.024901
3840.1,0.024941
3842.95,0.024969
3845.8,0.02494
3848.65,0.024942
3851.51,0.024981
3854.38,0.024964
3857.24,0.024958
3860.12,0.02497
3862.99,0.024953
3865.87,0.024947
3868.76,0.024933
3871.65,0.024964
3874.54,0.025064
3877.44,0.025069
3880.34,0.025029
3883.25,0.025049
3886.16,0.025057
3889.07,0.025016
3891.99,0.025023
3894.92,0.025033
3897.85,0.025039
3900.78,0.025023
3903.72,0.024996
3906.66,0.025015
3909.6,0.025042
3912.55,0.025041
3915.51,0.02504
3918.47,0.025033
3921.43,0.025029
3924.4,0.025013
3927.38,0.025024
3930.35,0.025029
3933.33,0.024999
3936.32,0.02497
3939.31,0.024994
3942.31,0.025014
3945.31,0.024992
3948.31,0.025012
3951.32,0.025068
3954.34,0.025047
3957.35,0.024995
3960.38,0.02502
3963.41,0.025056
3966.44,0.02508
3969.48,0.025102
3972.52,0.025081
3975.56,0.025111
3978.61,0.02513
3981.67,0.025145
3984.73,0.025196
3987.8,0.025258
3990.87,0.025297
3993.94,0.025301
3997.02,0.025337
4000.1,0.025352
4003.19,0.025366
4006.29,0.025449
4009.39,0.025463
4012.49,0.025407
4015.6,0.025368
4018.71,0.025413
4021.83,0.025475
4024.95,0.025531
4028.08,0.025586
4031.21,0.025582
4034.35,0.025585
4037.49,0.025598
4040.64,0.025584
4043.79,0.025624
4046.94,0.025647
4050.11,0.025624
4053.27,0.025665
4056.44,0.025716
4059.62,0.025683
4062.8,0.025657
4065.99,0.02569
4069.18,0.025736
4072.38,0.025737
4075.58,0.0257
4078.78,0.025704
4082.0,0.025768
4085.21,0.025822
4088.43,0.025852
4091.66,0.025858
4094.89,0.02585
4098.13,0.025857
4101.37,0.025848
4104.62,0.02582
4107.87,0.025799
4111.13,0.025776
4114.39,0.025776
4117.66,0.025799
4120.93,0.025821
4124.21,0.025855
4127.5,0.025919
4130.79,0.025916
4134.08,0.025913
4137.38,0.025972
4140.68,0.025994
4143.99,0.025917
4147.31,0.025857
4150.63,0.025877
4153.95,0.025945
4157.29,0.025983
4160.62,0.026002
4163.96,0.025966
4167.31,0.025973
4170.66,0.025966
4174.02,0.025979
4177.39,0.026011
4180.75,0.026047
4184.13,0.026045
4187.51,0.025968
4190.89,0.025964
4194.28,0.025966
4197.68,0.025988
4201.08,0.026033
4204.49,0.026036
4207.9,0.026008
4211.32,0.026044
4214.74,0.026064
4218.17,0.026013
4221.61,0.026022
4225.05,0.026066
4228.5,0.026069
4231.95,0.026031
4235.4,0.026015
4238.87,0.026037
4242.34,0.026054
4245.81,0.026082
4249.29,0.026101
4252.78,0.026084
4256.27,0.026112
4259.77,0.026114
4263.27,0.026109
4266.78,0.026127
4270.29,0.026141
4273.81,0.026169
4277.34,0.02615
4280.87,0.026121
4284.41,0.026126
4287.95,0.026157
4291.5,0.026167
4295.06,0.026142
4298.62,0.026148
4302.19,0.026184
4305.76,0.026235
4309.34,0.026284
4312.92,0.026263
4316.52,0.026252
4320.11,0.02622
4323.72,0.026175
4327.32,0.026192
4330.94,0.02623
4334.56,0.026235
4338.19,0.02619
4341.82,0.026221
4345.46,0.026329
4349.11,0.026339
4352.76,0.026286
4356.42,0.02626
4360.08,0.026268
4363.75,0.026285
4367.43,0.026276
4371.11,0.026286
4374.8,0.026351
4378.49,0.0264
4382.19,0.026394
4385.9,0.026378
4389.61,0.026352
4393.33,0.026322
4397.06,0.026291
4400.79,0.026316
4404.53,0.026358
4408.28,0.026358
4412.03,0.026392
4415.79,0.026403
4419.55,0.026347
4423.32,0.02632
4427.1,0.02634
4430.88,0.026362
4434.68,0.026425
4438.47,0.026424
4442.28,0.02638
4446.08,0.026383
4449.9,0.026425
4453.72,0.026426
4457.55,0.026407
4461.39,0.026427
4465.23,0.026439
4469.08,0.026424
4472.94,0.026412
4476.8,0.026412
4480.67,0.026448
4484.55,0.026503
4488.43,0.026493
4492.32,0.026434
4496.21,0.026484
4500.12,0.026574
4504.03,0.026588
4507.94,0.026543
4511.87,0.026508
4515.8,0.026515
4519.73,0.026586
4523.68,0.026614
4527.63,0.026633
4531.59,0.026666
4535.55,0.026654
4539.52,0.026624
4543.5,0.026644
4547.49,0.026651
4551.48,0.026638
4555.48,0.026656
4559.49,0.0267
4563.5,0.026713
4567.52,0.026762
4571.55,0.026787
4575.58,0.02671
4579.63,0.02669
4583.67,0.026761
4587.73,0.026772
4591.79,0.026752
4595.86,0.026746
4599.94,0.026745
4604.03,0.026732
4608.12,0.026725
4612.22,0.026767
4616.33,0.026768
4620.44,0.02677
4624.56,0.02676
4628.69,0.026811
4632.83,0.026836
4636.97,0.026801
4641.12,0.02678
4645.28,0.026797
4649.45,0.026814
4653.62,0.026819
4657.8,0.026804
4661.99,0.026786
4666.19,0.02681
4670.39,0.02683
4674.6,0.026804
4678.82,0.026848
4683.05,0.026903
4687.28,0.02687
4691.52,0.026853
4695.77,0.026886
4700.03,0.026906
4704.3,0.02691
4708.57,0.026926
4712.85,0.026964
4717.14,0.026967
4721.43,0.026963
4725.74,0.026988
4730.05,0.026991
4734.37,0.027029
4738.7,0.027053
4743.03,0.027028
4747.38,0.027037
4751.73,0.027081
4756.09,0.027119
4760.45,0.027137
4764.83,0.027156
4769.21,0.027156
4773.6,0.02712
4778.0,0.027109
4782.41,0.027123
4786.83,0.02714
4791.25,0.027177
4795.68,0.027195
4800.13,0.027211
4804.57,0.027185
4809.03,0.027131
4813.5,0.027135
4817.97,0.027177
4822.45,0.027197
4826.94,0.027194
4831.44,0.0272
4835.95,0.027204
4840.46,0.027202
4844.99,0.027198
4849.52,0.027201
4854.06,0.027214
4858.61,0.027192
4863.17,0.027212
4867.73,0.027225
4872.31,0.027191
4876.89,0.027176
4881.48,0.027196
4886.08,0.027233
4890.69,0.027227
4895.31,0.027178
4899.94,0.027186
4904.57,0.027235
4909.22,0.027205
4913.87,0.027179
4918.53,0.02718
4923.21,0.027178
4927.88,0.027176
4932.57,0.027148
4937.27,0.027141
4941.98,0.027193
4946.69,0.027212
4951.42,0.027195
4956.15,0.027179
4960.9,0.027179
4965.65,0.027202
4970.41,0.027211
4975.18,0.027198
4979.96,0.027197
4984.75,0.027177
4989.54,0.027182
4994.35,0.027211
4999.17,0.027231
5003.99,0.027233
5008.83,0.027241
5013.67,0.02722
5018.52,0.027218
5023.39,0.027229
5028.26,0.027217
5033.14,0.027212
5038.03,0.027224
5042.93,0.027246
5047.84,0.027255
5052.76,0.027257
5057.69,0.027228
5062.63,0.027197
5067.58,0.027195
5072.54,0.027198
5077.51,0.027223
5082.49,0.02725
5087.47,0.027264
5092.47,0.027274
5097.48,0.027287
5102.5,0.027296
5107.52,0.027267
5112.56,0.027294
5117.61,0.02735
5122.66,0.027357
5127.73,0.02732
5132.81,0.027334
5137.89,0.02734
5142.99,0.027351
5148.1,0.027355
5153.22,0.027364
5158.34,0.027404
5163.48,0.027373
5168.63,0.02736
5173.79,0.027398
5178.96,0.027375
5184.13,0.027367
5189.32,0.027406
5194.52,0.027401
5199.73,0.027392
5204.96,0.027389
5210.19,0.027396
5215.43,0.027445
5220.68,0.027468
5225.94,0.027435
5231.22,0.027416
5236.5,0.027428
5241.79,0.027405
5247.1,0.027376
5252.42,0.027373
5257.74,0.027359
5263.08,0.027351
5268.43,0.027373
5273.79,0.027392
5279.16,0.027376
5284.54,0.027364
5289.93,0.027383
5295.34,0.027409
5300.75,0.027435
5306.18,0.027413
5311.61,0.027358
5317.06,0.027353
5322.52,0.027371
5327.99,0.027377
5333.47,0.027396
5338.96,0.027413
5344.47,0.027416
5349.98,0.027389
5355.51,0.027383
5361.05,0.027376
5366.6,0.027395
5372.16,0.027401
5377.73,0.027393
5383.32,0.027408
5388.91,0.027421
5394.52,0.027384
5400.14,0.027376
5405.77,0.027395
5411.41,0.0274
5417.07,0.027392
5422.74,0.027358
5428.41,0.027364
5434.1,0.027381
5439.81,0.027379
5445.52,0.027354
5451.25,0.027309
5456.98,0.027296
5462.73,0.027297
5468.5,0.027296
5474.27,0.027306
5480.06,0.027256
5485.86,0.027231
5491.67,0.027255
5497.49,0.027243
5503.33,0.027235
5509.18,0.027253
5515.04,0.027285
5520.91,0.027256
5526.8,0.027244
5532.69,0.027257
5538.61,0.02725
5544.53,0.02728
5550.47,0.027329
5556.41,0.027316
5562.38,0.027284
5568.35,0.02729
5574.34,0.027289
5580.34,0.027284
5586.35,0.027316
5592.38,0.027366
5598.42,0.02738
5604.47,0.02739
5610.54,0.027419
5616.61,0.027452
5622.71,0.027486
5628.81,0.0275
5634.93,0.027496
5641.06,0.027505
5647.21,0.027497
5653.36,0.027527
5659.54,0.027599
5665.72,0.02763
5671.92,0.027611
5678.13,0.027627
5684.36,0.02765
5690.6,0.027652
5696.85,0.02765
5703.12,0.027671
5709.4,0.02772
5715.69,0.027785
5722.0,0.027814
5728.33,0.027814
5734.66,0.027831
5741.01,0.027889
5747.38,0.027895
5753.76,0.027901
5760.15,0.027934
5766.56,0.027926
5772.98,0.027889
5779.41,0.027893
5785.86,0.027874
5792.33,0.027889
5798.81,0.027917
5805.3,0.027868
5811.81,0.027753
5818.33,0.027677
5824.87,0.027647
5831.42,0.027642
5837.99,0.027607
5844.57,0.027548
5851.17,0.027476
5857.78,0.027452
5864.41,0.027436
5871.05,0.027388
5877.7,0.02735
5884.38,0.027283
5891.06,0.027211
5897.76,0.027158
5904.48,0.027113
5911.21,0.027092
5917.96,0.027062
5924.73,0.02702
5931.5,0.026991
5938.3,0.026972
5945.11,0.026929
5951.93,0.026878
5958.78,0.026852
5965.63,0.026836
5972.51,0.02679
5979.39,0.026746
5986.3,0.026736
5993.22,0.026714
6000.16,0.026681
6007.11,0.026642
6014.08,0.026647
6021.06,0.02661
6028.06,0.026569
6035.08,0.026518
6042.12,0.026464
6049.17,0.026411
6056.23,0.026391
6063.32,0.026415
6070.42,0.026423
6077.53,0.026393
6084.67,0.026379
6091.82,0.026376
6098.98,0.026353
6106.17,0.026341
6113.37,0.026348
6120.58,0.026339
6127.82,0.026348
6135.07,0.026398
6142.34,0.026435
6149.63,0.026434
6156.93,0.026462
6164.25,0.026525
6171.59,0.026597
6178.95,0.026642
6186.32,0.026725
6193.71,0.026796
6201.12,0.026849
6208.54,0.026931
6215.99,0.027067
6223.45,0.027173
6230.93,0.027234
6238.43,0.027336
6245.95,0.027461
6253.48,0.027572
6261.03,0.027745
6268.6,0.027933
6276.19,0.028111
6283.8,0.028295
6291.43,0.02848
6299.07,0.02867
6306.73,0.028874
6314.42,0.029163
6322.12,0.029562
6329.84,0.029901
6337.57,0.030128
6345.33,0.030287
6353.11,0.030411
6360.9,0.03055
6368.72,0.030627
6376.55,0.030661
6384.4,0.030751
6392.27,0.030837
6400.17,0.030901
6408.08,0.030944
6416.01,0.030966
6423.96,0.030985
6431.93,0.031001
6439.92,0.031026
6447.93,0.031066
6455.96,0.031106
6464.01,0.031144
6472.08,0.031155
6480.17,0.031154
6488.28,0.031162
6496.41,0.031137
6504.56,0.031156
6512.73,0.031171
6520.92,0.031172
6529.14,0.031157
6537.37,0.031166
6545.63,0.031161
6553.9,0.031122
6562.2,0.031104
6570.51,0.0311
6578.85,0.031111
6587.21,0.031095
6595.59,0.031066
6603.99,0.031052
6612.42,0.031018
6620.86,0.031002
6629.33,0.030959
6637.82,0.030889
6646.33,0.030835
6654.86,0.030774
6663.41,0.030737
6671.99,0.030695
6680.59,0.030655
6689.21,0.030615
6697.85,0.030577
6706.51,0.030521
6715.2,0.030466
6723.91,0.030437
6732.64,0.030424
6741.4,0.030342
6750.18,0.030299
6758.98,0.030286
6767.8,0.030235
6776.65,0.030193
6785.52,0.030169
6794.41,0.030143
6803.33,0.030114
6812.27,0.030052
6821.23,0.029988
6830.22,0.02991
6839.23,0.029812
6848.26,0.029754
6857.32,0.029685
6866.4,0.029596
6875.51,0.029559
6884.64,0.029537
6893.8,0.02947
6902.98,0.02943
6912.18,0.029376
6921.41,0.029359
6930.66,0.029385
6939.94,0.029367
6949.24,0.029351
6958.57,0.02939
6967.92,0.029401
6977.3,0.029361
6986.7,0.029367
6996.13,0.029384
7005.59,0.029345
7015.07,0.029313
7024.57,0.029315
7034.1,0.029387
7043.66,0.029433
7053.25,0.029419
7062.85,0.029419
7072.49,0.029458
7082.15,0.029463
7091.84,0.029406
7101.55,0.029312
7111.3,0.029223
7121.06,0.029151
7130.86,0.029088
7140.68,0.029064
7150.53,0.029045
7160.41,0.028977
7170.31,0.028938
7180.24,0.028952
7190.2,0.02893
7200.19,0.028929
7210.2,0.028951
7220.24,0.02893
7230.31,0.028962
7240.41,0.029013
7250.54,0.029045
7260.69,0.029057
7270.88,0.029042
7281.09,0.029054
7291.33,0.02907
7301.6,0.029077
7311.9,0.029094
7322.22,0.029107
7332.58,0.029103
7342.97,0.02915
7353.38,0.029158
7363.83,0.029129
7374.3,0.029158
7384.81,0.029167
7395.34,0.029146
7405.91,0.029153
7416.5,0.029168
7427.13,0.029202
7437.78,0.029212
7448.47,0.029167
7459.19,0.029123
7469.94,0.02906
7480.71,0.029001
7491.52,0.028996
7502.37,0.029007
7513.24,0.029024
7524.14,0.028991
7535.08,0.028982
7546.05,0.028977
7557.05,0.028949
7568.08,0.028966
7579.15,0.028947
7590.24,0.02891
7601.37,0.028873
7612.53,0.028885
7623.73,0.028908
7634.96,0.02893
7646.22,0.028981
7657.51,0.029004
7668.84,0.02902
7680.2,0.02908
7691.59,0.029135
7703.02,0.029137
7714.49,0.029101
7725.98,0.029086
7737.52,0.029117
7749.08,0.029123
7760.68,0.029114
7772.32,0.02911
7783.99,0.029131
7795.69,0.029136
7807.43,0.029151
7819.21,0.029153
7831.02,0.02915
7842.87,0.029153
7854.75,0.029144
7866.67,0.029168
7878.62,0.029188
7890.62,0.029206
7902.64,0.029269
7914.71,0.029304
7926.81,0.029324
7938.95,0.029357
7951.13,0.029443
7963.34,0.0295
7975.59,0.029492
7987.88,0.029452
8000.21,0.029432
8012.57,0.029402
8024.98,0.029351
8037.42,0.02933
8049.9,0.029325
8062.42,0.029284
8074.98,0.029263
8087.57,0.029262
8100.21,0.029274
8112.89,0.029303
8125.6,0.02927
8138.36,0.02924
8151.16,0.029226
8163.99,0.029207
8176.87,0.029158
8189.79,0.029098
8202.75,0.029066
8215.75,0.028982
8228.79,0.028901
8241.87,0.028889
8254.99,0.028857
8268.16,0.028784
8281.37,0.028727
8294.62,0.028699
8307.91,0.02868
8321.24,0.028645
8334.62,0.02861
8348.04,0.028549
8361.51,0.028528
8375.02,0.028518
8388.57,0.028492
8402.16,0.028444
8415.8,0.02843
8429.49,0.02844
8443.22,0.028469
8456.99,0.0285
8470.81,0.028537
8484.67,0.02855
8498.58,0.02854
8512.54,0.028542
8526.54,0.028563
8540.58,0.028554
8554.68,0.028592
8568.82,0.028667
8583.0,0.028719
8597.24,0.028695
8611.52,0.028614
8625.85,0.028603
8640.23,0.028634
8654.65,0.028658
8669.12,0.028787
8683.64,0.028894
8698.21,0.028893
8712.83,0.028868
8727.5,0.028878
8742.22,0.028849
8756.99,0.028751
8771.8,0.028658
8786.67,0.028591
8801.59,0.028544
8816.56,0.028504
8831.58,0.028509
8846.65,0.028519
8861.77,0.02854
8876.94,0.028587
8892.17,0.028583
8907.45,0.028517
8922.78,0.02853
8938.16,0.028521
8953.6,0.028442
8969.09,0.028411
8984.64,0.028406
9000.23,0.028379
9015.89,0.028434
9031.59,0.028454
9047.36,0.028507
9063.17,0.028545
9079.05,0.028535
9094.97,0.028523
9110.96,0.028544
9127.0,0.028624
9143.1,0.028781
9159.25,0.028876
9175.46,0.028954
9191.73,0.029017
9208.06,0.029083
9224.44,0.029244
9240.88,0.029362
9257.38,0.029467
9273.94,0.029594
9290.56,0.029784
9307.24,0.030026
9323.98,0.030236
9340.78,0.030453
9357.64,0.03061
9374.57,0.030864
9391.55,0.031201
9408.59,0.031507
9425.7,0.031785
9442.87,0.03207
9460.1,0.032401
9477.4,0.032717
9494.75,0.033086
9512.17,0.033491
9529.66,0.033894
9547.21,0.034314
9564.83,0.034595
9582.5,0.034883
9600.25,0.035202
9618.06,0.035531
9635.94,0.035817
9653.88,0.036076
9671.89,0.036269
9689.97,0.036386
9708.12,0.036558
9726.33,0.036726
9744.62,0.036821
9762.97,0.036864
9781.39,0.036891
9799.88,0.036885
9818.44,0.036827
9837.07,0.036745
9855.77,0.036636
9874.54,0.036565
9893.39,0.036523
9912.3,0.0364
9931.29,0.036257
9950.36,0.036192
9969.49,0.036121
9988.7,0.035989
10007.98,0.035889
10027.34,0.035772
10046.77,0.03562
10066.28,0.035539
10085.87,0.035522
10105.53,0.035393
10125.26,0.035214
10145.08,0.035094
10164.97,0.034983
10184.94,0.03492
10204.99,0.03479
10225.12,0.034618
10245.33,0.034528
10265.61,0.034557
10285.98,0.034616
10306.43,0.034644
10326.96,0.03462
10347.57,0.034637
10368.27,0.034758
10389.05,0.034807
10409.91,0.034755
10430.86,0.034666
10451.88,0.034774
10473.0,0.034908
10494.2,0.034883
10515.49,0.034875
10536.86,0.03494
10558.32,0.034928
10579.87,0.034891
10601.5,0.034876
10623.23,0.034871
10645.04,0.034886
10666.94,0.034843
10688.94,0.034823
10711.02,0.034935
10733.2,0.03496
10755.47,0.034938
10777.83,0.034956
10800.28,0.034988
10822.83,0.035002
10845.47,0.035006
10868.21,0.035023
10891.04,0.035052
10913.97,0.035124
10936.99,0.035215
10960.12,0.035242
10983.34,0.035203
11006.66,0.035249
11030.07,0.035292
11053.59,0.035411
11077.21,0.035574
11100.93,0.035773
11124.75,0.036124
11148.68,0.036426
11172.71,0.036564
11196.84,0.036638
11221.07,0.036707
11245.41,0.036754
11269.86,0.036751
11294.41,0.036653
11319.07,0.036425
11343.84,0.036198
11368.72,0.036049
11393.7,0.035986
11418.8,0.03588
11444.01,0.035789
11469.33,0.035787
11494.76,0.03581
11520.3,0.035817
11545.96,0.035775
11571.73,0.035844
11597.62,0.035985
11623.62,0.036096
11649.74,0.036066
11675.98,0.036023
11702.34,0.035978
11728.81,0.035863
11755.41,0.035836
11782.13,0.035892
11808.96,0.035946
11835.92,0.036062
11863.01,0.036113
11890.22,0.036212
11917.55,0.036349
11945.01,0.036489
11972.6,0.036616
12000.31,0.036693
12028.16,0.036759
12056.13,0.036825
12084.23,0.036785
12112.46,0.036746
12140.83,0.036753
12169.33,0.036802
12197.96,0.036764
12226.73,0.036692
12255.64,0.036683
12284.68,0.036562
12313.86,0.036481
12343.18,0.036526
12372.64,0.036442
12402.24,0.036407
12431.98,0.036413
12461.86,0.036391
12491.89,0.036323
12522.07,0.036301
12552.38,0.036269
12582.85,0.036111
12613.47,0.036038
12644.23,0.035999
12675.15,0.035933
12706.21,0.03574
12737.43,0.035633
12768.81,0.035536
12800.33,0.035474
12832.02,0.035388
12863.86,0.035281
12895.86,0.035171
12928.02,0.034961
12960.34,0.034708
12992.82,0.034528
13025.46,0.03442
13058.27,0.034323
13091.25,0.03422
13124.39,0.034075
13157.7,0.033908
13191.18,0.033744
13224.83,0.033542
13258.66,0.033362
13292.65,0.033134
13326.83,0.033046
13361.17,0.032989
13395.7,0.032841
13430.4,0.032829
13465.29,0.032846
13500.35,0.032906
13535.6,0.032947
13571.03,0.032797
13606.65,0.032774
13642.46,0.032798
13678.46,0.032729
13714.64,0.032614
13751.02,0.032498
13787.59,0.03241
13824.36,0.032327
13861.32,0.032246
13898.49,0.032135
13935.85,0.03199
13973.41,0.031883
14011.17,0.031942
14049.15,0.031968
14087.32,0.03192
14125.71,0.031838
14164.3,0.031749
14203.11,0.031686
14242.13,0.031632
14281.36,0.031614
14320.81,0.031695
14360.49,0.031699
14400.38,0.031634
14440.49,0.031571
14480.82,0.031617
14521.39,0.031693
14562.18,0.03175
14603.2,0.0318
14644.45,0.031789
14685.93,0.031866
14727.66,0.032098
14769.62,0.032259
14811.81,0.032306
14854.25,0.032425
14896.94,0.032425
14939.87,0.032423
14983.05,0.032495
15026.48,0.032415
15070.16,0.032399
15114.1,0.032561
15158.29,0.032655
15202.74,0.03257
15247.46,0.032656
15292.43,0.03276
15337.68,0.032756
15383.19,0.032805
15428.97,0.032862
15475.03,0.032917
15521.36,0.032994
15567.97,0.032966
15614.87,0.032903
15662.04,0.032926
15709.5,0.032855
15757.25,0.03272
15805.29,0.032828
15853.62,0.0329
15902.26,0.032721
15951.19,0.03265
16000.42,0.032709
16049.95,0.032805
16099.8,0.03286
16149.95,0.032878
16200.42,0.032917
16251.21,0.033069
16302.31,0.03328
16353.74,0.033515
16405.49,0.033703
16457.57,0.033812
16509.98,0.033879
16562.73,0.033966
16615.82,0.034068
16669.24,0.033903
16723.02,0.033726
16777.14,0.033572
16831.61,0.033558
16886.43,0.033656
16941.62,0.033601
16997.16,0.033566
17053.08,0.033526
17109.36,0.033479
17166.01,0.033314
17223.04,0.033286
17280.45,0.033378
17338.24,0.033441
17396.43,0.033378
17455.0,0.033177
17513.97,0.033133
17573.34,0.033275
17633.11,0.033271
17693.29,0.03313
17753.89,0.033131
17814.9,0.03322
17876.33,0.033206
17938.18,0.033163
18000.47,0.033172
18063.19,0.033093
18126.35,0.032969
18189.95,0.032938
18254.0,0.032947
18318.5,0.032968
18383.46,0.032876
18448.88,0.032919
18514.77,0.033046
18581.13,0.033086
18647.97,0.033219
18715.29,0.033357
18783.1,0.033727
18851.4,0.034158
18920.2,0.034349
18989.51,0.034515
19059.32,0.034819
19129.65,0.035162
19200.5,0.035557
19271.88,0.036048
19343.79,0.036306
19416.24,0.036565
19489.23,0.036942
19562.77,0.037363
19636.88,0.037781
19711.54,0.038194
19786.78,0.038623
19862.59,0.039058
19938.98,0.039362
20015.96,0.03996
20093.55,0.04035
20171.73,0.040668
20250.53,0.04129
20329.94,0.04196
20409.98,0.042874
20490.65,0.04382
20571.96,0.044325
20653.92,0.044954
20736.54,0.045806
20819.82,0.046455
20903.77,0.047084
20988.4,0.047878
21073.72,0.048671
21159.73,0.049452
21246.46,0.049926
21333.89,0.049997
21422.04,0.050295
21510.93,0.050973
21600.56,0.051116
21690.94,0.051233
21782.08,0.051247
21873.99,0.051247
21966.67,0.051146
22060.15,0.051272
22154.42,0.051639
22249.51,0.052096
22345.41,0.052691
22442.14,0.053161
22539.72,0.053367
22638.14,0.053486
22737.43,0.052882
22837.6,0.052469
22938.65,0.05242
23040.6,0.052083
23143.46,0.051336
23247.24,0.050716
23351.96,0.050072
23457.63,0.049379
23564.25,0.049261
23671.85,0.048739
23780.44,0.048053
23890.02,0.048679
24000.63,0.048312
24112.26,0.047037
24224.93,0.046625
24338.66,0.046373
24453.47,0.045616
24569.36,0.045671
24686.36,0.046378
24804.47,0.046715
24923.73,0.046657
25044.13,0.046326
25165.71,0.044613
25288.46,0.044735
25412.43,0.046705
25537.61,0.046815
25664.04,0.044659
25791.72,0.046307
25920.68,0.04713
