Database of Origin,University of Winnipeg Spectrophotometer Facility
Sample Description,Carbonaceous chondrites - RELAB archive 5. CO chondrites
Other Information,bkr1mp102
Date Added,2018-07-23 23:45:02.575619

Data ID,RLA_MET_36_3        
Sample ID,ALH77307/95
Mineral Name,CO Chondrite
Grain Size,<125 um
Viewing Geometry,30/0
Material Class,CO3.0

Wavelength
305.0,0.02562
310.0,0.02473
315.0,0.02412
320.0,0.0243
325.0,0.02461
330.0,0.0252
335.0,0.02573
340.0,0.02608
345.0,0.02654
350.0,0.02697
355.0,0.02738
360.0,0.02788
365.0,0.02829
370.0,0.02865
375.0,0.02902
380.0,0.02951
385.0,0.03005
390.0,0.03042
395.0,0.03081
400.0,0.03123
405.0,0.03163
410.0,0.03198
415.0,0.03254
420.0,0.03315
425.0,0.0337
430.0,0.0344
435.0,0.03503
440.0,0.03576
445.0,0.03624
450.0,0.03677
455.0,0.03707
460.0,0.03748
465.0,0.0375
470.0,0.03787
475.0,0.0383
480.0,0.03868
485.0,0.03885
490.0,0.03936
495.0,0.03991
500.0,0.04047
505.0,0.0411
510.0,0.04167
515.0,0.04232
520.0,0.04282
525.0,0.04366
530.0,0.04425
535.0,0.04488
540.0,0.0455
545.0,0.04588
550.0,0.0464
555.0,0.04691
560.0,0.04732
565.0,0.04783
570.0,0.04819
575.0,0.04842
580.0,0.04869
585.0,0.04893
590.0,0.04912
595.0,0.04937
600.0,0.04963
605.0,0.04985
610.0,0.05006
615.0,0.05029
620.0,0.05052
625.0,0.05069
630.0,0.05089
635.0,0.05115
640.0,0.05138
645.0,0.05161
650.0,0.05181
655.0,0.05196
660.0,0.05199
665.0,0.052
670.0,0.05196
675.0,0.052
680.0,0.05203
685.0,0.05209
690.0,0.05211
695.0,0.05219
700.0,0.05217
705.0,0.05222
710.0,0.05226
715.0,0.05242
720.0,0.05252
725.0,0.05265
730.0,0.05278
735.0,0.05291
740.0,0.05293
745.0,0.05298
750.0,0.05304
755.0,0.05306
760.0,0.05305
765.0,0.0531
770.0,0.05313
775.0,0.05313
780.0,0.05319
785.0,0.05325
790.0,0.05327
795.0,0.05323
800.0,0.05323
805.0,0.05314
810.0,0.05305
815.0,0.05297
820.0,0.05293
825.0,0.05285
830.0,0.05279
835.0,0.05275
840.0,0.05272
845.0,0.05273
850.0,0.05273
855.0,0.05279
860.0,0.05283
865.0,0.0529
870.0,0.05302
875.0,0.05313
880.0,0.05319
885.0,0.05289
890.0,0.05277
895.0,0.05261
900.0,0.05243
905.0,0.05232
910.0,0.05224
915.0,0.0522
920.0,0.05227
925.0,0.05229
930.0,0.05218
935.0,0.05226
940.0,0.05226
945.0,0.05217
950.0,0.05221
955.0,0.05217
960.0,0.05213
965.0,0.05208
970.0,0.05212
975.0,0.05216
980.0,0.05219
985.0,0.05211
990.0,0.05222
995.0,0.05213
1000.0,0.05204
1005.0,0.05195
1010.0,0.05196
1015.0,0.05183
1020.0,0.05182
1025.0,0.0518
1030.0,0.05187
1035.0,0.05184
1040.0,0.05188
1045.0,0.05185
1050.0,0.05185
1055.0,0.05179
1060.0,0.05178
1065.0,0.05179
1070.0,0.05178
1075.0,0.05183
1080.0,0.05182
1085.0,0.05196
1090.0,0.05175
1095.0,0.05213
1100.0,0.05198
1105.0,0.05216
1110.0,0.05203
1115.0,0.05212
1120.0,0.05222
1125.0,0.05229
1130.0,0.05208
1135.0,0.05233
1140.0,0.0523
1145.0,0.05233
1150.0,0.05246
1155.0,0.05235
1160.0,0.05255
1165.0,0.05244
1170.0,0.05255
1175.0,0.05252
1180.0,0.05255
1185.0,0.05265
1190.0,0.05263
1195.0,0.05276
1200.0,0.05275
1205.0,0.0529
1210.0,0.05276
1215.0,0.05285
1220.0,0.05286
1225.0,0.05299
1230.0,0.05299
1235.0,0.05298
1240.0,0.05307
1245.0,0.05317
1250.0,0.05302
1255.0,0.05314
1260.0,0.05317
1265.0,0.05316
1270.0,0.05323
1275.0,0.05325
1280.0,0.05335
1285.0,0.05342
1290.0,0.05347
1295.0,0.05351
1300.0,0.05358
1305.0,0.05347
1310.0,0.0536
1315.0,0.05362
1320.0,0.05364
1325.0,0.05367
1330.0,0.05384
1335.0,0.05383
1340.0,0.05386
1345.0,0.05388
1350.0,0.05391
1355.0,0.05406
1360.0,0.05411
1365.0,0.05418
1370.0,0.05417
1375.0,0.05427
1380.0,0.05425
1385.0,0.05429
1390.0,0.05436
1395.0,0.05438
1400.0,0.05448
1405.0,0.05455
1410.0,0.05458
1415.0,0.0546
1420.0,0.05472
1425.0,0.05487
1430.0,0.0549
1435.0,0.05485
1440.0,0.05492
1445.0,0.05496
1450.0,0.05505
1455.0,0.05517
1460.0,0.05516
1465.0,0.05516
1470.0,0.05524
1475.0,0.05537
1480.0,0.05541
1485.0,0.05552
1490.0,0.05562
1495.0,0.05564
1500.0,0.05566
1505.0,0.05583
1510.0,0.05588
1515.0,0.05586
1520.0,0.05594
1525.0,0.05606
1530.0,0.05607
1535.0,0.05613
1540.0,0.05619
1545.0,0.05625
1550.0,0.05628
1555.0,0.05645
1560.0,0.05647
1565.0,0.05654
1570.0,0.05663
1575.0,0.05671
1580.0,0.05668
1585.0,0.0568
1590.0,0.05686
1595.0,0.05694
1600.0,0.05692
1605.0,0.05696
1610.0,0.05704
1615.0,0.0571
1620.0,0.0571
1625.0,0.05724
1630.0,0.05726
1635.0,0.05735
1640.0,0.0574
1645.0,0.05742
1650.0,0.05749
1655.0,0.05756
1660.0,0.05761
1665.0,0.05772
1670.0,0.05777
1675.0,0.05783
1680.0,0.05782
1685.0,0.05789
1690.0,0.05801
1695.0,0.05802
1700.0,0.05809
1705.0,0.05822
1710.0,0.0582
1715.0,0.05836
1720.0,0.05833
1725.0,0.05836
1730.0,0.05838
1735.0,0.05836
1740.0,0.05854
1745.0,0.05854
1750.0,0.05859
1755.0,0.0586
1760.0,0.05868
1765.0,0.05875
1770.0,0.05879
1775.0,0.05887
1780.0,0.05882
1785.0,0.05894
1790.0,0.059
1795.0,0.05902
1800.0,0.05911
1805.0,0.05917
1810.0,0.05919
1815.0,0.0593
1820.0,0.05923
1825.0,0.05936
1830.0,0.05936
1835.0,0.05943
1840.0,0.05958
1845.0,0.05957
1850.0,0.05959
1855.0,0.05965
1860.0,0.05971
1865.0,0.05974
1870.0,0.05977
1875.0,0.0598
1880.0,0.05994
1885.0,0.05985
1890.0,0.05993
1895.0,0.05998
1900.0,0.06006
1905.0,0.06006
1910.0,0.06003
1915.0,0.06006
1920.0,0.06006
1925.0,0.06004
1930.0,0.06008
1935.0,0.06011
1940.0,0.06008
1945.0,0.06012
1950.0,0.06019
1955.0,0.0604
1960.0,0.06063
1965.0,0.06069
1970.0,0.06073
1975.0,0.06072
1980.0,0.06074
1985.0,0.06089
1990.0,0.06086
1995.0,0.06099
2000.0,0.06107
2005.0,0.06109
2010.0,0.06115
2015.0,0.06114
2020.0,0.06122
2025.0,0.06123
2030.0,0.0613
2035.0,0.06131
2040.0,0.06135
2045.0,0.06139
2050.0,0.06144
2055.0,0.06144
2060.0,0.06151
2065.0,0.06149
2070.0,0.06157
2075.0,0.06161
2080.0,0.06159
2085.0,0.06159
2090.0,0.06168
2095.0,0.0617
2100.0,0.06177
2105.0,0.06178
2110.0,0.06182
2115.0,0.06185
2120.0,0.06184
2125.0,0.06197
2130.0,0.06199
2135.0,0.06209
2140.0,0.06211
2145.0,0.06209
2150.0,0.06218
2155.0,0.06216
2160.0,0.06217
2165.0,0.06221
2170.0,0.06222
2175.0,0.06226
2180.0,0.06228
2185.0,0.06232
2190.0,0.06229
2195.0,0.06235
2200.0,0.06236
2205.0,0.06241
2210.0,0.0624
2215.0,0.06245
2220.0,0.06249
2225.0,0.06245
2230.0,0.06247
2235.0,0.06249
2240.0,0.0625
2245.0,0.06257
2250.0,0.06256
2255.0,0.06251
2260.0,0.0626
2265.0,0.06261
2270.0,0.06264
2275.0,0.06263
2280.0,0.06263
2285.0,0.06268
2290.0,0.06273
2295.0,0.06271
2300.0,0.06266
2305.0,0.06272
2310.0,0.06277
2315.0,0.06278
2320.0,0.06278
2325.0,0.06288
2330.0,0.06287
2335.0,0.06286
2340.0,0.06283
2345.0,0.06292
2350.0,0.06294
2355.0,0.06295
2360.0,0.06286
2365.0,0.06299
2370.0,0.06299
2375.0,0.06301
2380.0,0.06296
2385.0,0.06298
2390.0,0.06295
2395.0,0.063
2400.0,0.06297
2405.0,0.06304
2410.0,0.0631
2415.0,0.06306
2420.0,0.06304
2425.0,0.06304
2430.0,0.06302
2435.0,0.06311
2440.0,0.06312
2445.0,0.06307
2450.0,0.06313
2455.0,0.0631
2460.0,0.06314
2465.0,0.06313
2470.0,0.06323
2475.0,0.06321
2480.0,0.0632
2485.0,0.06316
2490.0,0.06321
