Database of Origin,University of Winnipeg Spectrophotometer Facility
Sample Description,"RELAB + Nicolet merged data for spinels. Merged @2500nm, different viewing geometries. See Master Spinels in the PSF database for additional information."
Date Added,2016-11-08 17:54:00.217717

Data ID,RLA_SPI_03          
Sample ID,SPI112
Mineral Name,Spinel
Grain Size,<45
Viewing Geometry,"30/0,30/30"
Resolution,5/1.2-129
Composition,"Fe,Zn"
Material Class,Oxide

Wavelength
300.0,0.053642
305.0,0.054531
310.0,0.056251
315.0,0.056559
320.0,0.058144
325.0,0.057816
330.0,0.057858
335.0,0.057305
340.0,0.056991
345.0,0.056994
350.0,0.056963
355.0,0.057113
360.0,0.057188
365.0,0.056993
370.0,0.057005
375.0,0.056937
380.0,0.056602
385.0,0.056539
390.0,0.056228
395.0,0.056287
400.0,0.056115
405.0,0.056398
410.0,0.056466
415.0,0.056654
420.0,0.056708
425.0,0.057147
430.0,0.057468
435.0,0.057371
440.0,0.057315
445.0,0.057141
450.0,0.056553
455.0,0.056248
460.0,0.056059
465.0,0.055871
470.0,0.055695
475.0,0.055549
480.0,0.055498
485.0,0.055502
490.0,0.055455
495.0,0.05557
500.0,0.055603
505.0,0.055839
510.0,0.056238
515.0,0.056401
520.0,0.056945
525.0,0.05706
530.0,0.057411
535.0,0.057792
540.0,0.058212
545.0,0.05855
550.0,0.0587
555.0,0.058929
560.0,0.059253
565.0,0.059214
570.0,0.059357
575.0,0.059665
580.0,0.059887
585.0,0.060152
590.0,0.060431
595.0,0.060731
600.0,0.061046
605.0,0.061407
610.0,0.061903
615.0,0.062296
620.0,0.062771
625.0,0.063034
630.0,0.063493
635.0,0.063774
640.0,0.064076
645.0,0.064398
650.0,0.064515
655.0,0.064778
660.0,0.064938
665.0,0.065109
670.0,0.065268
675.0,0.065514
680.0,0.065555
685.0,0.065479
690.0,0.065699
695.0,0.065899
700.0,0.065872
705.0,0.066059
710.0,0.06594
715.0,0.066061
720.0,0.065969
725.0,0.066159
730.0,0.066281
735.0,0.066365
740.0,0.06637
745.0,0.066478
750.0,0.066484
755.0,0.066453
760.0,0.06656
765.0,0.066462
770.0,0.066552
775.0,0.066552
780.0,0.066617
785.0,0.06616
790.0,0.066275
795.0,0.066123
800.0,0.06609
805.0,0.066373
810.0,0.065749
815.0,0.065909
820.0,0.065701
825.0,0.066013
830.0,0.06525
835.0,0.065127
840.0,0.065125
845.0,0.064961
850.0,0.065048
855.0,0.065076
860.0,0.064382
865.0,0.064006
870.0,0.064097
875.0,0.06401
880.0,0.064005
885.0,0.063568
890.0,0.063818
895.0,0.063609
900.0,0.06393
905.0,0.063423
910.0,0.063698
915.0,0.062731
920.0,0.06258
925.0,0.062022
930.0,0.062392
935.0,0.062024
940.0,0.061846
945.0,0.06155
950.0,0.061394
955.0,0.06072
960.0,0.060639
965.0,0.060459
970.0,0.060263
975.0,0.05954
980.0,0.059285
985.0,0.059222
990.0,0.059131
995.0,0.058817
1000.0,0.058561
1005.0,0.058661
1010.0,0.058141
1015.0,0.05776
1020.0,0.057563
1025.0,0.05745
1030.0,0.057259
1035.0,0.05706
1040.0,0.056962
1045.0,0.05675
1050.0,0.056576
1055.0,0.056536
1060.0,0.056253
1065.0,0.056158
1070.0,0.05581
1075.0,0.055523
1080.0,0.055534
1085.0,0.055467
1090.0,0.055208
1095.0,0.055003
1100.0,0.054826
1105.0,0.054732
1110.0,0.054583
1115.0,0.054383
1120.0,0.054439
1125.0,0.05431
1130.0,0.054147
1135.0,0.054044
1140.0,0.05403
1145.0,0.053636
1150.0,0.053731
1155.0,0.053625
1160.0,0.053367
1165.0,0.053439
1170.0,0.053431
1175.0,0.053201
1180.0,0.053046
1185.0,0.05297
1190.0,0.052914
1195.0,0.05309
1200.0,0.052866
1205.0,0.052864
1210.0,0.053123
1215.0,0.052757
1220.0,0.052671
1225.0,0.05262
1230.0,0.052435
1235.0,0.052431
1240.0,0.052227
1245.0,0.051875
1250.0,0.052126
1255.0,0.052048
1260.0,0.052078
1265.0,0.052126
1270.0,0.052127
1275.0,0.051769
1280.0,0.051984
1285.0,0.051864
1290.0,0.051664
1295.0,0.051696
1300.0,0.051506
1305.0,0.051748
1310.0,0.051626
1315.0,0.051596
1320.0,0.051565
1325.0,0.051556
1330.0,0.051569
1335.0,0.051455
1340.0,0.051387
1345.0,0.051559
1350.0,0.051398
1355.0,0.05158
1360.0,0.051394
1365.0,0.051349
1370.0,0.051364
1375.0,0.051442
1380.0,0.051595
1385.0,0.051287
1390.0,0.051452
1395.0,0.05144
1400.0,0.051311
1405.0,0.051391
1410.0,0.051612
1415.0,0.051513
1420.0,0.051233
1425.0,0.05132
1430.0,0.051435
1435.0,0.051252
1440.0,0.05153
1445.0,0.051485
1450.0,0.05137
1455.0,0.051468
1460.0,0.051289
1465.0,0.05162
1470.0,0.051609
1475.0,0.051483
1480.0,0.051511
1485.0,0.051842
1490.0,0.051611
1495.0,0.05154
1500.0,0.051486
1505.0,0.051575
1510.0,0.051529
1515.0,0.051462
1520.0,0.051595
1525.0,0.051551
1530.0,0.051558
1535.0,0.05161
1540.0,0.051709
1545.0,0.05176
1550.0,0.051738
1555.0,0.051908
1560.0,0.051748
1565.0,0.051765
1570.0,0.051899
1575.0,0.052231
1580.0,0.052206
1585.0,0.052126
1590.0,0.052293
1595.0,0.052362
1600.0,0.052317
1605.0,0.052414
1610.0,0.052335
1615.0,0.052377
1620.0,0.052394
1625.0,0.052369
1630.0,0.052468
1635.0,0.052074
1640.0,0.052231
1645.0,0.052541
1650.0,0.05241
1655.0,0.052452
1660.0,0.052487
1665.0,0.052532
1670.0,0.052384
1675.0,0.052616
1680.0,0.052551
1685.0,0.052486
1690.0,0.052335
1695.0,0.052227
1700.0,0.052799
1705.0,0.052733
1710.0,0.052621
1715.0,0.052689
1720.0,0.052768
1725.0,0.052819
1730.0,0.052869
1735.0,0.052821
1740.0,0.052934
1745.0,0.052808
1750.0,0.052908
1755.0,0.052834
1760.0,0.052989
1765.0,0.052965
1770.0,0.052939
1775.0,0.053018
1780.0,0.05314
1785.0,0.053419
1790.0,0.053194
1795.0,0.053324
1800.0,0.053252
1805.0,0.053239
1810.0,0.053441
1815.0,0.053344
1820.0,0.053488
1825.0,0.053467
1830.0,0.053646
1835.0,0.053354
1840.0,0.053622
1845.0,0.053664
1850.0,0.053718
1855.0,0.053698
1860.0,0.05388
1865.0,0.05398
1870.0,0.053864
1875.0,0.054018
1880.0,0.053886
1885.0,0.053953
1890.0,0.054114
1895.0,0.054076
1900.0,0.054035
1905.0,0.054108
1910.0,0.054276
1915.0,0.054154
1920.0,0.054165
1925.0,0.054389
1930.0,0.054291
1935.0,0.054148
1940.0,0.054198
1945.0,0.054274
1950.0,0.054504
1955.0,0.054424
1960.0,0.054475
1965.0,0.054684
1970.0,0.05458
1975.0,0.05468
1980.0,0.054628
1985.0,0.054682
1990.0,0.054758
1995.0,0.054828
2000.0,0.054874
2005.0,0.054736
2010.0,0.054967
2015.0,0.055067
2020.0,0.055239
2025.0,0.05527
2030.0,0.055315
2035.0,0.055511
2040.0,0.055408
2045.0,0.055478
2050.0,0.05544
2055.0,0.055556
2060.0,0.055561
2065.0,0.055522
2070.0,0.055563
2075.0,0.055574
2080.0,0.055708
2085.0,0.05575
2090.0,0.055943
2095.0,0.056078
2100.0,0.056005
2105.0,0.056043
2110.0,0.05615
2115.0,0.055962
2120.0,0.056316
2125.0,0.056277
2130.0,0.056251
2135.0,0.056279
2140.0,0.056309
2145.0,0.056285
2150.0,0.056437
2155.0,0.056388
2160.0,0.05637
2165.0,0.056342
2170.0,0.056377
2175.0,0.056382
2180.0,0.056396
2185.0,0.056416
2190.0,0.056533
2195.0,0.056694
2200.0,0.056556
2205.0,0.056688
2210.0,0.056774
2215.0,0.056736
2220.0,0.056845
2225.0,0.056912
2230.0,0.056978
2235.0,0.057003
2240.0,0.057075
2245.0,0.056933
2250.0,0.057079
2255.0,0.057195
2260.0,0.057291
2265.0,0.057236
2270.0,0.057464
2275.0,0.05754
2280.0,0.057597
2285.0,0.05757
2290.0,0.057712
2295.0,0.057694
2300.0,0.057772
2305.0,0.057813
2310.0,0.057998
2315.0,0.057951
2320.0,0.058179
2325.0,0.058058
2330.0,0.058044
2335.0,0.05815
2340.0,0.058189
2345.0,0.058429
2350.0,0.058536
2355.0,0.058406
2360.0,0.058324
2365.0,0.058635
2370.0,0.058635
2375.0,0.058557
2380.0,0.058676
2385.0,0.058534
2390.0,0.058824
2395.0,0.058955
2400.0,0.059001
2405.0,0.059211
2410.0,0.059056
2415.0,0.059254
2420.0,0.05963
2425.0,0.059819
2430.0,0.059795
2435.0,0.059672
2440.0,0.059827
2445.0,0.059714
2450.0,0.059728
2455.0,0.059957
2460.0,0.059794
2465.0,0.059845
2470.0,0.059943
2475.0,0.059849
2480.0,0.060136
2485.0,0.059983
2490.0,0.060318
2495.0,0.060352
2500.0,0.060361
2502.0,0.060224
2503.2,0.0603
2504.41,0.060243
2505.62,0.060206
2506.83,0.060723
2508.05,0.061241
2509.26,0.06121
2510.48,0.061128
2511.69,0.060901
2512.91,0.060441
2514.13,0.060758
2515.35,0.060964
2516.57,0.060878
2517.79,0.060573
2519.02,0.06036
2520.24,0.060475
2521.47,0.060456
2522.69,0.060686
2523.92,0.060999
2525.15,0.061335
2526.38,0.061271
2527.61,0.061037
2528.85,0.061018
2530.08,0.061335
2531.32,0.061357
2532.55,0.06133
2533.79,0.061579
2535.03,0.0614
2536.27,0.061312
2537.51,0.06146
2538.75,0.061259
2540.0,0.061294
2541.24,0.06138
2542.49,0.06127
2543.74,0.061304
2544.99,0.061421
2546.24,0.061348
2547.49,0.061216
2548.74,0.061305
2549.99,0.06133
2551.25,0.061144
2552.5,0.061433
2553.76,0.061831
2555.02,0.06165
2556.28,0.061815
2557.54,0.061594
2558.8,0.061282
2560.07,0.061294
2561.33,0.061654
2562.6,0.06182
2563.86,0.061833
2565.13,0.062297
2566.4,0.061931
2567.67,0.061498
2568.95,0.061457
2570.22,0.061475
2571.5,0.061722
2572.77,0.06172
2574.05,0.061744
2575.33,0.061882
2576.61,0.06197
2577.89,0.062311
2579.17,0.062417
2580.46,0.062134
2581.74,0.061864
2583.03,0.061448
2584.31,0.061284
2585.6,0.061477
2586.89,0.061701
2588.19,0.062007
2589.48,0.062105
2590.77,0.061885
2592.07,0.062139
2593.36,0.062625
2594.66,0.06278
2595.96,0.062323
2597.26,0.062298
2598.56,0.06221
2599.87,0.061853
2601.17,0.061889
2602.48,0.062295
2603.78,0.06262
2605.09,0.062622
2606.4,0.062405
2607.71,0.062395
2609.03,0.062547
2610.34,0.063072
2611.66,0.063432
2612.97,0.063179
2614.29,0.062867
2615.61,0.062877
2616.93,0.062857
2618.25,0.062723
2619.57,0.062969
2620.9,0.063298
2622.22,0.063135
2623.55,0.063035
2624.88,0.063266
2626.21,0.063228
2627.54,0.063149
2628.87,0.063209
2630.21,0.063388
2631.54,0.063034
2632.88,0.063074
2634.21,0.063117
2635.55,0.063097
2636.89,0.06344
2638.24,0.063408
2639.58,0.063364
2640.92,0.063498
2642.27,0.06334
2643.62,0.062867
2644.97,0.063064
2646.32,0.063335
2647.67,0.063459
2649.02,0.063664
2650.38,0.063707
2651.73,0.063657
2653.09,0.06386
2654.45,0.063741
2655.81,0.063426
2657.17,0.063301
2658.53,0.063498
2659.89,0.063575
2661.26,0.063803
2662.63,0.063908
2664.0,0.063506
2665.36,0.063163
2666.74,0.063451
2668.11,0.063827
2669.48,0.06374
2670.86,0.06365
2672.23,0.063938
2673.61,0.063966
2674.99,0.063697
2676.37,0.063508
2677.76,0.063968
2679.14,0.064339
2680.52,0.064361
2681.91,0.064254
2683.3,0.064384
2684.69,0.064248
2686.08,0.063966
2687.47,0.063917
2688.87,0.064103
2690.26,0.063933
2691.66,0.063812
2693.06,0.063683
2694.46,0.06399
2695.86,0.064344
2697.26,0.064424
2698.66,0.064406
2700.07,0.064532
2701.48,0.064635
2702.89,0.064651
2704.3,0.064374
2705.71,0.063752
2707.12,0.063753
2708.53,0.064161
2709.95,0.064326
2711.37,0.064401
2712.79,0.064533
2714.21,0.064265
2715.63,0.063999
2717.05,0.064372
2718.48,0.064399
2719.9,0.064253
2721.33,0.064384
2722.76,0.064481
2724.19,0.064336
2725.62,0.064713
2727.06,0.064703
2728.49,0.06434
2729.93,0.064308
2731.37,0.064632
2732.81,0.064917
2734.25,0.064938
2735.69,0.065024
2737.14,0.064838
2738.58,0.064654
2740.03,0.065001
2741.48,0.065043
2742.93,0.064814
2744.38,0.064899
2745.83,0.064999
2747.29,0.065141
2748.75,0.065379
2750.2,0.06528
2751.66,0.065145
2753.13,0.065097
2754.59,0.064958
2756.05,0.06516
2757.52,0.065269
2758.99,0.065144
2760.46,0.065277
2761.93,0.065258
2763.4,0.065154
2764.87,0.065027
2766.35,0.065221
2767.82,0.065604
2769.3,0.065753
2770.78,0.065567
2772.26,0.065626
2773.75,0.065879
2775.23,0.065922
2776.72,0.065747
2778.21,0.065677
2779.7,0.065629
2781.19,0.065738
2782.68,0.065932
2784.18,0.06594
2785.67,0.065858
2787.17,0.066027
2788.67,0.06616
2790.17,0.06586
2791.67,0.065852
2793.18,0.06611
2794.68,0.066013
2796.19,0.065872
2797.7,0.065873
2799.21,0.066221
2800.72,0.066465
2802.24,0.066209
2803.75,0.066206
2805.27,0.066548
2806.79,0.066562
2808.31,0.066506
2809.83,0.066103
2811.35,0.065763
2812.88,0.065926
2814.41,0.066136
2815.93,0.066095
2817.46,0.066385
2819.0,0.0665
2820.53,0.066286
2822.07,0.066638
2823.6,0.066619
2825.14,0.066689
2826.68,0.066735
2828.22,0.066514
2829.77,0.066332
2831.31,0.066477
2832.86,0.066606
2834.41,0.066601
2835.96,0.066701
2837.51,0.066869
2839.07,0.066926
2840.62,0.066717
2842.18,0.066426
2843.74,0.066583
2845.3,0.066848
2846.86,0.066757
2848.43,0.066574
2849.99,0.066564
2851.56,0.066871
2853.13,0.066832
2854.7,0.066827
2856.27,0.067188
2857.85,0.067396
2859.42,0.067266
2861.0,0.066951
2862.58,0.067055
2864.16,0.06697
2865.75,0.067048
2867.33,0.067176
2868.92,0.067126
2870.51,0.067137
2872.1,0.067212
2873.69,0.067412
2875.28,0.067383
2876.88,0.067235
2878.48,0.067191
2880.07,0.067087
2881.68,0.067004
2883.28,0.067095
2884.88,0.067211
2886.49,0.067314
2888.1,0.06725
2889.71,0.067323
2891.32,0.067559
2892.93,0.067542
2894.55,0.067653
2896.16,0.067717
2897.78,0.067788
2899.4,0.0678
2901.03,0.067686
2902.65,0.067715
2904.28,0.067791
2905.91,0.067852
2907.54,0.067989
2909.17,0.067987
2910.8,0.067822
2912.44,0.067963
2914.07,0.068049
2915.71,0.06792
2917.35,0.06811
2918.99,0.068205
2920.64,0.067992
2922.29,0.067834
2923.93,0.067982
2925.58,0.068359
2927.24,0.068542
2928.89,0.068467
2930.55,0.068327
2932.2,0.068239
2933.86,0.06819
2935.52,0.06812
2937.19,0.06795
2938.85,0.068017
2940.52,0.068298
2942.19,0.068647
2943.86,0.06858
2945.53,0.068436
2947.21,0.068582
2948.88,0.0687
2950.56,0.068523
2952.24,0.068619
2953.92,0.068587
2955.61,0.06861
2957.29,0.068905
2958.98,0.068789
2960.67,0.068869
2962.36,0.068874
2964.06,0.068658
2965.75,0.068846
2967.45,0.069056
2969.15,0.069177
2970.85,0.069369
2972.55,0.069254
2974.26,0.069153
2975.97,0.069144
2977.68,0.069274
2979.39,0.069438
2981.1,0.069284
2982.82,0.069213
2984.53,0.069237
2986.25,0.069187
2987.97,0.06925
2989.7,0.069391
2991.42,0.069532
2993.15,0.069585
2994.88,0.06945
2996.61,0.069274
2998.34,0.069359
3000.08,0.069779
3001.82,0.069977
3003.55,0.069625
3005.3,0.06932
3007.04,0.069492
3008.78,0.069723
3010.53,0.069823
3012.28,0.069735
3014.03,0.069812
3015.79,0.069761
3017.54,0.069732
3019.3,0.069759
3021.06,0.069762
3022.82,0.069803
3024.58,0.069717
3026.35,0.069695
3028.12,0.070016
3029.89,0.069999
3031.66,0.069962
3033.43,0.070129
3035.21,0.070215
3036.99,0.070106
3038.77,0.069992
3040.55,0.070199
3042.33,0.070249
3044.12,0.070191
3045.91,0.070176
3047.7,0.070232
3049.49,0.070376
3051.29,0.070471
3053.08,0.07034
3054.88,0.070255
3056.68,0.070329
3058.49,0.070469
3060.29,0.070648
3062.1,0.070633
3063.91,0.070456
3065.72,0.070245
3067.54,0.070185
3069.35,0.070275
3071.17,0.070343
3072.99,0.070471
3074.81,0.07055
3076.64,0.070512
3078.47,0.070614
3080.29,0.070657
3082.13,0.070665
3083.96,0.070668
3085.79,0.070573
3087.63,0.070685
3089.47,0.070795
3091.31,0.070777
3093.16,0.070703
3095.01,0.070911
3096.85,0.070969
3098.71,0.070901
3100.56,0.071069
3102.41,0.071061
3104.27,0.070911
3106.13,0.071038
3107.99,0.0712
3109.86,0.071163
3111.73,0.071292
3113.59,0.071436
3115.47,0.071193
3117.34,0.070927
3119.21,0.070951
3121.09,0.071098
3122.97,0.071293
3124.86,0.071352
3126.74,0.071513
3128.63,0.071514
3130.52,0.071243
3132.41,0.071224
3134.3,0.071428
3136.2,0.071736
3138.1,0.071637
3140.0,0.071369
3141.9,0.071418
3143.81,0.071561
3145.71,0.071751
3147.62,0.071824
3149.54,0.071801
3151.45,0.071762
3153.37,0.071779
3155.29,0.07176
3157.21,0.071836
3159.13,0.07187
3161.06,0.071994
3162.99,0.072244
3164.92,0.072321
3166.85,0.072145
3168.79,0.072048
3170.72,0.072108
3172.67,0.072135
3174.61,0.07212
3176.55,0.072362
3178.5,0.072536
3180.45,0.0725
3182.4,0.07229
3184.36,0.072327
3186.32,0.072568
3188.27,0.072744
3190.24,0.072504
3192.2,0.072353
3194.17,0.072522
3196.14,0.072586
3198.11,0.072524
3200.08,0.07259
3202.06,0.072701
3204.04,0.072841
3206.02,0.072757
3208.0,0.072658
3209.99,0.0727
3211.98,0.072686
3213.97,0.072845
3215.96,0.072973
3217.96,0.073112
3219.96,0.073156
3221.96,0.072996
3223.96,0.072996
3225.97,0.073167
3227.98,0.073328
3229.99,0.073388
3232.0,0.073476
3234.02,0.073331
3236.04,0.073289
3238.06,0.073366
3240.08,0.073379
3242.11,0.073495
3244.14,0.073621
3246.17,0.073623
3248.2,0.073561
3250.24,0.073497
3252.28,0.073564
3254.32,0.073708
3256.37,0.07364
3258.41,0.073636
3260.46,0.073755
3262.51,0.07386
3264.57,0.07383
3266.63,0.073799
3268.69,0.073951
3270.75,0.073958
3272.81,0.073895
3274.88,0.073902
3276.95,0.073935
3279.02,0.07403
3281.1,0.074058
3283.18,0.074063
3285.26,0.074178
3287.34,0.074288
3289.43,0.074267
3291.51,0.07428
3293.61,0.07436
3295.7,0.074382
3297.8,0.074492
3299.9,0.074542
3302.0,0.074501
3304.1,0.074481
3306.21,0.074492
3308.32,0.07452
3310.43,0.074422
3312.55,0.074553
3314.66,0.074704
3316.79,0.074682
3318.91,0.074667
3321.03,0.07466
3323.16,0.074549
3325.29,0.074568
3327.43,0.074683
3329.57,0.07478
3331.71,0.074842
3333.85,0.074814
3335.99,0.074824
3338.14,0.074777
3340.29,0.074693
3342.45,0.074753
3344.6,0.07479
3346.76,0.07468
3348.92,0.074726
3351.09,0.074967
3353.26,0.075064
3355.43,0.074977
3357.6,0.074901
3359.78,0.074749
3361.96,0.074672
3364.14,0.074694
3366.32,0.074852
3368.51,0.07494
3370.7,0.0749
3372.89,0.074947
3375.09,0.075087
3377.29,0.075225
3379.49,0.075223
3381.69,0.075099
3383.9,0.074976
3386.11,0.074817
3388.32,0.074823
3390.54,0.07493
3392.76,0.075177
3394.98,0.075283
3397.21,0.075177
3399.43,0.075135
3401.66,0.075308
3403.9,0.075395
3406.13,0.07545
3408.37,0.075644
3410.61,0.075683
3412.86,0.07557
3415.11,0.075644
3417.36,0.075643
3419.61,0.075644
3421.87,0.075806
3424.13,0.075916
3426.39,0.075936
3428.66,0.075908
3430.93,0.075843
3433.2,0.075913
3435.48,0.076107
3437.76,0.076173
3440.04,0.076114
3442.32,0.076176
3444.61,0.07636
3446.9,0.076381
3449.19,0.076371
3451.49,0.076574
3453.79,0.076527
3456.09,0.076457
3458.4,0.076658
3460.7,0.076764
3463.02,0.076778
3465.33,0.076718
3467.65,0.076669
3469.97,0.076735
3472.29,0.076797
3474.62,0.076892
3476.95,0.077069
3479.29,0.077144
3481.62,0.077205
3483.96,0.077187
3486.3,0.077164
3488.65,0.077246
3491.0,0.077163
3493.35,0.077177
3495.71,0.077345
3498.07,0.077433
3500.43,0.077488
3502.79,0.077576
3505.16,0.07757
3507.53,0.077537
3509.91,0.077621
3512.29,0.077773
3514.67,0.0778
3517.05,0.07785
3519.44,0.07791
3521.83,0.077815
3524.23,0.077792
3526.62,0.078021
3529.02,0.078221
3531.43,0.078344
3533.83,0.078274
3536.24,0.078325
3538.66,0.078441
3541.08,0.07841
3543.5,0.078366
3545.92,0.078515
3548.35,0.078601
3550.78,0.07847
3553.21,0.07858
3555.65,0.078738
3558.09,0.0788
3560.53,0.078843
3562.98,0.078875
3565.43,0.078907
3567.88,0.078729
3570.34,0.07874
3572.8,0.078997
3575.27,0.079146
3577.73,0.079131
3580.2,0.079147
3582.68,0.07932
3585.16,0.079354
3587.64,0.079429
3590.12,0.079692
3592.61,0.07963
3595.1,0.079441
3597.6,0.079464
3600.09,0.079584
3602.6,0.079563
3605.1,0.079463
3607.61,0.079527
3610.12,0.079634
3612.64,0.079638
3615.16,0.079706
3617.68,0.079874
3620.21,0.079967
3622.74,0.079883
3625.27,0.079935
3627.81,0.080123
3630.35,0.080168
3632.89,0.080124
3635.44,0.080064
3637.99,0.080171
3640.54,0.080308
3643.1,0.080297
3645.66,0.080394
3648.23,0.080474
3650.8,0.080434
3653.37,0.080453
3655.95,0.08052
3658.53,0.08051
3661.11,0.080512
3663.7,0.080688
3666.29,0.080809
3668.89,0.080664
3671.48,0.080722
3674.09,0.080829
3676.69,0.080841
3679.3,0.080964
3681.91,0.081058
3684.53,0.081003
3687.15,0.081122
3689.78,0.081188
3692.4,0.081374
3695.04,0.081539
3697.67,0.081464
3700.31,0.081395
3702.95,0.081427
3705.6,0.081438
3708.25,0.081452
3710.91,0.081531
3713.56,0.081702
3716.23,0.081801
3718.89,0.081769
3721.56,0.081752
3724.23,0.081849
3726.91,0.081876
3729.59,0.081861
3732.28,0.081914
3734.97,0.082027
3737.66,0.082024
3740.36,0.082058
3743.06,0.082045
3745.76,0.082085
3748.47,0.082124
3751.18,0.082239
3753.9,0.082412
3756.62,0.082592
3759.34,0.082549
3762.07,0.082509
3764.8,0.082548
3767.54,0.082564
3770.28,0.08259
3773.02,0.082676
3775.77,0.082792
3778.52,0.082895
3781.28,0.08295
3784.04,0.08303
3786.8,0.083143
3789.57,0.083143
3792.34,0.083175
3795.12,0.083146
3797.9,0.083099
3800.69,0.083169
3803.47,0.083216
3806.27,0.083229
3809.06,0.083318
3811.86,0.083515
3814.67,0.083536
3817.48,0.083421
3820.29,0.08341
3823.11,0.083579
3825.93,0.083651
3828.76,0.083676
3831.59,0.083755
3834.42,0.083928
3837.26,0.083932
3840.1,0.083982
3842.95,0.08397
3845.8,0.083862
3848.65,0.083852
3851.51,0.083875
3854.38,0.083944
3857.24,0.084134
3860.12,0.084268
3862.99,0.084336
3865.87,0.084305
3868.76,0.084286
3871.65,0.084297
3874.54,0.084344
3877.44,0.084602
3880.34,0.084622
3883.25,0.084446
3886.16,0.084458
3889.07,0.084637
3891.99,0.084764
3894.92,0.084667
3897.85,0.084561
3900.78,0.084707
3903.72,0.084916
3906.66,0.084884
3909.6,0.084841
3912.55,0.084903
3915.51,0.084983
3918.47,0.085076
3921.43,0.085115
3924.4,0.08513
3927.38,0.085226
3930.35,0.085333
3933.33,0.085316
3936.32,0.0852
3939.31,0.085154
3942.31,0.085236
3945.31,0.085318
3948.31,0.085411
3951.32,0.085474
3954.34,0.085503
3957.35,0.085549
3960.38,0.085533
3963.41,0.085547
3966.44,0.085616
3969.48,0.085739
3972.52,0.085725
3975.56,0.085714
3978.61,0.08577
3981.67,0.085894
3984.73,0.085926
3987.8,0.085922
3990.87,0.086033
3993.94,0.086145
3997.02,0.086175
4000.1,0.086208
4003.19,0.086247
4006.29,0.086362
4009.39,0.086452
4012.49,0.086527
4015.6,0.086555
4018.71,0.086497
4021.83,0.08654
4024.95,0.086653
4028.08,0.086634
4031.21,0.086658
4034.35,0.086916
4037.49,0.087093
4040.64,0.087102
4043.79,0.087064
4046.94,0.087178
4050.11,0.087339
4053.27,0.087409
4056.44,0.08737
4059.62,0.087327
4062.8,0.087362
4065.99,0.087401
4069.18,0.087475
4072.38,0.087469
4075.58,0.087605
4078.78,0.087687
4082.0,0.087674
4085.21,0.087701
4088.43,0.087807
4091.66,0.087822
4094.89,0.087933
4098.13,0.088
4101.37,0.087996
4104.62,0.08803
4107.87,0.088137
4111.13,0.088169
4114.39,0.088211
4117.66,0.088291
4120.93,0.088341
4124.21,0.088436
4127.5,0.088514
4130.79,0.088494
4134.08,0.088548
4137.38,0.088567
4140.68,0.088664
4143.99,0.088774
4147.31,0.088764
4150.63,0.088773
4153.95,0.088832
4157.29,0.088851
4160.62,0.088954
4163.96,0.08899
4167.31,0.088963
4170.66,0.088961
4174.02,0.089046
4177.39,0.08911
4180.75,0.089006
4184.13,0.089157
4187.51,0.08932
4190.89,0.08937
4194.28,0.089416
4197.68,0.089505
4201.08,0.089606
4204.49,0.089593
4207.9,0.089694
4211.32,0.089738
4214.74,0.089759
4218.17,0.089851
4221.61,0.089931
4225.05,0.089993
4228.5,0.090019
4231.95,0.090038
4235.4,0.090086
4238.87,0.090236
4242.34,0.090405
4245.81,0.090405
4249.29,0.09042
4252.78,0.090366
4256.27,0.090357
4259.77,0.090411
4263.27,0.090461
4266.78,0.09062
4270.29,0.090741
4273.81,0.090777
4277.34,0.090758
4280.87,0.090847
4284.41,0.090982
4287.95,0.091049
4291.5,0.091044
4295.06,0.09105
4298.62,0.091111
4302.19,0.091161
4305.76,0.091242
4309.34,0.091328
4312.92,0.091309
4316.52,0.091292
4320.11,0.091349
4323.72,0.09137
4327.32,0.091482
4330.94,0.091661
4334.56,0.091842
4338.19,0.091853
4341.82,0.09179
4345.46,0.091786
4349.11,0.091859
4352.76,0.091946
4356.42,0.09191
4360.08,0.091945
4363.75,0.09212
4367.43,0.092184
4371.11,0.092101
4374.8,0.09225
4378.49,0.092457
4382.19,0.092453
4385.9,0.092481
4389.61,0.092521
4393.33,0.09251
4397.06,0.092609
4400.79,0.092772
4404.53,0.092761
4408.28,0.092772
4412.03,0.092811
4415.79,0.09281
4419.55,0.092803
4423.32,0.092843
4427.1,0.092896
4430.88,0.093017
4434.68,0.093094
4438.47,0.093211
4442.28,0.093371
4446.08,0.093431
4449.9,0.093415
4453.72,0.093435
4457.55,0.093555
4461.39,0.093672
4465.23,0.093727
4469.08,0.093826
4472.94,0.093946
4476.8,0.093982
4480.67,0.094057
4484.55,0.094058
4488.43,0.094067
4492.32,0.094117
4496.21,0.09414
4500.12,0.094159
4504.03,0.094253
4507.94,0.094345
4511.87,0.094426
4515.8,0.094496
4519.73,0.094509
4523.68,0.094563
4527.63,0.094613
4531.59,0.094728
4535.55,0.094814
4539.52,0.094886
4543.5,0.094876
4547.49,0.094898
4551.48,0.09496
4555.48,0.095019
4559.49,0.095061
4563.5,0.095094
4567.52,0.095216
4571.55,0.095362
4575.58,0.095378
4579.63,0.095392
4583.67,0.095457
4587.73,0.095564
4591.79,0.095627
4595.86,0.095691
4599.94,0.095647
4604.03,0.095636
4608.12,0.095815
4612.22,0.095982
4616.33,0.09598
4620.44,0.096005
4624.56,0.096086
4628.69,0.096131
4632.83,0.0961
4636.97,0.096226
4641.12,0.096288
4645.28,0.09629
4649.45,0.096346
4653.62,0.096428
4657.8,0.096511
4661.99,0.096703
4666.19,0.096717
4670.39,0.096681
4674.6,0.096691
4678.82,0.096794
4683.05,0.096853
4687.28,0.096937
4691.52,0.097002
4695.77,0.097032
4700.03,0.097097
4704.3,0.097123
4708.57,0.09725
4712.85,0.097421
4717.14,0.097486
4721.43,0.097554
4725.74,0.097594
4730.05,0.097624
4734.37,0.097717
4738.7,0.097791
4743.03,0.097763
4747.38,0.097827
4751.73,0.097912
4756.09,0.097998
4760.45,0.098027
4764.83,0.09811
4769.21,0.098248
4773.6,0.098319
4778.0,0.098329
4782.41,0.098349
4786.83,0.098451
4791.25,0.098603
4795.68,0.098555
4800.13,0.098545
4804.57,0.098653
4809.03,0.098708
4813.5,0.098755
4817.97,0.098819
4822.45,0.098873
4826.94,0.098949
4831.44,0.099016
4835.95,0.099053
4840.46,0.099154
4844.99,0.099289
4849.52,0.099345
4854.06,0.099336
4858.61,0.099312
4863.17,0.099405
4867.73,0.09953
4872.31,0.099635
4876.89,0.099646
4881.48,0.099754
4886.08,0.099859
4890.69,0.099915
4895.31,0.099945
4899.94,0.100042
4904.57,0.100184
4909.22,0.100245
4913.87,0.100166
4918.53,0.1002
4923.21,0.100297
4927.88,0.100332
4932.57,0.100391
4937.27,0.100481
4941.98,0.100589
4946.69,0.100712
4951.42,0.100824
4956.15,0.100921
4960.9,0.1009
4965.65,0.100908
4970.41,0.100976
4975.18,0.100989
4979.96,0.101018
4984.75,0.101102
4989.54,0.10113
4994.35,0.101168
4999.17,0.101295
5003.99,0.101383
5008.83,0.101462
5013.67,0.101505
5018.52,0.101504
5023.39,0.101527
5028.26,0.101691
5033.14,0.101839
5038.03,0.101814
5042.93,0.101834
5047.84,0.101965
5052.76,0.102091
5057.69,0.102125
5062.63,0.102152
5067.58,0.102209
5072.54,0.102308
5077.51,0.102345
5082.49,0.102439
5087.47,0.1025
5092.47,0.102569
5097.48,0.102609
5102.5,0.102638
5107.52,0.102753
5112.56,0.102797
5117.61,0.102794
5122.66,0.102927
5127.73,0.103008
5132.81,0.103073
5137.89,0.103145
5142.99,0.103176
5148.1,0.103191
5153.22,0.10327
5158.34,0.103349
5163.48,0.103456
5168.63,0.103499
5173.79,0.103596
5178.96,0.103636
5184.13,0.103719
5189.32,0.1038
5194.52,0.103857
5199.73,0.103951
5204.96,0.10401
5210.19,0.104035
5215.43,0.104111
5220.68,0.104215
5225.94,0.104273
5231.22,0.104295
5236.5,0.104316
5241.79,0.104348
5247.1,0.104409
5252.42,0.10446
5257.74,0.104541
5263.08,0.104647
5268.43,0.104686
5273.79,0.104738
5279.16,0.104846
5284.54,0.104938
5289.93,0.105025
5295.34,0.105028
5300.75,0.104989
5306.18,0.105095
5311.61,0.105177
5317.06,0.105232
5322.52,0.105339
5327.99,0.105356
5333.47,0.105398
5338.96,0.10551
5344.47,0.105582
5349.98,0.105605
5355.51,0.105641
5361.05,0.105632
5366.6,0.105679
5372.16,0.105813
5377.73,0.105965
5383.32,0.106037
5388.91,0.106035
5394.52,0.106057
5400.14,0.106161
5405.77,0.106201
5411.41,0.1062
5417.07,0.106278
5422.74,0.106418
5428.41,0.106428
5434.1,0.106356
5439.81,0.106383
5445.52,0.106482
5451.25,0.106593
5456.98,0.106648
5462.73,0.106702
5468.5,0.106833
5474.27,0.106908
5480.06,0.106941
5485.86,0.106928
5491.67,0.106913
5497.49,0.106931
5503.33,0.107005
5509.18,0.107104
5515.04,0.107109
5520.91,0.107047
5526.8,0.107046
5532.69,0.107056
5538.61,0.10712
5544.53,0.107098
5550.47,0.107063
5556.41,0.107066
5562.38,0.107082
5568.35,0.107138
5574.34,0.107261
5580.34,0.107377
5586.35,0.107497
5592.38,0.107626
5598.42,0.107747
5604.47,0.107945
5610.54,0.108109
5616.61,0.108106
5622.71,0.108071
5628.81,0.108123
5634.93,0.108225
5641.06,0.108334
5647.21,0.108522
5653.36,0.108595
5659.54,0.108618
5665.72,0.108575
5671.92,0.108567
5678.13,0.108566
5684.36,0.108667
5690.6,0.108775
5696.85,0.108799
5703.12,0.108807
5709.4,0.108897
5715.69,0.109024
5722.0,0.109085
5728.33,0.109153
5734.66,0.109201
5741.01,0.109184
5747.38,0.109259
5753.76,0.109424
5760.15,0.109449
5766.56,0.109398
5772.98,0.109577
5779.41,0.109667
5785.86,0.10965
5792.33,0.109675
5798.81,0.109803
5805.3,0.109887
5811.81,0.109929
5818.33,0.109944
5824.87,0.1101
5831.42,0.110263
5837.99,0.110353
5844.57,0.110299
5851.17,0.11036
5857.78,0.110485
5864.41,0.110547
5871.05,0.110607
5877.7,0.110659
5884.38,0.110868
5891.06,0.110976
5897.76,0.110917
5904.48,0.110881
5911.21,0.110896
5917.96,0.110993
5924.73,0.111026
5931.5,0.110999
5938.3,0.111011
5945.11,0.111153
5951.93,0.111255
5958.78,0.111246
5965.63,0.11122
5972.51,0.11129
5979.39,0.111343
5986.3,0.111336
5993.22,0.11142
6000.16,0.111516
6007.11,0.111533
6014.08,0.111494
6021.06,0.111464
6028.06,0.111564
6035.08,0.11164
6042.12,0.111645
6049.17,0.111723
6056.23,0.11198
6063.32,0.111984
6070.42,0.111911
6077.53,0.111992
6084.67,0.112162
6091.82,0.112264
6098.98,0.112322
6106.17,0.112325
6113.37,0.112477
6120.58,0.112695
6127.82,0.112739
6135.07,0.112742
6142.34,0.112771
6149.63,0.112734
6156.93,0.112791
6164.25,0.112879
6171.59,0.112926
6178.95,0.113055
6186.32,0.113156
6193.71,0.113204
6201.12,0.113168
6208.54,0.113222
6215.99,0.113345
6223.45,0.113372
6230.93,0.113476
6238.43,0.113585
6245.95,0.113663
6253.48,0.113717
6261.03,0.113767
6268.6,0.11377
6276.19,0.113805
6283.8,0.113855
6291.43,0.113929
6299.07,0.113921
6306.73,0.113913
6314.42,0.114071
6322.12,0.114186
6329.84,0.114169
6337.57,0.114221
6345.33,0.114321
6353.11,0.114461
6360.9,0.114552
6368.72,0.114643
6376.55,0.114846
6384.4,0.114915
6392.27,0.114972
6400.17,0.11498
6408.08,0.114996
6416.01,0.1152
6423.96,0.115292
6431.93,0.115191
6439.92,0.115188
6447.93,0.115118
6455.96,0.115121
6464.01,0.115121
6472.08,0.114958
6480.17,0.114845
6488.28,0.114826
6496.41,0.114856
6504.56,0.114789
6512.73,0.114622
6520.92,0.114597
6529.14,0.114623
6537.37,0.114432
6545.63,0.114146
6553.9,0.114044
6562.2,0.113987
6570.51,0.113924
6578.85,0.113827
6587.21,0.113553
6595.59,0.113364
6603.99,0.113301
6612.42,0.113219
6620.86,0.113169
6629.33,0.112898
6637.82,0.112791
6646.33,0.112662
6654.86,0.112418
6663.41,0.112304
6671.99,0.112215
6680.59,0.11197
6689.21,0.111687
6697.85,0.111417
6706.51,0.111365
6715.2,0.11143
6723.91,0.111262
6732.64,0.110931
6741.4,0.110659
6750.18,0.110542
6758.98,0.110445
6767.8,0.110232
6776.65,0.110139
6785.52,0.110017
6794.41,0.109878
6803.33,0.109663
6812.27,0.109558
6821.23,0.10954
6830.22,0.109605
6839.23,0.109516
6848.26,0.109301
6857.32,0.109239
6866.4,0.10931
6875.51,0.109282
6884.64,0.109176
6893.8,0.109201
6902.98,0.109224
6912.18,0.109248
6921.41,0.109272
6930.66,0.109261
6939.94,0.10934
6949.24,0.109449
6958.57,0.109473
6967.92,0.109622
6977.3,0.109667
6986.7,0.10958
6996.13,0.109612
7005.59,0.109828
7015.07,0.11006
7024.57,0.110282
7034.1,0.110519
7043.66,0.110763
7053.25,0.111117
7062.85,0.111358
7072.49,0.111479
7082.15,0.11171
7091.84,0.112093
7101.55,0.112395
7111.3,0.112644
7121.06,0.112997
7130.86,0.11324
7140.68,0.113332
7150.53,0.113509
7160.41,0.113766
7170.31,0.114033
7180.24,0.114184
7190.2,0.114233
7200.19,0.114495
7210.2,0.114846
7220.24,0.11514
7230.31,0.115411
7240.41,0.115757
7250.54,0.115966
7260.69,0.116219
7270.88,0.116459
7281.09,0.116673
7291.33,0.116941
7301.6,0.117118
7311.9,0.117135
7322.22,0.117209
7332.58,0.117504
7342.97,0.117967
7353.38,0.118262
7363.83,0.118401
7374.3,0.118578
7384.81,0.118858
7395.34,0.119026
7405.91,0.119155
7416.5,0.119361
7427.13,0.119522
7437.78,0.119524
7448.47,0.119622
7459.19,0.11975
7469.94,0.11991
7480.71,0.120053
7491.52,0.120208
7502.37,0.120274
7513.24,0.120256
7524.14,0.120158
7535.08,0.120128
7546.05,0.120225
7557.05,0.120363
7568.08,0.12036
7579.15,0.120321
7590.24,0.120298
7601.37,0.120367
7612.53,0.120435
7623.73,0.12046
7634.96,0.120536
7646.22,0.120606
7657.51,0.120654
7668.84,0.120765
7680.2,0.120834
7691.59,0.120791
7703.02,0.120811
7714.49,0.120896
7725.98,0.120995
7737.52,0.121066
7749.08,0.121071
7760.68,0.12106
7772.32,0.12109
7783.99,0.12114
7795.69,0.121067
7807.43,0.120939
7819.21,0.120918
7831.02,0.120856
7842.87,0.120778
7854.75,0.120855
7866.67,0.120965
7878.62,0.121058
7890.62,0.121034
7902.64,0.121092
7914.71,0.121099
7926.81,0.121088
7938.95,0.121068
7951.13,0.120936
7963.34,0.120901
7975.59,0.120982
7987.88,0.120945
8000.21,0.120808
8012.57,0.120729
8024.98,0.120682
8037.42,0.120578
8049.9,0.120466
8062.42,0.120436
8074.98,0.120428
8087.57,0.120311
8100.21,0.120194
8112.89,0.120045
8125.6,0.119922
8138.36,0.119854
8151.16,0.119818
8163.99,0.119796
8176.87,0.119723
8189.79,0.119623
8202.75,0.119616
8215.75,0.119644
8228.79,0.119648
8241.87,0.119523
8254.99,0.119418
8268.16,0.119399
8281.37,0.119338
8294.62,0.119281
8307.91,0.11918
8321.24,0.119086
8334.62,0.119076
8348.04,0.118974
8361.51,0.118882
8375.02,0.118818
8388.57,0.118693
8402.16,0.118567
8415.8,0.118552
8429.49,0.118615
8443.22,0.118599
8456.99,0.118455
8470.81,0.118313
8484.67,0.118318
8498.58,0.118361
8512.54,0.118327
8526.54,0.118216
8540.58,0.118136
8554.68,0.117988
8568.82,0.117922
8583.0,0.117919
8597.24,0.117952
8611.52,0.117954
8625.85,0.117951
8640.23,0.117992
8654.65,0.11794
8669.12,0.117877
8683.64,0.117957
8698.21,0.117989
8712.83,0.117888
8727.5,0.117751
8742.22,0.117713
8756.99,0.117651
8771.8,0.117625
8786.67,0.117616
8801.59,0.117573
8816.56,0.11741
8831.58,0.117102
8846.65,0.117013
8861.77,0.117021
8876.94,0.11686
8892.17,0.116678
8907.45,0.11653
8922.78,0.116364
8938.16,0.116185
8953.6,0.116
8969.09,0.115876
8984.64,0.115727
9000.23,0.115448
9015.89,0.115268
9031.59,0.115087
9047.36,0.114752
9063.17,0.114485
9079.05,0.114289
9094.97,0.11403
9110.96,0.113659
9127.0,0.113267
9143.1,0.112891
9159.25,0.112569
9175.46,0.112205
9191.73,0.11192
9208.06,0.111612
9224.44,0.111327
9240.88,0.111145
9257.38,0.110847
9273.94,0.110592
9290.56,0.110516
9307.24,0.110361
9323.98,0.11019
9340.78,0.11004
9357.64,0.109699
9374.57,0.109391
9391.55,0.109276
9408.59,0.108932
9425.7,0.108467
9442.87,0.108272
9460.1,0.108212
9477.4,0.108155
9494.75,0.107999
9512.17,0.107641
9529.66,0.107308
9547.21,0.107036
9564.83,0.106866
9582.5,0.10665
9600.25,0.106215
9618.06,0.105768
9635.94,0.105285
9653.88,0.104904
9671.89,0.104552
9689.97,0.104318
9708.12,0.104078
9726.33,0.103811
9744.62,0.103563
9762.97,0.103126
9781.39,0.102631
9799.88,0.102213
9818.44,0.101855
9837.07,0.101549
9855.77,0.10123
9874.54,0.100991
9893.39,0.100705
9912.3,0.100286
9931.29,0.099811
9950.36,0.099548
9969.49,0.099295
9988.7,0.098912
10007.98,0.098616
10027.34,0.098429
10046.77,0.09818
10066.28,0.097659
10085.87,0.097269
10105.53,0.096942
10125.26,0.096431
10145.08,0.096013
10164.97,0.095737
10184.94,0.095442
10204.99,0.095138
10225.12,0.094748
10245.33,0.09434
10265.61,0.093952
10285.98,0.093548
10306.43,0.093223
10326.96,0.092931
10347.57,0.0927
10368.27,0.092435
10389.05,0.092083
10409.91,0.091925
10430.86,0.091699
10451.88,0.0914
10473.0,0.091205
10494.2,0.090924
10515.49,0.09074
10536.86,0.090521
10558.32,0.090264
10579.87,0.090213
10601.5,0.09021
10623.23,0.090101
10645.04,0.090007
10666.94,0.089986
10688.94,0.089909
10711.02,0.08979
10733.2,0.089616
10755.47,0.089426
10777.83,0.08941
10800.28,0.089273
10822.83,0.08912
10845.47,0.08909
10868.21,0.089025
10891.04,0.088882
10913.97,0.08871
10936.99,0.088391
10960.12,0.08811
10983.34,0.087809
11006.66,0.087436
11030.07,0.087007
11053.59,0.086692
11077.21,0.086427
11100.93,0.086121
11124.75,0.085848
11148.68,0.085412
11172.71,0.084725
11196.84,0.084217
11221.07,0.083804
11245.41,0.083374
11269.86,0.083007
11294.41,0.082374
11319.07,0.081215
11343.84,0.07993
11368.72,0.078749
11393.7,0.077701
11418.8,0.076773
11444.01,0.076055
11469.33,0.075566
11494.76,0.075335
11520.3,0.075348
11545.96,0.075338
11571.73,0.075222
11597.62,0.075268
11623.62,0.075217
11649.74,0.074928
11675.98,0.074436
11702.34,0.074159
11728.81,0.073787
11755.41,0.073258
11782.13,0.072818
11808.96,0.072386
11835.92,0.072025
11863.01,0.071701
11890.22,0.07133
11917.55,0.070996
11945.01,0.070717
11972.6,0.070315
12000.31,0.06983
12028.16,0.069402
12056.13,0.06888
12084.23,0.068372
12112.46,0.06782
12140.83,0.067437
12169.33,0.066889
12197.96,0.066242
12226.73,0.065514
12255.64,0.064675
12284.68,0.063992
12313.86,0.063273
12343.18,0.062551
12372.64,0.061848
12402.24,0.061036
12431.98,0.060174
12461.86,0.0593
12491.89,0.058578
12522.07,0.057631
12552.38,0.056506
12582.85,0.055419
12613.47,0.054451
12644.23,0.053571
12675.15,0.052724
12706.21,0.051766
12737.43,0.051113
12768.81,0.050356
12800.33,0.049541
12832.02,0.048733
12863.86,0.047894
12895.86,0.047154
12928.02,0.046559
12960.34,0.045746
12992.82,0.044825
13025.46,0.043748
13058.27,0.043034
13091.25,0.042401
13124.39,0.041701
13157.7,0.040693
13191.18,0.039744
13224.83,0.038758
13258.66,0.037879
13292.65,0.036936
13326.83,0.036088
13361.17,0.035332
13395.7,0.03433
13430.4,0.033268
13465.29,0.032416
13500.35,0.031435
13535.6,0.030502
13571.03,0.029488
13606.65,0.028569
13642.46,0.027739
13678.46,0.026943
13714.64,0.026017
13751.02,0.024863
13787.59,0.023817
13824.36,0.02298
13861.32,0.022101
13898.49,0.021382
13935.85,0.020574
13973.41,0.020105
14011.17,0.019762
14049.15,0.019422
14087.32,0.019116
14125.71,0.019063
14164.3,0.019047
14203.11,0.019094
14242.13,0.018982
14281.36,0.019059
14320.81,0.019067
14360.49,0.019324
14400.38,0.01962
14440.49,0.019789
14480.82,0.020227
14521.39,0.020854
14562.18,0.021253
14603.2,0.021661
14644.45,0.02173
14685.93,0.022106
14727.66,0.023108
14769.62,0.024138
14811.81,0.024511
14854.25,0.024904
14896.94,0.025294
14939.87,0.025971
14983.05,0.026967
15026.48,0.028011
15070.16,0.028903
15114.1,0.030154
15158.29,0.031538
15202.74,0.032705
15247.46,0.03413
15292.43,0.036005
15337.68,0.037895
15383.19,0.040382
15428.97,0.043246
15475.03,0.046318
15521.36,0.049825
15567.97,0.053978
15614.87,0.058247
15662.04,0.06287
15709.5,0.067616
15757.25,0.072421
15805.29,0.077603
15853.62,0.082884
15902.26,0.087878
15951.19,0.092947
16000.42,0.097844
16049.95,0.102446
16099.8,0.106661
16149.95,0.110775
16200.42,0.114667
16251.21,0.118244
16302.31,0.121776
16353.74,0.125571
16405.49,0.128959
16457.57,0.132025
16509.98,0.135274
16562.73,0.138102
16615.82,0.140452
16669.24,0.142982
16723.02,0.145812
16777.14,0.148097
16831.61,0.150037
16886.43,0.152047
16941.62,0.153579
16997.16,0.154716
17053.08,0.155658
17109.36,0.156172
17166.01,0.156334
17223.04,0.15601
17280.45,0.155844
17338.24,0.155312
17396.43,0.154786
17455.0,0.154175
17513.97,0.153319
17573.34,0.152403
17633.11,0.151302
17693.29,0.149717
17753.89,0.148417
17814.9,0.1471
17876.33,0.145307
17938.18,0.143537
18000.47,0.141936
18063.19,0.139723
18126.35,0.13776
18189.95,0.135789
18254.0,0.1336
18318.5,0.131091
18383.46,0.1282
18448.88,0.125074
18514.77,0.122161
18581.13,0.119007
18647.97,0.115591
18715.29,0.112541
18783.1,0.109321
18851.4,0.105625
18920.2,0.101701
18989.51,0.098218
19059.32,0.094728
19129.65,0.091402
19200.5,0.087782
19271.88,0.08418
19343.79,0.080974
19416.24,0.077877
19489.23,0.073996
19562.77,0.070282
19636.88,0.067327
19711.54,0.064692
19786.78,0.062564
19862.59,0.060994
19938.98,0.060455
20015.96,0.060942
20093.55,0.062475
20171.73,0.064573
20250.53,0.067036
20329.94,0.06997
20409.98,0.073133
20490.65,0.076192
20571.96,0.080416
20653.92,0.084069
20736.54,0.087886
20819.82,0.092981
20903.77,0.097903
20988.4,0.103062
21073.72,0.108562
21159.73,0.113921
21246.46,0.119778
21333.89,0.124118
21422.04,0.127698
21510.93,0.131069
21600.56,0.134375
21690.94,0.137587
21782.08,0.139956
21873.99,0.141458
21966.67,0.144091
22060.15,0.146022
22154.42,0.147663
22249.51,0.149429
22345.41,0.151457
22442.14,0.152945
22539.72,0.153754
22638.14,0.155055
22737.43,0.155733
22837.6,0.156572
22938.65,0.158126
23040.6,0.160321
23143.46,0.161809
23247.24,0.163206
23351.96,0.165157
23457.63,0.166104
23564.25,0.165963
23671.85,0.166637
23780.44,0.168624
23890.02,0.170763
24000.63,0.170894
24112.26,0.171134
24224.93,0.171453
24338.66,0.168631
24453.47,0.167733
24569.36,0.168059
24686.36,0.165458
24804.47,0.162582
24923.73,0.162106
25044.13,0.15999
25165.71,0.15758
25288.46,0.15182
25412.43,0.152891
25537.61,0.160831
25664.04,0.165884
25791.72,0.166264
25920.68,0.167611
