Database of Origin,University of Winnipeg Spectrophotometer Facility
Sample Description,Carbonaceous chondrites - RELAB archive 7. Ungrouped chondrites and ATCCs
Other Information,pressed powder laser irradiated at 5mJ  spun c1mp22l1
Date Added,2018-07-23 23:45:03.886783

Data ID,RLA_MET_38_28       
Sample ID,MAC88100/30
Mineral Name,Carbonaceous Chondrite
Grain Size,<125 um
Viewing Geometry,30/0
Material Class,CM2

Wavelength
305.0,0.02762
310.0,0.02782
315.0,0.02844
320.0,0.0292
325.0,0.02974
330.0,0.0305
335.0,0.03108
340.0,0.03137
345.0,0.03159
350.0,0.03175
355.0,0.03205
360.0,0.0324
365.0,0.03288
370.0,0.03326
375.0,0.03352
380.0,0.03388
385.0,0.03432
390.0,0.03463
395.0,0.03517
400.0,0.03543
405.0,0.0357
410.0,0.03582
415.0,0.03632
420.0,0.03647
425.0,0.03682
430.0,0.03717
435.0,0.03737
440.0,0.03763
445.0,0.03779
450.0,0.03809
455.0,0.03827
460.0,0.03847
465.0,0.03867
470.0,0.03889
475.0,0.03902
480.0,0.03928
485.0,0.03939
490.0,0.03966
495.0,0.03991
500.0,0.04016
505.0,0.04037
510.0,0.04053
515.0,0.04074
520.0,0.04098
525.0,0.04118
530.0,0.04138
535.0,0.04164
540.0,0.04179
545.0,0.04196
550.0,0.04211
555.0,0.04228
560.0,0.04235
565.0,0.04246
570.0,0.04257
575.0,0.04264
580.0,0.04279
585.0,0.04289
590.0,0.04305
595.0,0.04311
600.0,0.04317
605.0,0.04333
610.0,0.04346
615.0,0.04359
620.0,0.04373
625.0,0.04383
630.0,0.04388
635.0,0.04401
640.0,0.04403
645.0,0.04409
650.0,0.04412
655.0,0.04405
660.0,0.04403
665.0,0.04398
670.0,0.0439
675.0,0.04386
680.0,0.04375
685.0,0.04378
690.0,0.04364
695.0,0.04363
700.0,0.04358
705.0,0.04359
710.0,0.04356
715.0,0.04355
720.0,0.04342
725.0,0.04339
730.0,0.04334
735.0,0.04324
740.0,0.0432
745.0,0.04324
750.0,0.04313
755.0,0.04302
760.0,0.04303
765.0,0.04289
770.0,0.04291
775.0,0.0429
780.0,0.0429
785.0,0.04282
790.0,0.04279
795.0,0.04281
800.0,0.04292
805.0,0.04283
810.0,0.04279
815.0,0.04273
820.0,0.04264
825.0,0.04261
830.0,0.04255
835.0,0.0425
840.0,0.04242
845.0,0.04238
850.0,0.04235
855.0,0.04228
860.0,0.04221
865.0,0.04221
870.0,0.04215
875.0,0.04214
880.0,0.04208
885.0,0.04202
890.0,0.04202
895.0,0.04197
900.0,0.04188
905.0,0.04183
910.0,0.0418
915.0,0.04172
920.0,0.04169
925.0,0.04168
930.0,0.04166
935.0,0.0416
940.0,0.04162
945.0,0.04157
950.0,0.04157
955.0,0.04151
960.0,0.0415
965.0,0.0414
970.0,0.04139
975.0,0.04136
980.0,0.04136
985.0,0.04132
990.0,0.04131
995.0,0.04124
1000.0,0.04113
1005.0,0.04107
1010.0,0.04105
1015.0,0.04104
1020.0,0.04104
1025.0,0.04103
1030.0,0.04109
1035.0,0.04113
1040.0,0.04118
1045.0,0.0412
1050.0,0.04125
1055.0,0.04122
1060.0,0.04119
1065.0,0.04115
1070.0,0.04113
1075.0,0.0411
1080.0,0.04106
1085.0,0.04102
1090.0,0.04098
1095.0,0.0409
1100.0,0.04089
1105.0,0.04085
1110.0,0.04085
1115.0,0.04082
1120.0,0.04085
1125.0,0.04083
1130.0,0.04085
1135.0,0.04084
1140.0,0.04083
1145.0,0.04084
1150.0,0.04082
1155.0,0.04082
1160.0,0.04082
1165.0,0.04085
1170.0,0.04084
1175.0,0.04083
1180.0,0.04079
1185.0,0.04076
1190.0,0.04076
1195.0,0.04079
1200.0,0.04084
1205.0,0.04098
1210.0,0.04102
1215.0,0.04103
1220.0,0.041
1225.0,0.04096
1230.0,0.04082
1235.0,0.04078
1240.0,0.04075
1245.0,0.04077
1250.0,0.04072
1255.0,0.04071
1260.0,0.04065
1265.0,0.04065
1270.0,0.04055
1275.0,0.04053
1280.0,0.04051
1285.0,0.04051
1290.0,0.04046
1295.0,0.04049
1300.0,0.0405
1305.0,0.04049
1310.0,0.04052
1315.0,0.04055
1320.0,0.04057
1325.0,0.04059
1330.0,0.04062
1335.0,0.04064
1340.0,0.04069
1345.0,0.04065
1350.0,0.04061
1355.0,0.0406
1360.0,0.04059
1365.0,0.04057
1370.0,0.04059
1375.0,0.04066
1380.0,0.04065
1385.0,0.04064
1390.0,0.04065
1395.0,0.04065
1400.0,0.04058
1405.0,0.04055
1410.0,0.04057
1415.0,0.04058
1420.0,0.04061
1425.0,0.04065
1430.0,0.04072
1435.0,0.04075
1440.0,0.04076
1445.0,0.04075
1450.0,0.04072
1455.0,0.04074
1460.0,0.04073
1465.0,0.04071
1470.0,0.04069
1475.0,0.04072
1480.0,0.04069
1485.0,0.04069
1490.0,0.0407
1495.0,0.04077
1500.0,0.04077
1505.0,0.04079
1510.0,0.04081
1515.0,0.04087
1520.0,0.04083
1525.0,0.04087
1530.0,0.04091
1535.0,0.04093
1540.0,0.04093
1545.0,0.04091
1550.0,0.04089
1555.0,0.04089
1560.0,0.04089
1565.0,0.04088
1570.0,0.04094
1575.0,0.04096
1580.0,0.04098
1585.0,0.041
1590.0,0.04103
1595.0,0.041
1600.0,0.04103
1605.0,0.04104
1610.0,0.0411
1615.0,0.04112
1620.0,0.04116
1625.0,0.04117
1630.0,0.0412
1635.0,0.04122
1640.0,0.04124
1645.0,0.04129
1650.0,0.04129
1655.0,0.04132
1660.0,0.04131
1665.0,0.04139
1670.0,0.04139
1675.0,0.04147
1680.0,0.04151
1685.0,0.04152
1690.0,0.04152
1695.0,0.04158
1700.0,0.04174
1705.0,0.04174
1710.0,0.04171
1715.0,0.0417
1720.0,0.0417
1725.0,0.04168
1730.0,0.04171
1735.0,0.0417
1740.0,0.04172
1745.0,0.04173
1750.0,0.04176
1755.0,0.04167
1760.0,0.04169
1765.0,0.04169
1770.0,0.04164
1775.0,0.04165
1780.0,0.04167
1785.0,0.04164
1790.0,0.04162
1795.0,0.04165
1800.0,0.04164
1805.0,0.04163
1810.0,0.04161
1815.0,0.04162
1820.0,0.04161
1825.0,0.0416
1830.0,0.0416
1835.0,0.04158
1840.0,0.04157
1845.0,0.0416
1850.0,0.04164
1855.0,0.04167
1860.0,0.04166
1865.0,0.04172
1870.0,0.04175
1875.0,0.04175
1880.0,0.04172
1885.0,0.04178
1890.0,0.04173
1895.0,0.04172
1900.0,0.04177
1905.0,0.04184
1910.0,0.04185
1915.0,0.04193
1920.0,0.042
1925.0,0.042
1930.0,0.04203
1935.0,0.04211
1940.0,0.0421
1945.0,0.04207
1950.0,0.04211
1955.0,0.04208
1960.0,0.04208
1965.0,0.0421
1970.0,0.04211
1975.0,0.04204
1980.0,0.04208
1985.0,0.04209
1990.0,0.04208
1995.0,0.04215
2000.0,0.04219
2005.0,0.04218
2010.0,0.04221
2015.0,0.04223
2020.0,0.04226
2025.0,0.04228
2030.0,0.04232
2035.0,0.04233
2040.0,0.04233
2045.0,0.04231
2050.0,0.04233
2055.0,0.0423
2060.0,0.0423
2065.0,0.04233
2070.0,0.04233
2075.0,0.04229
2080.0,0.04233
2085.0,0.04232
2090.0,0.0423
2095.0,0.04232
2100.0,0.04232
2105.0,0.04226
2110.0,0.04226
2115.0,0.04224
2120.0,0.04219
2125.0,0.04217
2130.0,0.04217
2135.0,0.04217
2140.0,0.04213
2145.0,0.0421
2150.0,0.04206
2155.0,0.04205
2160.0,0.042
2165.0,0.04201
2170.0,0.04199
2175.0,0.042
2180.0,0.04197
2185.0,0.04199
2190.0,0.04196
2195.0,0.04202
2200.0,0.04204
2205.0,0.04205
2210.0,0.04203
2215.0,0.04204
2220.0,0.04201
2225.0,0.04204
2230.0,0.04204
2235.0,0.04209
2240.0,0.04215
2245.0,0.04218
2250.0,0.04215
2255.0,0.04217
2260.0,0.04213
2265.0,0.0421
2270.0,0.04208
2275.0,0.0421
2280.0,0.04209
2285.0,0.0421
2290.0,0.0421
2295.0,0.04209
2300.0,0.04204
2305.0,0.04202
2310.0,0.04202
2315.0,0.042
2320.0,0.04201
2325.0,0.04205
2330.0,0.04207
2335.0,0.04216
2340.0,0.04216
2345.0,0.04217
2350.0,0.04216
2355.0,0.04216
2360.0,0.04207
2365.0,0.04214
2370.0,0.04213
2375.0,0.04219
2380.0,0.04222
2385.0,0.04222
2390.0,0.04218
2395.0,0.04217
2400.0,0.04217
2405.0,0.04214
2410.0,0.04214
2415.0,0.04215
2420.0,0.04212
2425.0,0.04206
2430.0,0.04204
2435.0,0.042
2440.0,0.04195
2445.0,0.042
2450.0,0.04194
2455.0,0.04192
2460.0,0.04191
2465.0,0.04184
2470.0,0.04176
2475.0,0.04173
2480.0,0.04166
2485.0,0.04156
2490.0,0.04146
2495.0,0.04138
2500.0,0.04135
2505.0,0.04129
2510.0,0.04127
2515.0,0.04122
2520.0,0.04122
2525.0,0.04116
2530.0,0.04118
2535.0,0.0411
2540.0,0.04109
2545.0,0.04111
2550.0,0.04091
2555.0,0.04097
2560.0,0.04101
2565.0,0.04111
2570.0,0.04108
2575.0,0.04118
2580.0,0.04121
2585.0,0.04112
2590.0,0.04116
2595.0,0.04124
2600.0,0.04143
