Database of Origin,University of Winnipeg Spectrophotometer Facility
Sample Description,Carbonates and Oxolates - RELAB+Nicolet spectra Newly merged spectra (merged by RELAB)
Other Information,dry seived
Date Added,2018-08-06 20:49:03.086746

Data ID,RLA_CARB_1_44       
Sample ID,CRB213
Mineral Name,Thermonatr.
Locality,Keeler/ Inyo County/ California/ USA
Grain Size,45-90 um
Viewing Geometry,30/0/30
Resolution,5/ 0.6-129 nm
Formula,Na2CO3*(H2O)
Composition,XRD shows only trona.

Wavelength
305.0,0.5724
310.0,0.585761
315.0,0.591124
320.0,0.598016
325.0,0.606796
330.0,0.613617
335.0,0.619577
340.0,0.62671
345.0,0.631838
350.0,0.637644
355.0,0.645261
360.0,0.650713
365.0,0.657486
370.0,0.664196
375.0,0.67107
380.0,0.6777
385.0,0.684155
390.0,0.690246
395.0,0.695625
400.0,0.701174
405.0,0.705678
410.0,0.710144
415.0,0.716017
420.0,0.719389
425.0,0.724988
430.0,0.727221
435.0,0.732546
440.0,0.733471
445.0,0.7389
450.0,0.740002
455.0,0.744962
460.0,0.745952
465.0,0.750634
470.0,0.751612
475.0,0.755368
480.0,0.756219
485.0,0.760185
490.0,0.761673
495.0,0.765803
500.0,0.766966
505.0,0.770256
510.0,0.772199
515.0,0.774777
520.0,0.776846
525.0,0.778684
530.0,0.781187
535.0,0.783093
540.0,0.784472
545.0,0.787266
550.0,0.789394
555.0,0.790799
560.0,0.793254
565.0,0.7946
570.0,0.796059
575.0,0.797826
580.0,0.799433
585.0,0.80057
590.0,0.802318
595.0,0.80308
600.0,0.804613
605.0,0.806067
610.0,0.805973
615.0,0.808086
620.0,0.808482
625.0,0.810603
630.0,0.812018
635.0,0.812658
640.0,0.813559
645.0,0.814296
650.0,0.814973
655.0,0.81583
660.0,0.816411
665.0,0.817244
670.0,0.818708
675.0,0.818807
680.0,0.81957
685.0,0.819963
690.0,0.821158
695.0,0.822465
700.0,0.822785
705.0,0.823349
710.0,0.822719
715.0,0.825145
720.0,0.823934
725.0,0.825353
730.0,0.826029
735.0,0.826449
740.0,0.825856
745.0,0.827088
750.0,0.828898
755.0,0.828851
760.0,0.830916
765.0,0.828861
770.0,0.828373
775.0,0.830272
780.0,0.829594
785.0,0.831222
790.0,0.831198
795.0,0.830254
800.0,0.8321
805.0,0.832159
810.0,0.832473
815.0,0.832438
820.0,0.832042
825.0,0.831819
830.0,0.833061
835.0,0.833667
840.0,0.833753
845.0,0.833543
850.0,0.834276
855.0,0.833979
860.0,0.834718
865.0,0.836115
870.0,0.83496
875.0,0.836589
880.0,0.837993
885.0,0.837246
890.0,0.83787
895.0,0.838711
900.0,0.838488
905.0,0.838623
910.0,0.839444
915.0,0.84097
920.0,0.838976
925.0,0.840985
930.0,0.841477
935.0,0.842554
940.0,0.8416
945.0,0.842594
950.0,0.842504
955.0,0.842226
960.0,0.843603
965.0,0.842686
970.0,0.843236
975.0,0.842804
980.0,0.844008
985.0,0.842633
990.0,0.842259
995.0,0.841073
1000.0,0.841569
1005.0,0.841766
1010.0,0.841667
1015.0,0.841256
1020.0,0.842541
1025.0,0.841602
1030.0,0.843602
1035.0,0.844097
1040.0,0.844256
1045.0,0.845301
1050.0,0.8469
1055.0,0.846561
1060.0,0.847395
1065.0,0.847347
1070.0,0.847749
1075.0,0.847526
1080.0,0.849051
1085.0,0.849263
1090.0,0.849088
1095.0,0.848851
1100.0,0.849504
1105.0,0.849075
1110.0,0.84937
1115.0,0.849744
1120.0,0.849342
1125.0,0.848301
1130.0,0.848258
1135.0,0.848493
1140.0,0.84777
1145.0,0.846962
1150.0,0.845385
1155.0,0.843577
1160.0,0.841702
1165.0,0.839372
1170.0,0.836735
1175.0,0.834645
1180.0,0.832202
1185.0,0.830038
1190.0,0.828709
1195.0,0.826725
1200.0,0.825486
1205.0,0.825555
1210.0,0.825506
1215.0,0.824699
1220.0,0.823588
1225.0,0.824365
1230.0,0.824233
1235.0,0.824992
1240.0,0.823591
1245.0,0.824785
1250.0,0.824198
1255.0,0.825729
1260.0,0.826168
1265.0,0.826166
1270.0,0.826827
1275.0,0.826412
1280.0,0.82622
1285.0,0.825392
1290.0,0.825258
1295.0,0.824011
1300.0,0.82285
1305.0,0.820565
1310.0,0.819894
1315.0,0.8179
1320.0,0.816444
1325.0,0.813574
1330.0,0.812612
1335.0,0.810635
1340.0,0.808506
1345.0,0.80767
1350.0,0.806054
1355.0,0.806747
1360.0,0.806183
1365.0,0.801109
1370.0,0.800796
1375.0,0.79944
1380.0,0.802253
1385.0,0.801523
1420.0,0.78148
1425.0,0.776239
1430.0,0.769473
1435.0,0.760804
1440.0,0.752698
1445.0,0.744302
1450.0,0.736183
1455.0,0.727477
1460.0,0.720376
1465.0,0.71287
1470.0,0.705681
1475.0,0.69879
1480.0,0.691948
1485.0,0.685912
1490.0,0.681104
1495.0,0.676303
1500.0,0.671888
1505.0,0.668894
1510.0,0.666208
1515.0,0.664704
1520.0,0.663051
1525.0,0.662106
1530.0,0.661964
1535.0,0.663659
1540.0,0.668173
1545.0,0.672829
1550.0,0.678202
1555.0,0.682153
1560.0,0.685397
1565.0,0.687917
1570.0,0.689298
1575.0,0.689647
1580.0,0.689488
1585.0,0.688445
1590.0,0.687218
1595.0,0.685481
1600.0,0.683595
1605.0,0.681302
1610.0,0.678708
1615.0,0.676145
1620.0,0.673419
1625.0,0.670437
1630.0,0.667142
1635.0,0.663927
1640.0,0.660929
1645.0,0.657188
1650.0,0.652967
1655.0,0.648659
1660.0,0.64402
1665.0,0.640133
1670.0,0.635367
1675.0,0.630507
1680.0,0.626561
1685.0,0.621927
1690.0,0.618318
1695.0,0.613924
1700.0,0.610215
1705.31,0.605998
1709.81,0.602272
1715.46,0.597861
1720.02,0.593867
1724.6,0.590371
1730.35,0.58592
1734.98,0.582777
1739.64,0.580065
1745.5,0.577535
1750.21,0.576343
1754.95,0.575659
1759.72,0.574921
1764.51,0.574514
1770.54,0.573522
1775.39,0.572588
1780.27,0.571535
1785.17,0.570549
1790.1,0.569308
1795.06,0.568233
1800.05,0.566992
1805.06,0.56566
1810.1,0.564406
1815.17,0.563165
1820.27,0.5616
1825.4,0.560237
1830.56,0.558674
1834.44,0.557232
1839.65,0.555112
1844.89,0.552304
1850.16,0.549067
1855.45,0.544761
1859.45,0.541354
1864.8,0.536001
1870.18,0.529863
1875.59,0.523136
1879.67,0.51733
1885.14,0.508081
1890.64,0.496932
1894.79,0.487213
1900.34,0.4713
1904.53,0.457967
1910.15,0.43804
1914.38,0.421694
1920.05,0.398423
1924.33,0.379267
1930.06,0.353516
1934.38,0.337449
1940.17,0.324542
1944.54,0.320911
1950.39,0.322429
1954.8,0.327957
1960.72,0.339719
1965.18,0.348594
1969.66,0.35604
1975.66,0.362581
1980.19,0.365513
1984.74,0.367666
1989.31,0.368922
1995.43,0.369186
2000.05,0.368198
2004.69,0.366204
2009.35,0.363536
2015.6,0.358706
2020.32,0.354236
2025.05,0.349359
2029.81,0.344571
2034.59,0.340327
2039.39,0.337574
2044.22,0.336529
2050.69,0.33716
2055.57,0.338655
2060.47,0.340744
2065.39,0.343045
2070.34,0.345829
2075.31,0.348796
2080.31,0.351749
2085.33,0.354968
2090.38,0.357782
2095.45,0.360768
2100.54,0.36368
2105.66,0.366418
2110.8,0.368899
2114.25,0.370606
2119.43,0.372384
2124.65,0.374015
2129.88,0.375211
2135.15,0.376166
2140.44,0.376759
2145.75,0.377393
2149.31,0.378083
2154.67,0.378778
2160.06,0.37936
2165.47,0.37964
2170.91,0.379514
2174.55,0.379306
2180.04,0.37856
2185.55,0.37738
2189.25,0.376547
2194.81,0.375357
2200.4,0.374
2204.14,0.373015
2209.78,0.371142
2215.44,0.36852
2219.24,0.36673
2224.95,0.365241
2230.7,0.366693
2234.54,0.368445
2240.33,0.370487
2244.21,0.371198
2250.06,0.370765
2255.93,0.36961
2259.87,0.368676
2265.79,0.367093
2269.76,0.365872
2275.74,0.363828
2279.74,0.362189
2285.77,0.359434
2289.81,0.357694
2295.9,0.354877
2299.97,0.352737
2304.06,0.350699
2310.22,0.347596
2314.35,0.345633
2320.56,0.342369
2324.72,0.340243
2331.0,0.337185
2335.2,0.334875
2339.41,0.332763
2345.76,0.329163
2350.02,0.326579
2354.28,0.323785
2360.72,0.319709
2365.03,0.316727
2369.35,0.313481
2375.86,0.308413
2380.23,0.30445
2384.61,0.300262
2389.0,0.296581
2395.63,0.292533
2400.06,0.291353
2404.52,0.290609
2408.98,0.290048
2415.72,0.289362
2420.23,0.289063
2424.76,0.288749
2429.3,0.288339
2433.87,0.287636
2440.74,0.286033
2445.35,0.285087
2449.97,0.284194
2454.61,0.283629
2459.27,0.283423
2463.94,0.283064
2470.99,0.282105
2475.71,0.281357
2480.45,0.280645
2485.2,0.279825
2489.98,0.278991
2494.77,0.277958
2499.58,0.276569
2504.41,0.275206
2509.26,0.273626
2514.13,0.271805
2519.02,0.270236
2523.92,0.268337
2528.85,0.266106
2533.79,0.264184
2541.24,0.260753
2543.74,0.259588
2548.74,0.257342
2553.76,0.255004
2556.28,0.253894
2558.8,0.252779
2561.33,0.251661
2563.86,0.250448
2566.4,0.249244
2568.95,0.248026
2571.5,0.246941
2574.05,0.245875
2576.61,0.244706
2579.17,0.243423
2581.74,0.242072
2584.31,0.240773
2586.89,0.239501
2589.48,0.238241
2592.07,0.23694
2594.66,0.235596
2597.26,0.234113
2599.87,0.232659
2602.48,0.231401
2605.09,0.229939
2607.71,0.228327
2610.34,0.226764
2612.97,0.2253
2615.61,0.223883
2618.25,0.222448
2620.9,0.220792
2623.55,0.219149
2626.21,0.217563
2628.87,0.216004
2631.54,0.214538
2634.22,0.212917
2636.89,0.211241
2639.58,0.20968
2642.27,0.208045
2644.97,0.206213
2647.67,0.204555
2650.38,0.202928
2653.09,0.201151
2655.81,0.199242
2658.53,0.197311
2661.26,0.195336
2664.0,0.193373
2666.74,0.191396
2669.48,0.189265
2672.23,0.187071
2674.99,0.184877
2677.76,0.182784
2680.52,0.180456
2683.3,0.178071
2686.08,0.175872
2688.87,0.173635
2691.66,0.171359
2694.46,0.169202
2697.26,0.166577
2700.07,0.163721
2702.89,0.16077
2705.71,0.157295
2708.53,0.153301
2711.37,0.149051
2714.21,0.144084
2717.05,0.138762
2719.9,0.133508
2722.76,0.128218
2725.62,0.12284
2728.49,0.117424
2731.37,0.111936
2734.25,0.106573
2737.14,0.101478
2740.03,0.096558
2742.93,0.091648
2745.83,0.086722
2748.75,0.082327
2751.66,0.078407
2754.59,0.074619
2757.52,0.071095
2760.46,0.067464
2763.4,0.064056
2766.35,0.061086
2769.3,0.058323
2772.26,0.055937
2775.23,0.053376
2778.21,0.050739
2781.19,0.048436
2784.18,0.04647
2787.17,0.044668
2790.17,0.042903
2793.18,0.04108
2796.19,0.039711
2799.21,0.03843
2802.24,0.036987
2805.27,0.035704
2808.31,0.034721
2811.35,0.033752
2814.41,0.032859
2817.46,0.032261
2820.53,0.031652
2823.6,0.030906
2826.68,0.030494
2829.77,0.030197
2832.86,0.029879
2835.96,0.029648
2839.07,0.029285
2842.18,0.028941
2845.3,0.028867
2848.43,0.028893
2851.56,0.028904
2854.7,0.028797
2857.85,0.0287
2861.0,0.028667
2864.16,0.028704
2867.33,0.028842
2870.51,0.029104
2873.69,0.02904
2876.88,0.029083
2880.07,0.029329
2883.28,0.029574
2886.49,0.029529
2889.71,0.029636
2892.93,0.029673
2896.17,0.029638
2899.4,0.029555
2902.65,0.029535
2905.91,0.029442
2909.17,0.029316
2912.44,0.02918
2915.71,0.029201
2918.99,0.029364
2922.29,0.029659
2925.58,0.029733
2928.89,0.029681
2932.2,0.029751
2935.52,0.029927
2938.85,0.030063
2942.19,0.030104
2945.53,0.030005
2948.88,0.030079
2952.24,0.030271
2955.61,0.030304
2958.98,0.030071
2962.36,0.029993
2965.75,0.030009
2969.15,0.030056
2972.55,0.03018
2975.97,0.030228
2979.39,0.030182
2986.25,0.030199
2989.7,0.030283
2993.15,0.030104
2996.61,0.029978
3000.08,0.030028
3003.55,0.03005
3007.04,0.03005
3010.53,0.03005
3014.03,0.029838
3017.54,0.030007
3021.06,0.03017
3024.58,0.030106
3028.12,0.029984
3031.66,0.029974
3035.21,0.029964
3038.77,0.030007
3042.33,0.02985
3045.91,0.029685
3049.49,0.029615
3053.08,0.029458
3056.68,0.029485
3060.29,0.02944
3063.91,0.029129
3067.54,0.029164
3071.17,0.029343
3074.81,0.029304
3078.47,0.029069
3082.13,0.029079
3085.79,0.029258
3089.47,0.029015
3093.16,0.028918
3096.85,0.029091
3100.56,0.028964
3104.27,0.028706
3107.99,0.028728
3111.73,0.028817
3115.47,0.028873
3119.21,0.029069
3122.97,0.028966
3126.74,0.028799
3130.52,0.028893
3134.3,0.029192
3138.1,0.029009
3141.9,0.028784
3145.71,0.028698
3149.54,0.028728
3153.37,0.028786
3157.21,0.028801
3161.06,0.02864
3164.92,0.028718
3168.79,0.028663
3172.67,0.028656
3176.55,0.028718
3180.45,0.028778
3184.36,0.028669
3188.27,0.028704
3192.2,0.028873
3196.14,0.02904
3200.08,0.028646
3204.04,0.02838
3208.0,0.028298
3211.98,0.028333
3215.96,0.028256
3219.96,0.028077
3223.96,0.027943
3227.98,0.028137
3232.0,0.028079
3236.04,0.028067
3240.08,0.028069
3244.14,0.028034
3248.2,0.02805
3252.28,0.028188
3256.37,0.028196
3260.46,0.028232
3264.57,0.028335
3268.69,0.028351
3272.81,0.028254
3276.95,0.028339
3281.1,0.028232
3285.26,0.028289
3289.43,0.028434
3293.61,0.028463
3297.8,0.028594
3302.0,0.028636
3306.21,0.028629
3310.43,0.028753
3314.66,0.028994
3318.91,0.029176
3323.16,0.029337
3327.43,0.029419
3331.71,0.029228
3335.99,0.02919
3340.29,0.029428
3344.6,0.029896
3348.92,0.030203
3353.26,0.030252
3357.6,0.030339
3361.96,0.030603
3366.32,0.030885
3370.7,0.031129
3375.09,0.031374
3379.49,0.031415
3383.9,0.031708
3388.32,0.032131
3392.76,0.032217
3397.21,0.03244
3401.66,0.032702
3406.13,0.032921
3410.61,0.033315
3415.11,0.033713
3419.61,0.034129
3424.13,0.034389
3428.66,0.034502
3433.2,0.034972
3437.76,0.035453
3442.32,0.035952
3446.9,0.036185
3451.49,0.036478
3456.09,0.037338
3460.7,0.038185
3465.33,0.038798
3469.97,0.039404
3474.62,0.040173
3479.29,0.041317
3483.96,0.04252
3488.65,0.04366
3493.35,0.044742
3498.07,0.046029
3502.79,0.047918
3507.53,0.050013
3512.29,0.051376
3517.05,0.052869
3521.83,0.05509
3526.62,0.057292
3531.43,0.059498
3536.24,0.062022
3541.08,0.063967
3543.5,0.065172
3545.92,0.06623
3548.35,0.067153
3550.78,0.067931
3553.21,0.068584
3555.65,0.06914
3558.09,0.069649
3560.53,0.070095
3562.98,0.07049
3565.43,0.070818
3567.88,0.07113
3570.34,0.071402
3572.8,0.071631
3575.27,0.071862
3577.73,0.072108
3580.2,0.072298
3582.68,0.072528
3585.16,0.072784
3587.64,0.073067
3590.12,0.073423
3592.61,0.073831
3595.1,0.074238
3597.6,0.074606
3600.09,0.074939
3602.6,0.075237
3605.1,0.075557
3607.61,0.075834
3610.12,0.076098
3612.64,0.076281
3615.16,0.076313
3617.68,0.076323
3620.21,0.076466
3622.74,0.076567
3625.27,0.076571
3627.81,0.076567
3630.35,0.076578
3632.89,0.076544
3635.44,0.076509
3637.99,0.076428
3640.54,0.076355
3643.1,0.07627
3645.66,0.076171
3648.23,0.076108
3650.8,0.076001
3653.37,0.07588
3655.95,0.075768
3658.53,0.07565
3661.11,0.075496
3663.7,0.07533
3666.29,0.075202
3668.89,0.075129
3671.48,0.074946
3674.09,0.074742
3676.69,0.074507
3679.3,0.07422
3681.91,0.074045
3684.53,0.073832
3687.15,0.073455
3689.78,0.073126
3692.4,0.07289
3695.04,0.072544
3697.67,0.072209
3700.31,0.071951
3702.95,0.071704
3705.6,0.071537
3708.25,0.071319
3710.91,0.071124
3713.56,0.070959
3716.23,0.070848
3718.89,0.0707
3721.56,0.070514
3724.23,0.070345
3726.91,0.070162
3729.59,0.069947
3732.28,0.069744
3734.97,0.069551
3737.66,0.069349
3740.36,0.069073
3743.06,0.068776
3745.76,0.06849
3748.47,0.068228
3751.18,0.068019
3753.9,0.067792
3756.62,0.067489
3759.34,0.067262
3762.07,0.067007
3764.8,0.066686
3767.54,0.066366
3770.28,0.066196
3773.02,0.066011
3775.77,0.065707
3778.52,0.065403
3781.28,0.065158
3784.04,0.064904
3786.8,0.064543
3789.57,0.064179
3792.34,0.063923
3795.12,0.063639
3797.9,0.063208
3800.69,0.062799
3803.47,0.062343
3806.27,0.061824
3809.06,0.061139
3811.86,0.060337
3814.67,0.059476
3817.48,0.058473
3820.29,0.057245
3823.11,0.055908
3825.93,0.054446
3828.76,0.052969
3831.59,0.051589
3834.42,0.050315
3837.26,0.049285
3840.1,0.048457
3842.95,0.047815
3845.8,0.047326
3848.65,0.046935
3851.51,0.046468
3854.38,0.045998
3857.24,0.045466
3860.12,0.044938
3862.99,0.044566
3865.87,0.044304
3868.76,0.044053
3871.65,0.043904
3874.54,0.043889
3877.44,0.04397
3880.34,0.044042
3883.25,0.044117
3886.16,0.044224
3889.07,0.044346
3891.99,0.044392
3894.92,0.04449
3897.85,0.044674
3900.78,0.044904
3903.72,0.045172
3906.66,0.045492
3909.6,0.045754
3912.55,0.046017
3915.51,0.046152
3918.47,0.045901
3921.43,0.045322
3924.4,0.04449
3927.38,0.043422
3930.35,0.042278
3933.33,0.041092
3936.32,0.040011
3939.31,0.039098
3942.31,0.03835
3945.31,0.037678
3948.31,0.037001
3951.32,0.036292
3954.34,0.035509
3957.35,0.034589
3960.38,0.033512
3963.41,0.032374
3966.44,0.031284
3969.48,0.030137
3972.52,0.028902
3975.56,0.02768
3978.61,0.026514
3981.67,0.025435
3984.73,0.024487
3987.8,0.023749
3990.87,0.023281
3993.94,0.023117
3997.02,0.023124
4000.1,0.023043
4003.19,0.022728
4006.29,0.02209
4009.39,0.021317
4012.49,0.020733
4015.6,0.020468
4018.71,0.020675
4021.83,0.021584
4024.95,0.023274
4028.08,0.025808
4031.21,0.029039
4034.35,0.032664
4037.49,0.03618
4040.64,0.039301
4043.79,0.041914
4046.94,0.044072
4050.11,0.045896
4053.27,0.047494
4056.44,0.048896
4059.62,0.050269
4062.8,0.051692
4065.99,0.053021
4069.18,0.054246
4072.38,0.055447
4075.58,0.056511
4078.78,0.057402
4082.0,0.058229
4085.21,0.058945
4088.43,0.059578
4091.66,0.060087
4094.89,0.060581
4098.13,0.061086
4101.37,0.061519
4104.62,0.06195
4107.87,0.062365
4111.13,0.062766
4114.39,0.063118
4117.66,0.063468
4120.93,0.063819
4124.21,0.064094
4127.5,0.064351
4130.79,0.064686
4134.08,0.064944
4137.38,0.065169
4140.68,0.065413
4143.99,0.065683
4147.31,0.065929
4150.63,0.066116
4153.95,0.066394
4157.29,0.066674
4160.62,0.066826
4163.96,0.067022
4167.31,0.067205
4170.66,0.067355
4174.02,0.067558
4177.39,0.067734
4180.75,0.067884
4184.13,0.068086
4187.51,0.068321
4190.89,0.068463
4194.28,0.068548
4197.68,0.068655
4201.08,0.0688
4204.49,0.068949
4207.9,0.069053
4211.32,0.069148
4214.74,0.069304
4218.17,0.069395
4221.61,0.069394
4225.05,0.069497
4228.5,0.069687
4231.95,0.069819
4235.4,0.069934
4238.87,0.070112
4242.34,0.070316
4245.81,0.070482
4249.29,0.070659
4252.78,0.070903
4256.27,0.071105
4259.77,0.071203
4263.27,0.07122
4266.78,0.071283
4270.29,0.071383
4273.81,0.071549
4277.34,0.071685
4280.87,0.071811
4284.41,0.071947
4287.95,0.07215
4291.5,0.072249
4295.06,0.072313
4298.62,0.072424
4302.19,0.072553
4305.76,0.07268
4309.34,0.072876
4312.92,0.073018
4316.52,0.073127
4320.11,0.07326
4323.72,0.073377
4327.32,0.07351
4330.94,0.073613
4334.56,0.073697
4338.19,0.073836
4341.82,0.073967
4345.46,0.074058
4349.11,0.074109
4352.76,0.07414
4356.42,0.0742
4360.08,0.074297
4363.75,0.074422
4367.43,0.07451
4371.11,0.074598
4374.8,0.074671
4378.49,0.074762
4382.19,0.07491
4385.9,0.074966
4389.61,0.075077
4393.33,0.075197
4397.06,0.075263
4400.79,0.075371
4404.53,0.075491
4408.28,0.075578
4412.03,0.075703
4415.79,0.075821
4419.55,0.075915
4423.32,0.076021
4427.1,0.076141
4430.88,0.076205
4434.68,0.07627
4438.47,0.076363
4442.28,0.07645
4446.08,0.07654
4449.9,0.076664
4453.72,0.076697
4457.55,0.076662
4461.39,0.076698
4465.23,0.076734
4469.08,0.076657
4472.94,0.076564
4476.8,0.076529
4480.67,0.07653
4484.55,0.076465
4488.43,0.076394
4492.32,0.076328
4496.21,0.07635
4500.12,0.076367
4504.03,0.076314
4507.94,0.076309
4511.87,0.076351
4515.8,0.076364
4519.73,0.076358
4523.68,0.076313
4527.63,0.076293
4531.59,0.076314
4535.55,0.076335
4539.52,0.076319
4543.5,0.076338
4547.49,0.076318
4551.48,0.076283
4555.48,0.076255
4559.49,0.076271
4563.5,0.076251
4567.52,0.076218
4571.55,0.076215
4575.58,0.076199
4579.63,0.076158
4583.67,0.07613
4587.73,0.076041
4591.79,0.075946
4595.86,0.075786
4599.94,0.075631
4604.03,0.075482
4608.12,0.075269
4612.22,0.075028
4616.33,0.074831
4620.44,0.074642
4624.56,0.074415
4628.69,0.074187
4632.83,0.073898
4636.97,0.073588
4641.12,0.073309
4645.28,0.072946
4649.45,0.072576
4653.62,0.072254
4657.8,0.071883
4661.99,0.071448
4666.19,0.071017
4670.39,0.070587
4674.6,0.070158
4678.82,0.069765
4683.05,0.069357
4687.28,0.068899
4691.52,0.068484
4695.77,0.068064
4700.03,0.06769
4704.3,0.067362
4708.57,0.06705
4712.85,0.066763
4717.14,0.066419
4721.43,0.066112
4725.74,0.065849
4730.05,0.065664
4734.37,0.065644
4738.7,0.065792
4743.03,0.06618
4747.38,0.066721
4751.73,0.067279
4756.09,0.06783
4760.45,0.068344
4764.83,0.068719
4769.21,0.068971
4773.6,0.069106
4778.0,0.069211
4782.41,0.069217
4786.83,0.069177
4791.25,0.069141
4795.68,0.069082
4800.13,0.06897
4804.57,0.068827
4809.03,0.068716
4813.5,0.068562
4817.97,0.068397
4822.45,0.068253
4826.94,0.068016
4831.44,0.067732
4835.95,0.067447
4840.46,0.067175
4844.99,0.066917
4849.52,0.066668
4854.06,0.066317
4858.61,0.06595
4863.17,0.065652
4867.73,0.065396
4872.31,0.065086
4876.89,0.064789
4881.48,0.064539
4886.08,0.064279
4890.69,0.064013
4895.31,0.063717
4899.94,0.063447
4904.57,0.063183
4909.22,0.06288
4913.87,0.062582
4918.53,0.062274
4923.21,0.062033
4927.88,0.061764
4932.57,0.061479
4937.27,0.061219
4941.98,0.061009
4946.69,0.060757
4951.42,0.06055
4956.15,0.060336
4960.9,0.060124
4965.65,0.059905
4970.41,0.059661
4975.18,0.05947
4979.96,0.059275
4984.75,0.059049
4989.54,0.058846
4994.35,0.058639
4999.17,0.058458
5003.99,0.058223
5008.83,0.057966
5013.67,0.057717
5018.52,0.057508
5023.39,0.057302
5028.26,0.057119
5033.14,0.05697
5038.03,0.056755
5042.93,0.056435
5047.84,0.056187
5052.76,0.056008
5057.69,0.055809
5062.63,0.055544
5067.58,0.055277
5072.54,0.055035
5077.51,0.054816
5082.49,0.054579
5087.47,0.054323
5092.47,0.054045
5097.48,0.053747
5102.5,0.053399
5107.52,0.053115
5112.56,0.05293
5117.61,0.052745
5122.66,0.052591
5127.73,0.052477
5132.81,0.052295
5137.89,0.052109
5142.99,0.051905
5148.1,0.051714
5153.22,0.051513
5158.34,0.051277
5163.48,0.051061
5168.63,0.050868
5173.79,0.050628
5178.96,0.050395
5184.13,0.050163
5189.32,0.049992
5194.52,0.049802
5199.73,0.04954
5204.96,0.049302
5210.19,0.049153
5215.43,0.048945
5220.68,0.048731
5225.94,0.048509
5231.22,0.048298
5236.5,0.048069
5241.79,0.047882
5247.1,0.047714
5252.42,0.047501
5257.74,0.047291
5263.08,0.047131
5268.43,0.046902
5273.79,0.046696
5279.16,0.046472
5284.54,0.046269
5289.93,0.046064
5295.34,0.045852
5300.75,0.045639
5306.18,0.045412
5311.61,0.045213
5317.06,0.045081
5322.52,0.044872
5327.99,0.044636
5333.47,0.044393
5338.96,0.044197
5344.47,0.044012
5349.98,0.043777
5355.51,0.043539
5361.05,0.04334
5366.6,0.043142
5372.16,0.042959
5377.73,0.042739
5383.32,0.042509
5388.91,0.042279
5394.52,0.042089
5400.14,0.041816
5405.77,0.041532
5411.41,0.04129
5417.07,0.041111
5422.74,0.04084
5428.41,0.040583
5434.1,0.040351
5439.81,0.040074
5445.52,0.039772
5451.25,0.039476
5456.98,0.039209
5462.73,0.038948
5468.5,0.038679
5474.27,0.038444
5480.06,0.038114
5485.86,0.037806
5491.67,0.037542
5497.49,0.03724
5503.33,0.036943
5509.18,0.036632
5515.04,0.036262
5520.91,0.035934
5526.8,0.035544
5532.69,0.035147
5538.61,0.034734
5544.53,0.034247
5550.47,0.033707
5556.41,0.03311
5562.38,0.032398
5568.35,0.031562
5574.34,0.03052
5580.34,0.029207
5586.35,0.027381
5592.38,0.024926
5598.42,0.02184
5604.47,0.018446
5610.54,0.015507
5616.61,0.013588
5622.71,0.012479
5628.81,0.011792
5634.93,0.011432
5641.06,0.011445
5647.21,0.011969
5653.36,0.013389
5659.54,0.015866
5665.72,0.018766
5671.92,0.021156
5678.13,0.02275
5684.36,0.023753
5690.6,0.024311
5696.85,0.024503
5703.12,0.024468
5709.4,0.024238
5715.69,0.023802
5722.0,0.023184
5728.33,0.022439
5734.66,0.021681
5741.01,0.02091
5747.38,0.020188
5753.76,0.019653
5760.15,0.019253
5766.56,0.018956
5772.98,0.018623
5779.41,0.018373
5785.86,0.018289
5792.33,0.018236
5798.81,0.018215
5805.3,0.018238
5811.81,0.018336
5818.33,0.018448
5824.87,0.018528
5831.42,0.018641
5837.99,0.018812
5844.57,0.018907
5851.17,0.018896
5857.78,0.018808
5864.41,0.018675
5871.05,0.01853
5877.7,0.018397
5884.38,0.01826
5891.06,0.017934
5897.76,0.017764
5904.48,0.017527
5911.21,0.01735
5917.96,0.017258
5924.73,0.017108
5931.5,0.017014
5938.3,0.016954
5945.11,0.016704
5951.93,0.016546
5958.78,0.016505
5965.63,0.016409
5972.51,0.016315
5979.39,0.016224
5986.3,0.016288
5993.22,0.016263
6000.16,0.016208
6007.11,0.016214
6014.08,0.0162
6021.06,0.016174
6028.06,0.016188
6035.08,0.016234
6042.12,0.016242
6049.17,0.016306
6056.23,0.016198
6063.32,0.01602
6070.42,0.016108
6077.53,0.016121
6084.67,0.016023
6091.82,0.016057
6098.98,0.016106
6106.17,0.016042
6113.37,0.016039
6120.58,0.015966
6127.82,0.015859
6135.07,0.015857
6142.34,0.015863
6149.63,0.015806
6156.93,0.015707
6164.25,0.015609
6171.59,0.015526
6178.95,0.015472
6186.32,0.015453
6193.71,0.015356
6201.12,0.015235
6208.54,0.015186
6215.99,0.015161
6223.45,0.015165
6230.93,0.015175
6238.43,0.015149
6245.95,0.015127
6253.48,0.01514
6261.03,0.01516
6268.6,0.015156
6276.19,0.01519
6283.8,0.015224
6291.43,0.01525
6299.07,0.015269
6306.73,0.015308
6314.42,0.015434
6322.12,0.015595
6329.84,0.015734
6337.57,0.015908
6345.33,0.016152
6353.11,0.016444
6360.9,0.016765
6368.72,0.01722
6376.55,0.017748
6384.4,0.018363
6392.27,0.01912
6400.17,0.02002
6408.08,0.021102
6416.01,0.022445
6423.96,0.024056
6431.93,0.025895
6439.92,0.027961
6447.93,0.030367
6455.96,0.0329
6464.01,0.035661
6472.08,0.038335
6480.17,0.040759
6488.28,0.042604
6496.41,0.043652
6504.56,0.043802
6512.73,0.043478
6520.92,0.042907
6529.14,0.042328
6537.37,0.041883
6545.63,0.04154
6553.9,0.041198
6562.2,0.040905
6570.51,0.040706
6578.85,0.040453
6587.21,0.040201
6595.59,0.040059
6603.99,0.039868
6612.42,0.039667
6620.86,0.03939
6629.33,0.039164
6637.82,0.038954
6646.33,0.03863
6654.86,0.038322
6663.41,0.038128
6671.99,0.037897
6680.59,0.037633
6689.21,0.037356
6697.85,0.03707
6706.51,0.036834
6715.2,0.036599
6723.91,0.036371
6732.64,0.036123
6741.4,0.035901
6750.18,0.035755
6758.98,0.035571
6767.8,0.035403
6776.65,0.035284
6785.52,0.035152
6794.41,0.035008
6803.33,0.034876
6812.27,0.034834
6821.23,0.034794
6830.22,0.034705
6839.23,0.034641
6848.26,0.034602
6857.32,0.03462
6866.4,0.034661
6875.51,0.034687
6884.64,0.034826
6893.8,0.035031
6902.98,0.035241
6912.18,0.035473
6921.41,0.035729
6930.66,0.036141
6939.94,0.036731
6949.24,0.037472
6958.57,0.03829
6967.92,0.039037
6977.3,0.039733
6986.7,0.040415
6996.13,0.040869
7005.59,0.040706
7015.07,0.039714
7024.57,0.038356
7034.1,0.037027
7043.66,0.035657
7053.25,0.033976
7062.85,0.032323
7072.49,0.031238
7082.15,0.030693
7091.84,0.030427
7101.55,0.030076
7111.3,0.02953
7121.06,0.028897
7130.86,0.028277
7140.68,0.027684
7150.53,0.027151
7160.41,0.026767
7170.31,0.026561
7180.24,0.026386
7190.2,0.026308
7200.19,0.026303
7210.2,0.026319
7220.24,0.026333
7230.31,0.026315
7240.41,0.02631
7250.54,0.026338
7260.69,0.026362
7270.88,0.026376
7281.09,0.026364
7291.33,0.026372
7301.6,0.026379
7311.9,0.026355
7322.22,0.026359
7332.58,0.026373
7342.97,0.026408
7353.38,0.026378
7363.83,0.026385
7374.3,0.026478
7384.81,0.026528
7395.34,0.026537
7405.91,0.026586
7416.5,0.026608
7427.13,0.026647
7437.78,0.026706
7448.47,0.026818
7459.19,0.026868
7469.94,0.026938
7480.71,0.027024
7491.52,0.027111
7502.37,0.027224
7513.24,0.027349
7524.14,0.027498
7535.08,0.027638
7546.05,0.027831
7557.05,0.028033
7568.08,0.028202
7579.15,0.028342
7590.24,0.028529
7601.37,0.028741
7612.53,0.028895
7623.73,0.029075
7634.96,0.029262
7646.22,0.029453
7657.51,0.029586
7668.84,0.029735
7680.2,0.029917
7691.59,0.030045
7703.02,0.030116
7714.49,0.030244
7725.98,0.030341
7737.52,0.030417
7749.08,0.030479
7760.68,0.030586
7772.32,0.030713
7783.99,0.030819
7795.69,0.030929
7807.43,0.031071
7819.21,0.031163
7831.02,0.031262
7842.87,0.031316
7854.75,0.031349
7866.67,0.031423
7878.62,0.031545
7890.62,0.031697
7902.64,0.031845
7914.71,0.032051
7926.81,0.032316
7938.95,0.032555
7951.13,0.032755
7963.34,0.032923
7975.59,0.033095
7987.88,0.033204
8000.21,0.03329
8012.57,0.033349
8024.98,0.033318
8037.42,0.033295
8049.9,0.033353
8062.42,0.033377
8074.98,0.033402
8087.57,0.033526
8100.21,0.033721
8112.89,0.033934
8125.6,0.034177
8138.36,0.034351
8151.16,0.034546
8163.99,0.034747
8176.87,0.034904
8189.79,0.03507
8202.75,0.035249
8215.75,0.03537
8228.79,0.035482
8241.87,0.035555
8254.99,0.035548
8268.16,0.035464
8281.37,0.035342
8294.62,0.035187
8307.91,0.034967
8321.24,0.034603
8334.62,0.034145
8348.04,0.033646
8361.51,0.033153
8375.02,0.032665
8388.57,0.032199
8402.16,0.031755
8415.8,0.031411
8429.49,0.031164
8443.22,0.030995
8456.99,0.030818
8470.81,0.030633
8484.67,0.030458
8498.58,0.030216
8512.54,0.029954
8526.54,0.029718
8540.58,0.029527
8554.68,0.029341
8568.82,0.029135
8583.0,0.028985
8597.24,0.028895
8611.52,0.028775
8625.85,0.028678
8640.23,0.028587
8654.65,0.02856
8669.12,0.028555
8683.64,0.028472
8698.21,0.028384
8712.83,0.02832
8727.5,0.028279
8742.22,0.028262
8756.99,0.028292
8771.8,0.028394
8786.67,0.028467
8801.59,0.028549
8816.56,0.028691
8831.58,0.028843
8846.65,0.029009
8861.77,0.02914
8876.94,0.029286
8892.17,0.029429
8907.45,0.029531
8922.78,0.029662
8938.16,0.029796
8953.6,0.029923
8969.09,0.030086
8984.64,0.030319
9000.23,0.030567
9015.89,0.030837
9031.59,0.031252
9047.36,0.031726
9063.17,0.032169
9079.05,0.032518
9094.97,0.032834
9110.96,0.033146
9127.0,0.033372
9143.1,0.033523
9159.25,0.033681
9175.46,0.033744
9191.73,0.033747
9208.06,0.033767
9224.44,0.033656
9240.88,0.033401
9257.38,0.033012
9273.94,0.032533
9290.56,0.032223
9307.24,0.032259
9323.98,0.032472
9340.78,0.032481
9357.64,0.032449
9374.57,0.032375
9391.55,0.032187
9408.59,0.032074
9425.7,0.032023
9442.87,0.03203
9460.1,0.032054
9477.4,0.032042
9494.75,0.032074
9512.17,0.032066
9529.66,0.031981
9547.21,0.031886
9564.83,0.0318
9582.5,0.031847
9600.25,0.032053
9618.06,0.032178
9635.94,0.032149
9653.88,0.032013
9671.89,0.031824
9689.97,0.031647
9708.12,0.031621
9726.33,0.031682
9744.62,0.031714
9762.97,0.031593
9781.39,0.031313
9799.88,0.031073
9818.44,0.030832
9837.07,0.030649
9855.77,0.030699
9874.54,0.030922
9893.39,0.031152
9912.3,0.031335
9931.29,0.031435
9950.36,0.0316
9969.49,0.031708
9988.7,0.03167
10007.98,0.031613
10027.34,0.031626
10046.77,0.03174
10066.28,0.031856
10085.87,0.031916
10105.53,0.032024
10125.26,0.032224
10145.08,0.032389
10164.97,0.032535
10184.94,0.03271
10204.99,0.032871
10225.12,0.033053
10245.33,0.033274
10265.61,0.033378
10285.98,0.033502
10306.43,0.033618
10326.96,0.033719
10347.57,0.033811
10368.27,0.033971
10389.05,0.034185
10409.91,0.034396
10430.86,0.034614
10451.88,0.034847
10473.0,0.035042
10494.2,0.035204
10515.49,0.035357
10536.86,0.035562
10558.32,0.035725
10579.87,0.03583
10601.5,0.03599
10623.23,0.036131
10645.04,0.036292
10666.94,0.036549
10688.94,0.036764
10711.02,0.036828
10733.2,0.036896
10755.47,0.037029
10777.83,0.037174
10800.28,0.037217
10822.83,0.037236
10845.47,0.037249
10868.21,0.037249
10891.04,0.037243
10913.97,0.03714
10936.99,0.036988
10960.12,0.036768
10983.34,0.036496
11006.66,0.036232
11030.07,0.035865
11053.59,0.035324
11077.21,0.034687
11100.93,0.033973
11124.75,0.033027
11148.68,0.031867
11172.71,0.030288
11196.84,0.028175
11221.07,0.025717
11245.41,0.022987
11269.86,0.020421
11294.41,0.01948
11319.07,0.020974
11343.84,0.023474
11368.72,0.02521
11393.7,0.025947
11418.8,0.026065
11444.01,0.026032
11469.33,0.026928
11494.76,0.028998
11520.3,0.031481
11545.96,0.033878
11571.73,0.036047
11597.62,0.037949
11623.62,0.03962
11649.74,0.04093
11675.98,0.041418
11702.34,0.040002
11728.81,0.038148
11755.41,0.039795
11782.13,0.042231
11808.96,0.042071
11835.92,0.040513
11863.01,0.039281
11890.22,0.038778
11917.55,0.038386
11945.01,0.038128
11972.6,0.03839
12000.31,0.039307
12028.16,0.040883
12056.13,0.042817
12084.23,0.044539
12112.46,0.045637
12140.83,0.046199
12169.33,0.046525
12197.96,0.046727
12226.73,0.047046
12255.64,0.047334
12284.68,0.04761
12313.86,0.048024
12343.18,0.048334
12372.64,0.048479
12402.24,0.048632
12431.98,0.04876
12461.86,0.04881
12491.89,0.048904
12522.07,0.049074
12552.38,0.049241
12582.85,0.049402
12613.47,0.049477
12644.23,0.049418
12675.15,0.049503
12706.21,0.04964
12737.43,0.049666
12768.81,0.04962
12800.33,0.04948
12832.02,0.049526
12863.86,0.049711
12895.86,0.049685
12928.02,0.049466
12960.34,0.049328
12992.82,0.049265
13025.46,0.049245
13058.27,0.049333
13091.25,0.0496
13124.39,0.049861
13157.7,0.050076
13191.18,0.050339
13224.83,0.050487
13258.66,0.050531
13292.65,0.050495
13326.83,0.050492
13361.17,0.050641
13395.7,0.050852
13430.4,0.051273
13465.29,0.051783
13500.35,0.052141
13535.6,0.052399
13571.03,0.052593
13606.65,0.052798
13642.46,0.05306
13678.46,0.053191
13714.64,0.053152
13751.02,0.05303
13787.59,0.052864
13824.36,0.052562
13861.32,0.052025
13898.49,0.051241
13935.85,0.050183
13973.41,0.048823
14011.17,0.04715
14049.15,0.045109
14087.32,0.042518
14125.71,0.038917
14164.3,0.033887
14203.11,0.028351
14242.13,0.024037
14281.36,0.022038
14320.81,0.023115
14360.49,0.024293
14400.38,0.023567
14440.49,0.024814
14480.82,0.029946
14521.39,0.034908
14562.18,0.037209
14603.2,0.037589
14644.45,0.037392
14685.93,0.037324
14727.66,0.037338
14769.62,0.037594
14811.81,0.037938
14854.25,0.038542
14896.94,0.039174
14939.87,0.039663
14983.05,0.040065
15026.48,0.040364
15070.16,0.041156
15114.1,0.04216
15158.29,0.042498
15202.74,0.04241
15247.46,0.042198
15292.43,0.041844
15337.68,0.041483
15383.19,0.040832
15428.97,0.039958
15475.03,0.03913
15521.36,0.038453
15567.97,0.038245
15614.87,0.038511
15662.04,0.038678
15709.5,0.038796
15757.25,0.038965
15805.29,0.039127
15853.62,0.039179
15902.26,0.039208
15951.19,0.039075
16000.42,0.038784
16049.95,0.038551
16099.8,0.038278
16149.95,0.038177
16200.42,0.038455
16251.21,0.039153
16302.31,0.040491
16353.74,0.042126
16405.49,0.043386
16457.57,0.04426
16509.98,0.044709
16562.73,0.044901
16615.82,0.045106
16669.24,0.045292
16723.02,0.045378
16777.14,0.045398
16831.61,0.045356
16886.43,0.045364
16941.62,0.04556
16997.16,0.04569
17053.08,0.045635
17109.36,0.045612
17166.01,0.045604
17223.04,0.045649
17280.45,0.045633
17338.24,0.045628
17396.43,0.045565
17455.0,0.04544
17513.97,0.045399
17573.34,0.045306
17633.11,0.044999
17693.29,0.04499
17753.89,0.045092
17814.9,0.044887
17876.33,0.044741
17938.18,0.044651
18000.47,0.044637
18063.19,0.044539
18126.35,0.044409
18189.95,0.044474
18254.0,0.044375
18318.5,0.044238
18383.46,0.044249
18448.88,0.043964
18514.77,0.043872
18581.13,0.044022
18647.97,0.043904
18715.29,0.04369
18783.1,0.04341
18851.4,0.043239
18920.2,0.043145
18989.51,0.042929
19059.32,0.042815
19129.65,0.042565
19200.5,0.042227
19271.88,0.04191
19343.79,0.041748
19416.24,0.041867
19489.23,0.04178
19562.77,0.041391
19636.88,0.041027
19711.54,0.041029
19786.78,0.041132
19862.59,0.041034
19938.98,0.040517
20015.96,0.040345
20093.55,0.040248
20171.73,0.0401
20250.53,0.039971
20329.94,0.039631
20409.98,0.039264
20490.65,0.039218
20571.96,0.039223
20653.92,0.038881
20736.54,0.038781
20819.82,0.038722
20903.77,0.038043
20988.4,0.037532
21073.72,0.037551
21159.73,0.03764
21246.46,0.037562
21333.89,0.036962
21422.04,0.036469
21510.93,0.036391
21600.56,0.036146
21690.94,0.035683
21782.08,0.035318
21873.99,0.035408
21966.67,0.035273
22060.15,0.035323
22154.42,0.035612
22249.51,0.034989
22345.41,0.034173
22442.14,0.034015
22539.72,0.033823
22638.14,0.033566
22737.43,0.033378
22837.6,0.033199
22938.65,0.032432
23040.6,0.031818
23143.46,0.031965
23247.24,0.032157
23351.96,0.031772
23457.63,0.031493
23564.25,0.030275
23671.85,0.0298
23780.44,0.030944
23890.02,0.031259
24000.63,0.029907
24112.26,0.028525
24224.93,0.028047
24338.66,0.028068
24453.47,0.02806
24569.36,0.027392
24686.36,0.026409
24804.47,0.026632
24923.73,0.026897
25044.13,0.026719
25165.71,0.026637
25288.46,0.025816
25412.43,0.025508
25537.61,0.026488
25664.04,0.027646
25791.72,0.027512
25920.68,0.026493
