Database of Origin,University of Winnipeg Spectrophotometer Facility
Sample Description,Carbonaceous chondrites - RELAB archive 2. CM chondrites
Date Added,2018-07-23 23:44:49.733997

Data ID,RLA_MET_33_19       
Sample ID,EET90043/8
Mineral Name,CM Chondrite
Grain Size,<125 um
Viewing Geometry,30/0
Material Class,CM2 or C3 ungrouped

Wavelength
305.0,0.029425
310.0,0.02865
315.0,0.028145
320.0,0.028863
325.0,0.02907
330.0,0.028732
335.0,0.028921
340.0,0.028978
345.0,0.029586
350.0,0.029709
355.0,0.030567
360.0,0.031087
365.0,0.031863
370.0,0.032237
375.0,0.032727
380.0,0.033669
385.0,0.034359
390.0,0.035002
395.0,0.035566
400.0,0.036616
405.0,0.036629
410.0,0.037819
415.0,0.038365
420.0,0.038935
425.0,0.039703
430.0,0.040399
435.0,0.040825
440.0,0.041727
445.0,0.042161
450.0,0.042482
455.0,0.042727
460.0,0.043114
465.0,0.043363
470.0,0.04372
475.0,0.043889
480.0,0.044393
485.0,0.044737
490.0,0.045227
495.0,0.046045
500.0,0.046422
505.0,0.047045
510.0,0.047491
515.0,0.048034
520.0,0.048637
525.0,0.049194
530.0,0.049696
535.0,0.050174
540.0,0.050612
545.0,0.051066
550.0,0.051374
555.0,0.051739
560.0,0.051985
565.0,0.052359
570.0,0.052701
575.0,0.0529
580.0,0.053284
585.0,0.053414
590.0,0.053585
595.0,0.053877
600.0,0.054039
605.0,0.054284
610.0,0.054668
615.0,0.054993
620.0,0.055013
625.0,0.055283
630.0,0.055641
635.0,0.055697
640.0,0.055986
645.0,0.056082
650.0,0.056242
655.0,0.056449
660.0,0.05665
665.0,0.056967
670.0,0.057014
675.0,0.057211
680.0,0.057381
685.0,0.057595
690.0,0.057835
695.0,0.057834
700.0,0.058105
705.0,0.058136
710.0,0.058311
715.0,0.05824
720.0,0.058164
725.0,0.058434
730.0,0.058805
735.0,0.058886
740.0,0.058792
745.0,0.058943
750.0,0.059089
755.0,0.058876
760.0,0.059379
765.0,0.059455
770.0,0.059594
775.0,0.059593
780.0,0.059763
785.0,0.059697
790.0,0.059782
795.0,0.059593
800.0,0.059622
805.0,0.059927
810.0,0.060152
815.0,0.059895
820.0,0.059818
825.0,0.059906
830.0,0.059779
835.0,0.059671
840.0,0.05946
845.0,0.059433
850.0,0.059413
855.0,0.059529
860.0,0.05944
865.0,0.059625
870.0,0.058995
875.0,0.058884
880.0,0.058902
885.0,0.058755
890.0,0.058431
895.0,0.05846
900.0,0.058075
905.0,0.058296
910.0,0.058145
915.0,0.057456
920.0,0.057429
925.0,0.057374
930.0,0.057263
935.0,0.056953
940.0,0.056862
945.0,0.056923
950.0,0.056827
955.0,0.056735
960.0,0.056615
965.0,0.056471
970.0,0.056597
975.0,0.056392
980.0,0.056329
985.0,0.05619
990.0,0.056268
995.0,0.055898
1000.0,0.056011
1005.0,0.05586
1010.0,0.055752
1015.0,0.055879
1020.0,0.055806
1025.0,0.055812
1030.0,0.055743
1035.0,0.055501
1040.0,0.055528
1045.0,0.055474
1050.0,0.055478
1055.0,0.055359
1060.0,0.055473
1065.0,0.055448
1070.0,0.055579
1075.0,0.055398
1080.0,0.05536
1085.0,0.055464
1090.0,0.055557
1095.0,0.055789
1100.0,0.055549
1105.0,0.055561
1110.0,0.055412
1115.0,0.055392
1120.0,0.055372
1125.0,0.055641
1130.0,0.055582
1135.0,0.055361
1140.0,0.055359
1145.0,0.055365
1150.0,0.055438
1155.0,0.055525
1160.0,0.05543
1165.0,0.05546
1170.0,0.055372
1175.0,0.055448
1180.0,0.055303
1185.0,0.05533
1190.0,0.055464
1195.0,0.055286
1200.0,0.055468
1205.0,0.055516
1210.0,0.055545
1215.0,0.055747
1220.0,0.055625
1225.0,0.05541
1230.0,0.055199
1235.0,0.055239
1240.0,0.055295
1245.0,0.05526
1250.0,0.055002
1255.0,0.05498
1260.0,0.05494
1265.0,0.055009
1270.0,0.054964
1275.0,0.054896
1280.0,0.054684
1285.0,0.054698
1290.0,0.054832
1295.0,0.054651
1300.0,0.054685
1305.0,0.054709
1310.0,0.054684
1315.0,0.054589
1320.0,0.054644
1325.0,0.054535
1330.0,0.05458
1335.0,0.054615
1340.0,0.05457
1345.0,0.054456
1350.0,0.054549
1355.0,0.054307
1360.0,0.054315
1365.0,0.054583
1370.0,0.054696
1375.0,0.054344
1380.0,0.05414
1385.0,0.054947
1390.0,0.054486
1395.0,0.054412
1400.0,0.054095
1405.0,0.05416
1410.0,0.05461
1415.0,0.054484
1420.0,0.054367
1425.0,0.054409
1430.0,0.054327
1435.0,0.05441
1440.0,0.054457
1445.0,0.054318
1450.0,0.054301
1455.0,0.054367
1460.0,0.054397
1465.0,0.054432
1470.0,0.054362
1475.0,0.054338
1480.0,0.054345
1485.0,0.054282
1490.0,0.054455
1495.0,0.054535
1500.0,0.054454
1505.0,0.054266
1510.0,0.054358
1515.0,0.054408
1520.0,0.054471
1525.0,0.054399
1530.0,0.054433
1535.0,0.05474
1540.0,0.054577
1545.0,0.054559
1550.0,0.054519
1555.0,0.054552
1560.0,0.054596
1565.0,0.054687
1570.0,0.054721
1575.0,0.054651
1580.0,0.054653
1585.0,0.054511
1590.0,0.054554
1595.0,0.054641
1600.0,0.054681
1605.0,0.054764
1610.0,0.054505
1615.0,0.05451
1620.0,0.054691
1625.0,0.054725
1630.0,0.054699
1635.0,0.054587
1640.0,0.054748
1645.0,0.054716
1650.0,0.054579
1655.0,0.054773
1660.0,0.054656
1665.0,0.054841
1670.0,0.054586
1675.0,0.054679
1680.0,0.054881
1685.0,0.05494
1690.0,0.054892
1695.0,0.055108
1700.0,0.055309
1705.0,0.055199
1710.0,0.055129
1715.0,0.055
1720.0,0.055075
1725.0,0.054985
1730.0,0.055085
1735.0,0.055144
1740.0,0.055
1745.0,0.055012
1750.0,0.054953
1755.0,0.05497
1760.0,0.055004
1765.0,0.055158
1770.0,0.055145
1775.0,0.055158
1780.0,0.055236
1785.0,0.055132
1790.0,0.055231
1795.0,0.0553
1800.0,0.055307
1805.0,0.055474
1810.0,0.055461
1815.0,0.055477
1820.0,0.055403
1825.0,0.055556
1830.0,0.055452
1835.0,0.055277
1840.0,0.055504
1845.0,0.055556
1850.0,0.055669
1855.0,0.05555
1860.0,0.055604
1865.0,0.055742
1870.0,0.055242
1875.0,0.056171
1880.0,0.056134
1885.0,0.055787
1890.0,0.055676
1895.0,0.055827
1900.0,0.055282
1905.0,0.055724
1910.0,0.055819
1915.0,0.055844
1920.0,0.055561
1925.0,0.056024
1930.0,0.055785
1935.0,0.055817
1940.0,0.055749
1945.0,0.055889
1950.0,0.055809
1955.0,0.055741
1960.0,0.055806
1965.0,0.055878
1970.0,0.055892
1975.0,0.055851
1980.0,0.055901
1985.0,0.055899
1990.0,0.055971
1995.0,0.055932
2000.0,0.055957
2005.0,0.056069
2010.0,0.056042
2015.0,0.055915
2020.0,0.056065
2025.0,0.056129
2030.0,0.056152
2035.0,0.056189
2040.0,0.056176
2045.0,0.056008
2050.0,0.056112
2055.0,0.056154
2060.0,0.056134
2065.0,0.056086
2070.0,0.056171
2075.0,0.056195
2080.0,0.056291
2085.0,0.056255
2090.0,0.056259
2095.0,0.056301
2100.0,0.056408
2105.0,0.056389
2110.0,0.056443
2115.0,0.056281
2120.0,0.056313
2125.0,0.056294
2130.0,0.056298
2135.0,0.056284
2140.0,0.056281
2145.0,0.056527
2150.0,0.056667
2155.0,0.056588
2160.0,0.056623
2165.0,0.056623
2170.0,0.056664
2175.0,0.056803
2180.0,0.056688
2185.0,0.056724
2190.0,0.056797
2195.0,0.056834
2200.0,0.056725
2205.0,0.056823
2210.0,0.05698
2215.0,0.056945
2220.0,0.057084
2225.0,0.057049
2230.0,0.057027
2235.0,0.057125
2240.0,0.056848
2245.0,0.056922
2250.0,0.057071
2255.0,0.056971
2260.0,0.057194
2265.0,0.057135
2270.0,0.057318
2275.0,0.057171
2280.0,0.057249
2285.0,0.057432
2290.0,0.057432
2295.0,0.057397
2300.0,0.057701
2305.0,0.057628
2310.0,0.057684
2315.0,0.057704
2320.0,0.057578
2325.0,0.057529
2330.0,0.057502
2335.0,0.057611
2340.0,0.057619
2345.0,0.057561
2350.0,0.057652
2355.0,0.057598
2360.0,0.057533
2365.0,0.057615
2370.0,0.057461
2375.0,0.057556
2380.0,0.057688
2385.0,0.057575
2390.0,0.057349
2395.0,0.057456
2400.0,0.057548
2405.0,0.057809
2410.0,0.057719
2415.0,0.057611
2420.0,0.057833
2425.0,0.057889
2430.0,0.057725
2435.0,0.057586
2440.0,0.057807
2445.0,0.057712
2450.0,0.05765
2455.0,0.057796
2460.0,0.057949
2465.0,0.057787
2470.0,0.057636
2475.0,0.058076
2480.0,0.057936
2485.0,0.057997
2490.0,0.057962
2495.0,0.0579
2500.0,0.057981
2505.0,0.057978
2510.0,0.057823
2515.0,0.057662
2520.0,0.05806
2525.0,0.057824
2530.0,0.057985
2535.0,0.058068
2540.0,0.058251
2545.0,0.058135
2550.0,0.058169
2555.0,0.058851
2560.0,0.056627
2565.0,0.05914
2570.0,0.058715
2575.0,0.058161
2580.0,0.058449
2585.0,0.057858
2590.0,0.059541
2595.0,0.057199
2600.0,0.059677
