Database of Origin,University of Winnipeg Spectrophotometer Facility
Sample Description,Carbonaceous chondrites - RELAB archive 2. CM chondrites
Date Added,2018-07-23 23:44:50.580629

Data ID,RLA_MET_33_65       
Sample ID,Murchison
Mineral Name,CM Chondrite
Grain Size,<45 um
Viewing Geometry,30/0
Material Class,CM2.5/2.7

Wavelength
335.0,0.022405
340.0,0.022839
345.0,0.023326
350.0,0.023836
355.0,0.024432
360.0,0.025152
365.0,0.025929
370.0,0.026822
375.0,0.027728
380.0,0.028367
385.0,0.029018
390.0,0.029733
395.0,0.030411
400.0,0.031101
405.0,0.031847
410.0,0.032575
415.0,0.033254
420.0,0.033958
425.0,0.034599
430.0,0.03522
435.0,0.035928
440.0,0.036612
445.0,0.037303
450.0,0.037967
455.0,0.03861
460.0,0.039239
465.0,0.039845
470.0,0.040421
475.0,0.04097
480.0,0.041513
485.0,0.042086
490.0,0.042662
495.0,0.04324
500.0,0.043813
505.0,0.044362
510.0,0.044898
515.0,0.0454
520.0,0.04591
525.0,0.04639
530.0,0.046853
535.0,0.047303
540.0,0.047704
545.0,0.048058
550.0,0.048383
555.0,0.048659
560.0,0.048914
565.0,0.049135
570.0,0.049327
575.0,0.049465
580.0,0.049606
585.0,0.049691
590.0,0.049732
595.0,0.049752
600.0,0.049755
605.0,0.049744
610.0,0.049718
615.0,0.049676
620.0,0.049616
625.0,0.049559
630.0,0.049511
635.0,0.049424
640.0,0.049343
645.0,0.049252
650.0,0.049173
655.0,0.04908
660.0,0.048998
665.0,0.048929
670.0,0.048861
675.0,0.048808
680.0,0.048742
685.0,0.048673
690.0,0.048614
695.0,0.048562
700.0,0.048515
705.0,0.048438
710.0,0.048404
715.0,0.048385
720.0,0.048332
725.0,0.048301
730.0,0.04827
735.0,0.048299
740.0,0.048317
745.0,0.048341
750.0,0.048336
755.0,0.048402
760.0,0.048477
765.0,0.048496
770.0,0.048549
775.0,0.048627
780.0,0.048623
785.0,0.048683
790.0,0.048736
795.0,0.04875
800.0,0.048857
805.0,0.048935
810.0,0.04904
815.0,0.049126
820.0,0.049252
825.0,0.049375
830.0,0.049482
835.0,0.049621
840.0,0.049665
845.0,0.049725
850.0,0.049803
855.0,0.049803
860.0,0.049842
865.0,0.049777
870.0,0.049743
875.0,0.049776
880.0,0.04969
885.0,0.049676
890.0,0.049662
895.0,0.049674
900.0,0.049654
905.0,0.049671
910.0,0.049687
915.0,0.049722
920.0,0.049779
925.0,0.049819
930.0,0.049791
935.0,0.049826
940.0,0.049829
945.0,0.049902
950.0,0.049998
955.0,0.050082
960.0,0.050124
965.0,0.050202
970.0,0.050265
975.0,0.050345
980.0,0.050431
985.0,0.050529
990.0,0.05063
995.0,0.050743
1000.0,0.05082
1005.0,0.050885
1010.0,0.050954
1015.0,0.051043
1020.0,0.051099
1025.0,0.051164
1030.0,0.051219
1035.0,0.051285
1040.0,0.051339
1045.0,0.051413
1050.0,0.051424
1055.0,0.051449
1060.0,0.051467
1065.0,0.051491
1070.0,0.051535
1075.0,0.051559
1080.0,0.051598
1085.0,0.051642
1090.0,0.051686
1095.0,0.051718
1100.0,0.051726
1105.0,0.051769
1110.0,0.051803
1115.0,0.051866
1120.0,0.051897
1125.0,0.051938
1130.0,0.051993
1135.0,0.05203
1140.0,0.052067
1145.0,0.052108
1150.0,0.052169
1155.0,0.052248
1160.0,0.052318
1165.0,0.052399
1170.0,0.052472
1175.0,0.052566
1180.0,0.052647
1185.0,0.052717
1190.0,0.052818
1195.0,0.052896
1200.0,0.052984
1205.0,0.053071
1210.0,0.053174
1215.0,0.053273
1220.0,0.053374
1225.0,0.053451
1230.0,0.053535
1235.0,0.053614
1240.0,0.0537
1245.0,0.053784
1250.0,0.053899
1255.0,0.054011
1260.0,0.054115
1265.0,0.054205
1270.0,0.054332
1275.0,0.05445
1280.0,0.054569
1285.0,0.054683
1290.0,0.054814
1295.0,0.05495
1300.0,0.055087
1305.0,0.0552
1310.0,0.055306
1315.0,0.055421
1320.0,0.05553
1325.0,0.055626
1330.0,0.055734
1335.0,0.055859
1340.0,0.056007
1345.0,0.056124
1350.0,0.056252
1355.0,0.056358
1360.0,0.056504
1365.0,0.056626
1370.0,0.056731
1375.0,0.056817
1380.0,0.056922
1385.0,0.057026
1390.0,0.057111
1395.0,0.057178
1400.0,0.057237
1405.0,0.057316
1410.0,0.057407
1415.0,0.05745
1420.0,0.057542
1425.0,0.057621
1430.0,0.057727
1435.0,0.057809
1440.0,0.057879
1445.0,0.05795
1450.0,0.058021
1455.0,0.05811
1460.0,0.05817
1465.0,0.058244
1470.0,0.058326
1475.0,0.058391
1480.0,0.05847
1485.0,0.058555
1490.0,0.058615
1495.0,0.058678
1500.0,0.05876
1505.0,0.05883
1510.0,0.058901
1515.0,0.058988
1520.0,0.059057
1525.0,0.059115
1530.0,0.059207
1535.0,0.059287
1540.0,0.059329
1545.0,0.0594
1550.0,0.059418
1555.0,0.05945
1560.0,0.059489
1565.0,0.059517
1570.0,0.059525
1575.0,0.05953
1580.0,0.05954
1585.0,0.059511
1590.0,0.059505
1595.0,0.059532
1600.0,0.059544
1605.0,0.059594
1610.0,0.059622
1615.0,0.059662
1620.0,0.059715
1625.0,0.059738
1630.0,0.059777
1635.0,0.059851
1640.0,0.059979
1645.0,0.06006
1650.0,0.060124
1655.0,0.060249
1660.0,0.060349
1665.0,0.060456
1670.0,0.060518
1675.0,0.060586
1680.0,0.060684
1685.0,0.060776
1690.0,0.060848
1695.0,0.060872
1700.0,0.06094
1705.0,0.060991
1710.0,0.060969
1715.0,0.060994
1720.0,0.061046
1725.0,0.061094
1730.0,0.06113
1735.0,0.061157
1740.0,0.061169
1745.0,0.061189
1750.0,0.061166
1755.0,0.061157
1760.0,0.061185
1765.0,0.061215
1770.0,0.061224
1775.0,0.061201
1780.0,0.061212
1785.0,0.061233
1790.0,0.061246
1795.0,0.061281
1800.0,0.061318
1805.0,0.061361
1810.0,0.06139
1815.0,0.061393
1820.0,0.061455
1825.0,0.061508
1830.0,0.06157
1835.0,0.061593
1840.0,0.061602
1845.0,0.061615
1850.0,0.061632
1855.0,0.061697
1860.0,0.061737
1865.0,0.061759
1870.0,0.061779
1875.0,0.061738
1880.0,0.061712
1885.0,0.061678
1890.0,0.061692
1895.0,0.061693
1900.0,0.061702
1905.0,0.061687
1910.0,0.061629
1915.0,0.061621
1920.0,0.061611
1925.0,0.061612
1930.0,0.061626
1935.0,0.061625
1940.0,0.061618
1945.0,0.061589
1950.0,0.06158
1955.0,0.061595
1960.0,0.061597
1965.0,0.061597
1970.0,0.061602
1975.0,0.06164
1980.0,0.061663
1985.0,0.061705
1990.0,0.061777
1995.0,0.061843
2000.0,0.061922
2005.0,0.061994
2010.0,0.062037
2015.0,0.062119
2020.0,0.062174
2025.0,0.062229
2030.0,0.062251
2035.0,0.062314
2040.0,0.062349
2045.0,0.062369
2050.0,0.062391
2055.0,0.062408
2060.0,0.062448
2065.0,0.062481
2070.0,0.062508
2075.0,0.062566
2080.0,0.062625
2085.0,0.062662
2090.0,0.062697
2095.0,0.062743
2100.0,0.06279
2105.0,0.062871
2110.0,0.062944
2115.0,0.062975
2120.0,0.063048
2125.0,0.063091
2130.0,0.063105
2135.0,0.063133
2140.0,0.063199
2145.0,0.063219
2150.0,0.063231
2155.0,0.063227
2160.0,0.063192
2165.0,0.06318
2170.0,0.063165
2175.0,0.063134
2180.0,0.063126
2185.0,0.063121
2190.0,0.063083
2195.0,0.063063
2200.0,0.063044
2205.0,0.063037
2210.0,0.063064
2215.0,0.06307
2220.0,0.063008
2225.0,0.062994
2230.0,0.062981
2235.0,0.062983
2240.0,0.062973
2245.0,0.062954
2250.0,0.06291
2255.0,0.062891
2260.0,0.062891
2265.0,0.062847
2270.0,0.062785
2275.0,0.062784
2280.0,0.062772
2285.0,0.062765
2290.0,0.062708
2295.0,0.062687
2300.0,0.062657
2305.0,0.062651
2310.0,0.062649
2315.0,0.062611
2320.0,0.062599
2325.0,0.062642
2330.0,0.062726
2335.0,0.0628
2340.0,0.062852
2345.0,0.062926
2350.0,0.062993
2355.0,0.063066
2360.0,0.063136
2365.0,0.063182
2370.0,0.063242
2375.0,0.063302
2380.0,0.063356
2385.0,0.063361
2390.0,0.06334
2395.0,0.063343
2400.0,0.063332
2405.0,0.063319
2410.0,0.063292
2415.0,0.063281
2420.0,0.063275
2425.0,0.063315
2430.0,0.063355
2435.0,0.063335
2440.0,0.063314
2445.0,0.063315
2450.0,0.063303
2455.0,0.063311
2460.0,0.063298
2465.0,0.063332
2470.0,0.063331
2475.0,0.063329
2480.0,0.063279
2485.0,0.063221
2490.0,0.063218
2495.0,0.063169
2500.0,0.06318
2505.0,0.063108
2510.0,0.063102
2515.0,0.063134
2520.0,0.063101
2525.0,0.063097
2530.0,0.063233
2535.0,0.063198
2540.0,0.06319
2545.0,0.063203
2550.0,0.063211
2555.0,0.063148
2560.0,0.063198
2565.0,0.063263
2570.0,0.063185
2575.0,0.063294
2580.0,0.063215
2585.0,0.063193
2590.0,0.063185
2595.0,0.063245
2600.0,0.063311
