Database of Origin,University of Winnipeg Spectrophotometer Facility
Sample Description,Carbonaceous chondrites - RELAB archive 2. CM chondrites
Date Added,2018-07-23 23:44:50.770787

Data ID,RLA_MET_33_76       
Sample ID,Y791191/87
Mineral Name,CM Chondrite
Grain Size,<125 um
Viewing Geometry,30/0
Material Class,CM2

Wavelength
305.0,0.023162
310.0,0.024023
315.0,0.02437
320.0,0.02497
325.0,0.02522
330.0,0.026096
335.0,0.026074
340.0,0.026729
345.0,0.026849
350.0,0.027726
355.0,0.028257
360.0,0.028787
365.0,0.02958
370.0,0.030211
375.0,0.030947
380.0,0.031922
385.0,0.032541
390.0,0.033285
395.0,0.033991
400.0,0.034642
405.0,0.035186
410.0,0.035698
415.0,0.036178
420.0,0.036725
425.0,0.037715
430.0,0.038306
435.0,0.038956
440.0,0.039454
445.0,0.040037
450.0,0.04101
455.0,0.041381
460.0,0.041777
465.0,0.042026
470.0,0.04247
475.0,0.042957
480.0,0.043437
485.0,0.043821
490.0,0.044335
495.0,0.044716
500.0,0.045233
505.0,0.045572
510.0,0.046106
515.0,0.046443
520.0,0.047409
525.0,0.047139
530.0,0.04752
535.0,0.047984
540.0,0.048389
545.0,0.048523
550.0,0.04879
555.0,0.048924
560.0,0.049178
565.0,0.049194
570.0,0.049283
575.0,0.049406
580.0,0.049425
585.0,0.049548
590.0,0.049533
595.0,0.049513
600.0,0.049506
605.0,0.049589
610.0,0.049589
615.0,0.049809
620.0,0.049768
625.0,0.049923
630.0,0.050028
635.0,0.049943
640.0,0.049956
645.0,0.049897
650.0,0.049876
655.0,0.049786
660.0,0.049646
665.0,0.049599
670.0,0.049542
675.0,0.049466
680.0,0.049396
685.0,0.049319
690.0,0.049201
695.0,0.049114
700.0,0.049097
705.0,0.049021
710.0,0.04874
715.0,0.048218
720.0,0.048383
725.0,0.048403
730.0,0.048467
735.0,0.048629
740.0,0.048934
745.0,0.049081
750.0,0.049222
755.0,0.049227
760.0,0.048965
765.0,0.048921
770.0,0.049134
775.0,0.049025
780.0,0.048996
785.0,0.049199
790.0,0.049383
795.0,0.04945
800.0,0.049743
805.0,0.049572
810.0,0.050049
815.0,0.050046
820.0,0.050257
825.0,0.050079
830.0,0.050358
835.0,0.049989
840.0,0.050331
845.0,0.050107
850.0,0.050236
855.0,0.050143
860.0,0.049744
865.0,0.050215
870.0,0.049777
875.0,0.04974
880.0,0.049848
885.0,0.049914
890.0,0.049728
895.0,0.04989
900.0,0.049961
905.0,0.050071
910.0,0.050107
915.0,0.049805
920.0,0.049787
925.0,0.049745
930.0,0.049784
935.0,0.049645
940.0,0.049811
945.0,0.049905
950.0,0.049962
955.0,0.049894
960.0,0.050214
965.0,0.050022
970.0,0.050163
975.0,0.050207
980.0,0.050414
985.0,0.050407
990.0,0.050503
995.0,0.050318
1000.0,0.05044
1005.0,0.050517
1010.0,0.050537
1015.0,0.050611
1020.0,0.050625
1025.0,0.050676
1030.0,0.050766
1035.0,0.050744
1040.0,0.050807
1045.0,0.051019
1050.0,0.050845
1055.0,0.050996
1060.0,0.051037
1065.0,0.051057
1070.0,0.051122
1075.0,0.051191
1080.0,0.051081
1085.0,0.051222
1090.0,0.051254
1095.0,0.051411
1100.0,0.051462
1105.0,0.051616
1110.0,0.051614
1115.0,0.051687
1120.0,0.051855
1125.0,0.051947
1130.0,0.052004
1135.0,0.052264
1140.0,0.05221
1145.0,0.052198
1150.0,0.052297
1155.0,0.052263
1160.0,0.052312
1165.0,0.052322
1170.0,0.052439
1175.0,0.052477
1180.0,0.052636
1185.0,0.052804
1190.0,0.052665
1195.0,0.052952
1200.0,0.05293
1205.0,0.053003
1210.0,0.05292
1215.0,0.053002
1220.0,0.053185
1225.0,0.053187
1230.0,0.053211
1235.0,0.053269
1240.0,0.053247
1245.0,0.053214
1250.0,0.05331
1255.0,0.053149
1260.0,0.053278
1265.0,0.05336
1270.0,0.053274
1275.0,0.053373
1280.0,0.053331
1285.0,0.05344
1290.0,0.053429
1295.0,0.053485
1300.0,0.053463
1305.0,0.053491
1310.0,0.053682
1315.0,0.053652
1320.0,0.053576
1325.0,0.053725
1330.0,0.053816
1335.0,0.053808
1340.0,0.053895
1345.0,0.05392
1350.0,0.054052
1355.0,0.053953
1360.0,0.054019
1365.0,0.053838
1370.0,0.054072
1375.0,0.053984
1380.0,0.054117
1385.0,0.054159
1390.0,0.054128
1395.0,0.054304
1400.0,0.054365
1405.0,0.054443
1410.0,0.054449
1415.0,0.05443
1420.0,0.05445
1425.0,0.054531
1430.0,0.054547
1435.0,0.054494
1440.0,0.054685
1445.0,0.054605
1450.0,0.054669
1455.0,0.054752
1460.0,0.054862
1465.0,0.054835
1470.0,0.054983
1475.0,0.054879
1480.0,0.055117
1485.0,0.055155
1490.0,0.055207
1495.0,0.055324
1500.0,0.055196
1505.0,0.055242
1510.0,0.055406
1515.0,0.055543
1520.0,0.055523
1525.0,0.055622
1530.0,0.055551
1535.0,0.05574
1540.0,0.055786
1545.0,0.055862
1550.0,0.055906
1555.0,0.055883
1560.0,0.055871
1565.0,0.056024
1570.0,0.056014
1575.0,0.056251
1580.0,0.056236
1585.0,0.056391
1590.0,0.056361
1595.0,0.056497
1600.0,0.056597
1605.0,0.056574
1610.0,0.05665
1615.0,0.056646
1620.0,0.056478
1625.0,0.05666
1630.0,0.056562
1635.0,0.056464
1640.0,0.056747
1645.0,0.056661
1650.0,0.056578
1655.0,0.056578
1660.0,0.056638
1665.0,0.056618
1670.0,0.056508
1675.0,0.056498
1680.0,0.056653
1685.0,0.056675
1690.0,0.056865
1695.0,0.056858
1700.0,0.05699
1705.0,0.05708
1710.0,0.057112
1715.0,0.05711
1720.0,0.05727
1725.0,0.057342
1730.0,0.057299
1735.0,0.057347
1740.0,0.057314
1745.0,0.057292
1750.0,0.057357
1755.0,0.057205
1760.0,0.057216
1765.0,0.057123
1770.0,0.057165
1775.0,0.057253
1780.0,0.057254
1785.0,0.057243
1790.0,0.057247
1795.0,0.057289
1800.0,0.057249
1805.0,0.05717
1810.0,0.057137
1815.0,0.057081
1820.0,0.057249
1825.0,0.057189
1830.0,0.057138
1835.0,0.057031
1840.0,0.056893
1845.0,0.056978
1850.0,0.057118
1855.0,0.057176
1860.0,0.057249
1865.0,0.057105
1870.0,0.057037
1875.0,0.057089
1880.0,0.057408
1885.0,0.057514
1890.0,0.057454
1895.0,0.057468
1900.0,0.057433
1905.0,0.057328
1910.0,0.057296
1915.0,0.057205
1920.0,0.05731
1925.0,0.057428
1930.0,0.057447
1935.0,0.057408
1940.0,0.057421
1945.0,0.057483
1950.0,0.057604
1955.0,0.057676
1960.0,0.057795
1965.0,0.0578
1970.0,0.057915
1975.0,0.057922
1980.0,0.058033
1985.0,0.058026
1990.0,0.058023
1995.0,0.058024
2000.0,0.058091
2005.0,0.058204
2010.0,0.058317
2015.0,0.058237
2020.0,0.058369
2025.0,0.058433
2030.0,0.058474
2035.0,0.058465
2040.0,0.058473
2045.0,0.058453
2050.0,0.058535
2055.0,0.058487
2060.0,0.05849
2065.0,0.058571
2070.0,0.058496
2075.0,0.058599
2080.0,0.058578
2085.0,0.058572
2090.0,0.05859
2095.0,0.058632
2100.0,0.058716
2105.0,0.058581
2110.0,0.058626
2115.0,0.058543
2120.0,0.058557
2125.0,0.058529
2130.0,0.058599
2135.0,0.058653
2140.0,0.0587
2145.0,0.058778
2150.0,0.058818
2155.0,0.058808
2160.0,0.058801
2165.0,0.058844
2170.0,0.058813
2175.0,0.058761
2180.0,0.058777
2185.0,0.058738
2190.0,0.058931
2195.0,0.05893
2200.0,0.058987
2205.0,0.05911
2210.0,0.058991
2215.0,0.059119
2220.0,0.059047
2225.0,0.059219
2230.0,0.059205
2235.0,0.059207
2240.0,0.059312
2245.0,0.059216
2250.0,0.059287
2255.0,0.059261
2260.0,0.059358
2265.0,0.059219
2270.0,0.059242
2275.0,0.059247
2280.0,0.059249
2285.0,0.059432
2290.0,0.059241
2295.0,0.059272
2300.0,0.059283
2305.0,0.059243
2310.0,0.059183
2315.0,0.05912
2320.0,0.059088
2325.0,0.059188
2330.0,0.059151
2335.0,0.059117
2340.0,0.05902
2345.0,0.059066
2350.0,0.059209
2355.0,0.059184
2360.0,0.059159
2365.0,0.059143
2370.0,0.059179
2375.0,0.059093
2380.0,0.059043
2385.0,0.059047
2390.0,0.058989
2395.0,0.059068
2400.0,0.059231
2405.0,0.059139
2410.0,0.059009
2415.0,0.059004
2420.0,0.058834
2425.0,0.058489
2430.0,0.05846
2435.0,0.058285
2440.0,0.058316
2445.0,0.058318
2450.0,0.058245
2455.0,0.058225
2460.0,0.058312
2465.0,0.058193
2470.0,0.058168
2475.0,0.058162
2480.0,0.058014
2485.0,0.058039
2490.0,0.057791
2495.0,0.057941
2500.0,0.057844
2505.0,0.058019
2510.0,0.057982
2515.0,0.058068
2520.0,0.058038
2525.0,0.058132
2530.0,0.058053
2535.0,0.058014
2540.0,0.058111
2545.0,0.057956
2550.0,0.0579
2555.0,0.058073
2560.0,0.058033
2565.0,0.057318
2570.0,0.057766
2575.0,0.057714
2580.0,0.05778
2585.0,0.057836
2590.0,0.057617
2595.0,0.057384
2600.0,0.05761
