Database of Origin,University of Winnipeg Spectrophotometer Facility
Sample Description,16.12. Meteorites - Ureilites 16.12.3. Pierre Hudon (JSC) samples (b) Nicolet FTIR spectra from RELAB
Other Information,bmr1ph023
Date Added,2018-07-23 23:49:07.240504

Data ID,RLA_MET2_9_4        
Sample ID,GRA95205
Mineral Name,ureilite
Grain Size,<75 um
Viewing Geometry,30/30
Resolution,0.8-121 nm

Wavelength
2000.5,0.04908
2001.3,0.04906
2002.1,0.04888
2002.8,0.04898
2003.6,0.04924
2004.4,0.04926
2005.2,0.04944
2005.9,0.04988
2006.7,0.05028
2007.5,0.04977
2008.3,0.04967
2009.0,0.05012
2009.8,0.05014
2010.6,0.04979
2011.4,0.05007
2012.2,0.05004
2012.9,0.04989
2013.7,0.05006
2014.5,0.04945
2015.3,0.0496
2016.1,0.05056
2016.8,0.05061
2017.6,0.05017
2018.4,0.05071
2019.2,0.05087
2020.0,0.05045
2020.8,0.05013
2021.6,0.0499
2022.4,0.04995
2023.2,0.05014
2023.9,0.0507
2024.7,0.05104
2025.5,0.05113
2026.3,0.05143
2027.1,0.0513
2027.9,0.05094
2028.7,0.05101
2029.5,0.05095
2030.3,0.05097
2031.1,0.05102
2031.9,0.05114
2032.7,0.05166
2033.5,0.05184
2034.3,0.05131
2035.1,0.05102
2035.9,0.05089
2036.7,0.05102
2037.5,0.05181
2038.3,0.05219
2039.1,0.05198
2039.9,0.05179
2040.7,0.05139
2041.5,0.05179
2042.3,0.05238
2043.1,0.05218
2043.9,0.05203
2044.7,0.05218
2045.5,0.05192
2046.3,0.05171
2047.1,0.05228
2047.9,0.05295
2048.7,0.05269
2049.5,0.05215
2050.4,0.05206
2051.2,0.05217
2052.0,0.05245
2052.8,0.05295
2053.6,0.05312
2054.4,0.05294
2055.2,0.053
2056.0,0.05301
2056.9,0.05285
2057.7,0.05328
2058.5,0.05367
2059.3,0.05347
2060.1,0.05331
2060.9,0.05323
2061.8,0.05314
2062.6,0.05327
2063.4,0.05353
2064.2,0.05392
2065.1,0.05366
2065.9,0.05362
2066.7,0.05362
2067.5,0.05356
2068.3,0.05352
2069.2,0.05321
2070.0,0.05326
2070.8,0.05397
2071.6,0.05405
2072.5,0.05399
2073.3,0.05418
2074.1,0.05425
2075.0,0.05404
2075.8,0.05455
2076.6,0.0548
2077.5,0.05432
2078.3,0.05424
2079.1,0.05458
2080.0,0.05481
2080.8,0.05481
2081.6,0.05455
2082.5,0.05491
2083.3,0.05524
2084.1,0.05509
2085.0,0.05498
2085.8,0.05497
2086.7,0.05528
2087.5,0.05533
2088.3,0.0552
2089.2,0.05524
2090.0,0.05502
2090.9,0.05486
2091.7,0.05516
2092.6,0.05549
2093.4,0.05586
2094.2,0.05571
2095.1,0.05547
2095.9,0.05558
2096.8,0.05546
2097.6,0.05555
2098.5,0.05574
2099.3,0.05573
2100.2,0.05601
2101.0,0.05651
2101.9,0.05676
2102.7,0.05657
2103.6,0.05622
2104.4,0.05602
2105.3,0.05613
2106.1,0.05658
2107.0,0.05668
2107.9,0.05651
2108.7,0.05655
2109.6,0.05666
2110.4,0.05658
2111.3,0.0565
2112.2,0.05653
2113.0,0.05644
2113.9,0.05674
2114.7,0.05722
2115.6,0.05706
2116.5,0.05714
2117.3,0.05749
2118.2,0.05762
2119.1,0.05747
2119.9,0.05747
2120.8,0.05766
2121.7,0.05746
2122.5,0.05743
2123.4,0.05763
2124.3,0.05782
2125.1,0.05775
2126.0,0.05787
2126.9,0.0579
2127.8,0.05791
2128.6,0.05782
2129.5,0.05763
2130.4,0.05796
2131.3,0.05818
2132.1,0.05812
2133.0,0.05798
2133.9,0.05792
2134.8,0.05791
2135.6,0.05796
2136.5,0.05797
2137.4,0.05823
2138.3,0.05843
2139.2,0.05841
2140.1,0.05827
2140.9,0.05817
2141.8,0.05833
2142.7,0.05864
2143.6,0.05888
2144.5,0.05876
2145.4,0.05849
2146.3,0.05854
2147.1,0.05858
2148.0,0.05854
2148.9,0.0588
2149.8,0.05891
2150.7,0.05839
2151.6,0.05829
2152.5,0.05856
2153.4,0.05892
2154.3,0.05922
2155.2,0.05881
2156.1,0.05852
2157.0,0.05884
2157.9,0.05931
2158.8,0.05934
2159.7,0.05933
2160.6,0.05962
2161.5,0.05977
2162.4,0.05963
2163.3,0.0595
2164.2,0.05968
2165.1,0.05967
2166.0,0.05934
2166.9,0.05934
2167.8,0.05966
2168.7,0.05978
2169.6,0.06002
2170.5,0.06009
2171.4,0.06007
2172.3,0.06024
2173.3,0.05989
2174.2,0.05977
2175.1,0.0601
2176.0,0.06035
2176.9,0.06052
2177.8,0.06033
2178.7,0.06006
2179.6,0.05996
2180.6,0.06032
2181.5,0.0607
2182.4,0.06065
2183.3,0.06046
2184.2,0.06076
2185.1,0.06105
2186.1,0.06091
2187.0,0.06097
2187.9,0.06098
2188.8,0.06049
2189.8,0.06023
2190.7,0.06062
2191.6,0.06081
2192.6,0.06069
2193.5,0.06084
2194.4,0.06115
2195.3,0.06129
2196.3,0.06133
2197.2,0.06123
2198.1,0.06113
2199.1,0.06107
2200.0,0.06113
2200.9,0.06103
2201.9,0.06097
2202.8,0.0611
2203.7,0.06139
2204.7,0.06127
2205.6,0.06096
2206.5,0.06115
2207.5,0.06126
2208.4,0.06148
2209.4,0.06146
2210.3,0.06153
2211.3,0.0616
2212.2,0.06158
2213.1,0.0618
2214.1,0.06204
2215.0,0.06189
2216.0,0.06191
2216.9,0.06211
2217.9,0.06198
2218.8,0.06182
2219.8,0.0619
2220.7,0.06207
2221.7,0.06244
2222.6,0.06253
2223.6,0.06245
2224.5,0.06242
2225.5,0.06245
2226.4,0.0625
2227.4,0.06257
2228.4,0.06257
2229.3,0.06262
2230.3,0.0627
2231.2,0.06277
2232.2,0.06261
2233.1,0.06274
2234.1,0.06302
2235.1,0.06282
2236.0,0.06272
2237.0,0.06298
2238.0,0.06296
2238.9,0.06281
2239.9,0.06266
2240.9,0.06259
2241.8,0.06278
2242.8,0.06296
2243.8,0.06301
2244.8,0.06316
2245.7,0.06347
2246.7,0.06347
2247.7,0.06318
2248.6,0.06325
2249.6,0.06344
2250.6,0.06354
2251.6,0.06345
2252.6,0.06355
2253.5,0.06357
2254.5,0.06363
2255.5,0.06386
2256.5,0.06402
2257.5,0.06379
2258.4,0.06357
2259.4,0.06366
2260.4,0.06376
2261.4,0.06385
2262.4,0.06411
2263.4,0.06404
2264.4,0.06411
2265.4,0.06438
2266.3,0.06424
2267.3,0.06422
2268.3,0.06395
2269.3,0.06381
2270.3,0.06407
2271.3,0.06413
2272.3,0.06418
2273.3,0.06413
2274.3,0.06408
2275.3,0.06418
2276.3,0.06441
2277.3,0.06467
2278.3,0.06467
2279.3,0.06476
2280.3,0.0647
2281.3,0.0647
2282.3,0.06479
2283.3,0.06459
2284.3,0.06456
2285.3,0.06485
2286.3,0.06498
2287.3,0.06509
2288.4,0.06503
2289.4,0.06503
2290.4,0.06496
2291.4,0.065
2292.4,0.06512
2293.4,0.065
2294.4,0.06523
2295.4,0.06556
2296.5,0.06539
2297.5,0.06529
2298.5,0.06513
2299.5,0.06524
2300.5,0.06556
2301.6,0.06565
2302.6,0.06561
2303.6,0.06554
2304.6,0.06536
2305.6,0.06529
2306.7,0.06566
2307.7,0.06563
2308.7,0.06542
2309.8,0.0655
2310.8,0.06558
2311.8,0.0655
2312.9,0.06567
2313.9,0.066
2314.9,0.06611
2315.9,0.06602
2317.0,0.06606
2318.0,0.06621
2319.1,0.06621
2320.1,0.06604
2321.1,0.06607
2322.2,0.06626
2323.2,0.06626
2324.3,0.06611
2325.3,0.06608
2326.3,0.06614
2327.4,0.0662
2328.4,0.06655
2329.5,0.06664
2330.5,0.06647
2331.6,0.06655
2332.6,0.06677
2333.7,0.06674
2334.7,0.06648
2335.8,0.06638
2336.8,0.06649
2337.9,0.06669
2338.9,0.06673
2340.0,0.0668
2341.0,0.0668
2342.1,0.06663
2343.2,0.06681
2344.2,0.06686
2345.3,0.067
2346.3,0.06729
2347.4,0.0674
2348.5,0.06733
2349.5,0.06729
2350.6,0.06744
2351.7,0.06739
2352.7,0.0673
2353.8,0.06727
2354.9,0.06743
2355.9,0.06767
2357.0,0.06758
2358.1,0.06738
2359.1,0.0673
2360.2,0.06734
2361.3,0.06755
2362.4,0.0677
2363.4,0.06772
2364.5,0.0677
2365.6,0.06759
2366.7,0.06746
2367.8,0.06737
2368.9,0.06748
2369.9,0.0677
2371.0,0.06792
2372.1,0.0681
2373.2,0.0682
2374.3,0.06806
2375.4,0.06784
2376.4,0.06792
2377.5,0.06793
2378.6,0.06781
2379.7,0.06795
2380.8,0.06795
2381.9,0.06793
2383.0,0.06793
2384.1,0.06806
2385.2,0.06813
2386.3,0.06818
2387.4,0.06816
2388.5,0.06828
2389.6,0.06837
2390.7,0.06832
2391.8,0.06824
2392.9,0.06836
2394.0,0.06851
2395.1,0.06831
2396.2,0.06832
2397.3,0.06854
2398.4,0.0687
2399.6,0.06864
2400.7,0.06869
2401.8,0.06875
2402.9,0.06872
2404.0,0.06875
2405.1,0.06888
2406.2,0.06892
2407.4,0.06898
2408.5,0.06912
2409.6,0.06904
2410.7,0.06894
2411.8,0.06897
2412.9,0.06895
2414.1,0.06891
2415.2,0.06889
2416.3,0.06912
2417.4,0.06936
2418.6,0.06922
2419.7,0.0692
2420.8,0.06921
2422.0,0.06912
2423.1,0.06926
2424.2,0.06932
2425.4,0.06943
2426.5,0.06937
2427.6,0.06921
2428.8,0.06941
2429.9,0.06953
2431.1,0.06954
2432.2,0.06962
2433.3,0.06952
2434.5,0.06949
2435.6,0.06959
2436.8,0.06973
2437.9,0.06976
2439.1,0.06964
2440.2,0.06963
2441.4,0.0697
2442.5,0.06981
2443.6,0.06982
2444.8,0.06994
2446.0,0.07007
2447.1,0.07003
2448.3,0.06993
2449.4,0.07006
2450.6,0.07008
2451.7,0.06994
2452.9,0.06993
2454.1,0.07002
2455.2,0.07012
2456.4,0.07015
2457.6,0.07026
2458.7,0.07036
2459.9,0.07049
2461.1,0.07048
2462.2,0.0705
2463.4,0.07053
2464.6,0.07044
2465.7,0.07039
2466.9,0.07047
2468.1,0.07059
2469.3,0.07057
2470.4,0.07059
2471.6,0.07064
2472.8,0.07081
2474.0,0.07097
2475.1,0.07094
2476.3,0.07069
2477.5,0.07055
2478.7,0.07075
2479.9,0.07087
2481.1,0.07082
2482.3,0.07083
2483.4,0.07086
2484.6,0.07085
2485.8,0.07092
2487.0,0.07108
2488.2,0.0711
2489.4,0.07122
2490.6,0.07119
2491.8,0.07099
2493.0,0.07101
2494.2,0.07097
2495.4,0.07112
2496.6,0.07133
2497.8,0.07132
2499.0,0.07133
2500.2,0.0713
2501.4,0.07135
2502.6,0.07144
2503.8,0.07154
2505.0,0.07155
2506.3,0.07127
2507.5,0.07121
2508.7,0.07147
2509.9,0.07172
2511.1,0.07175
2512.3,0.07157
2513.5,0.07142
2514.8,0.07161
2516.0,0.07174
2517.2,0.07174
2518.4,0.07174
2519.6,0.07173
2520.9,0.07191
2522.1,0.07205
2523.3,0.07192
2524.6,0.07191
2525.8,0.07202
2527.0,0.07202
2528.3,0.07196
2529.5,0.07189
2530.7,0.07193
2531.9,0.07204
2533.2,0.07199
2534.4,0.07202
2535.7,0.07206
2536.9,0.07197
2538.1,0.07206
2539.4,0.07215
2540.6,0.07223
2541.9,0.07225
2543.1,0.07225
2544.4,0.07235
2545.6,0.07249
2546.9,0.07259
2548.1,0.07255
2549.4,0.07264
2550.6,0.07258
2551.9,0.0724
2553.1,0.07246
2554.4,0.07265
2555.7,0.07265
2556.9,0.07268
2558.2,0.07264
2559.4,0.07265
2560.7,0.07276
2562.0,0.07286
2563.2,0.07296
2564.5,0.07308
2565.8,0.07309
2567.1,0.07299
2568.3,0.07298
2569.6,0.07312
2570.9,0.07321
2572.1,0.07314
2573.4,0.07299
2574.7,0.07286
2576.0,0.07288
2577.3,0.07293
2578.5,0.07302
2579.8,0.07306
2581.1,0.07315
2582.4,0.0731
2583.7,0.07309
2585.0,0.07317
2586.3,0.07326
2587.5,0.07333
2588.8,0.07342
2590.1,0.07346
2591.4,0.07346
2592.7,0.07346
2594.0,0.07346
2595.3,0.07344
2596.6,0.07339
2597.9,0.07356
2599.2,0.07361
2600.5,0.07353
2601.8,0.0736
2603.1,0.07362
2604.4,0.07361
2605.8,0.07364
2607.1,0.07368
2608.4,0.07383
2609.7,0.07385
2611.0,0.07379
2612.3,0.07379
2613.6,0.07375
2614.9,0.07378
2616.3,0.07387
2617.6,0.07395
2618.9,0.07405
2620.2,0.07404
2621.6,0.07404
2622.9,0.07396
2624.2,0.07401
2625.5,0.07414
2626.9,0.07414
2628.2,0.07419
2629.5,0.07423
2630.9,0.07427
2632.2,0.0743
2633.5,0.07421
2634.9,0.07419
2636.2,0.07432
2637.6,0.07454
2638.9,0.07452
2640.2,0.07437
2641.6,0.0743
2642.9,0.07435
2644.3,0.07438
2645.6,0.07443
2647.0,0.07452
2648.3,0.07462
2649.7,0.07458
2651.0,0.07447
2652.4,0.07438
2653.8,0.07431
2655.1,0.07449
2656.5,0.07461
2657.8,0.07472
2659.2,0.07469
2660.6,0.07458
2661.9,0.07455
2663.3,0.07457
2664.7,0.07475
2666.0,0.07482
2667.4,0.07477
2668.8,0.07475
2670.1,0.07474
2671.5,0.07484
2672.9,0.07475
2674.3,0.07463
2675.7,0.07465
2677.0,0.07462
2678.4,0.07463
2679.8,0.07474
2681.2,0.07482
2682.6,0.07484
2684.0,0.07474
2685.4,0.07477
2686.8,0.07487
2688.1,0.07493
2689.5,0.07493
2690.9,0.07476
2692.3,0.07471
2693.7,0.07481
2695.1,0.07487
2696.5,0.07489
2697.9,0.07485
2699.3,0.07471
2700.8,0.07478
2702.1,0.07491
2703.6,0.07481
2705.0,0.07474
2706.4,0.07476
2707.8,0.07474
2709.2,0.07468
2710.6,0.07468
2712.1,0.07463
2713.5,0.07463
2714.9,0.07457
2716.3,0.07452
2717.7,0.07457
2719.2,0.07461
2720.6,0.07452
2722.0,0.07441
2723.4,0.07443
2724.9,0.0743
2726.3,0.07419
2727.7,0.07428
2729.2,0.07433
2730.6,0.07416
2732.1,0.07405
2733.5,0.07403
2734.9,0.07401
2736.4,0.07392
2737.8,0.07379
2739.3,0.07367
2740.7,0.0737
2742.2,0.07374
2743.6,0.07365
2745.1,0.07353
2746.5,0.07336
2748.0,0.07324
2749.4,0.07321
2750.9,0.07322
2752.4,0.07312
2753.8,0.07293
2755.3,0.07283
2756.7,0.07267
2758.2,0.07257
2759.7,0.07254
2761.1,0.07245
2762.6,0.07244
2764.1,0.07234
2765.6,0.07215
2767.0,0.07199
2768.5,0.07191
2770.0,0.07171
2771.5,0.07161
2773.0,0.07157
2774.4,0.07145
2775.9,0.07141
2777.4,0.07134
2778.9,0.07113
2780.4,0.07096
2781.9,0.07097
2783.4,0.07088
2784.9,0.07078
2786.4,0.0707
2787.9,0.0706
2789.4,0.07051
2790.9,0.07041
2792.4,0.07031
2793.9,0.07019
2795.4,0.0701
2796.9,0.07003
2798.4,0.06996
2799.9,0.06979
2801.4,0.06971
2802.9,0.06968
2804.4,0.06961
2806.0,0.06949
2807.5,0.06941
2809.0,0.06933
2810.5,0.06923
2812.1,0.06916
2813.6,0.06911
2815.1,0.06901
2816.6,0.06902
2818.2,0.0689
2819.7,0.06867
2821.2,0.06859
2822.8,0.06853
2824.3,0.06851
2825.9,0.06846
2827.4,0.06837
2828.9,0.06826
2830.5,0.06814
2832.0,0.06817
2833.6,0.06808
2835.1,0.0679
2836.7,0.06777
2838.2,0.06767
2839.8,0.06761
2841.3,0.06762
2842.9,0.06754
2844.4,0.06738
2846.0,0.06741
2847.6,0.06742
2849.1,0.06739
2850.7,0.06735
2852.3,0.06717
2853.8,0.06715
2855.4,0.06714
2857.0,0.06702
2858.6,0.06683
2860.1,0.06683
2861.7,0.06687
2863.3,0.06681
2864.9,0.06675
2866.5,0.06677
2868.1,0.06679
2869.6,0.06677
2871.2,0.06672
2872.8,0.06661
2874.4,0.06657
2876.0,0.06662
2877.6,0.06661
2879.2,0.06648
2880.8,0.06639
2882.4,0.06638
2884.0,0.06641
2885.6,0.06636
2887.2,0.06633
2888.8,0.06634
2890.4,0.0663
2892.0,0.06634
2893.6,0.06638
2895.3,0.06628
2896.9,0.06618
2898.5,0.06616
2900.1,0.06622
2901.8,0.06619
2903.4,0.06611
2905.0,0.06614
2906.6,0.06623
2908.3,0.06628
2909.9,0.06617
2911.5,0.06601
2913.2,0.06597
2914.8,0.06602
2916.4,0.06608
2918.1,0.06614
2919.7,0.0661
2921.4,0.0661
2923.0,0.06603
2924.7,0.06593
2926.3,0.06591
2928.0,0.06583
2929.6,0.06578
2931.3,0.06585
2932.9,0.06589
2934.6,0.06591
2936.3,0.06593
2937.9,0.06586
2939.6,0.06574
2941.3,0.06571
2942.9,0.06583
2944.6,0.06586
2946.3,0.06584
2947.9,0.06582
2949.6,0.06583
2951.3,0.06582
2953.0,0.06585
2954.7,0.06585
2956.3,0.0658
2958.0,0.06578
2959.7,0.0658
2961.4,0.06575
2963.1,0.06573
2964.8,0.06577
2966.5,0.06567
2968.2,0.06561
2969.9,0.06569
2971.6,0.06576
2973.3,0.06569
2975.0,0.06562
2976.7,0.06562
2978.4,0.06557
2980.1,0.06549
2981.9,0.06551
2983.6,0.06563
2985.3,0.06563
2987.0,0.06559
2988.7,0.06561
2990.4,0.06564
2992.2,0.0656
2993.9,0.06554
2995.6,0.06556
2997.4,0.06564
2999.1,0.06565
3000.8,0.06567
3002.6,0.0657
3004.3,0.06568
3006.1,0.06562
3007.8,0.06556
3009.5,0.06554
3011.3,0.06555
3013.0,0.06559
3014.8,0.06559
3016.5,0.06558
3018.3,0.06562
3020.1,0.06563
3021.8,0.06557
3023.6,0.06558
3025.3,0.06562
3027.1,0.06561
3028.9,0.0656
3030.6,0.06559
3032.4,0.06557
3034.2,0.06561
3036.0,0.06555
3037.7,0.06554
3039.5,0.06563
3041.3,0.06564
3043.1,0.06556
3044.9,0.06554
3046.7,0.06551
3048.5,0.06552
3050.3,0.06553
3052.1,0.06549
3053.8,0.0654
3055.6,0.06538
3057.4,0.06545
3059.3,0.06542
3061.1,0.06538
3062.9,0.06543
3064.7,0.06543
3066.5,0.06541
3068.3,0.06538
3070.1,0.06534
3071.9,0.06527
3073.8,0.06526
3075.6,0.06526
3077.4,0.06528
3079.2,0.06527
3081.1,0.06519
3082.9,0.06508
3084.7,0.06515
3086.6,0.06522
3088.4,0.06521
3090.2,0.06522
3092.1,0.06516
3093.9,0.06514
3095.8,0.06523
3097.6,0.06523
3099.5,0.06518
3101.3,0.06523
3103.2,0.06523
3105.1,0.06515
3106.9,0.06519
3108.8,0.06524
3110.6,0.06521
3112.5,0.06523
3114.4,0.06534
3116.2,0.06533
3118.1,0.06523
3120.0,0.06521
3121.9,0.06525
3123.8,0.0653
3125.6,0.06528
3127.5,0.06532
3129.4,0.06545
3131.3,0.06548
3133.2,0.06548
3135.1,0.06548
3137.0,0.06552
3138.9,0.06558
3140.8,0.06564
3142.7,0.06569
3144.6,0.06572
3146.5,0.06577
3148.4,0.0658
3150.3,0.06582
3152.2,0.06586
3154.1,0.06597
3156.1,0.06605
3158.0,0.06604
3159.9,0.06599
3161.8,0.06612
3163.8,0.06626
3165.7,0.0663
3167.6,0.06635
3169.6,0.06638
3171.5,0.06638
3173.5,0.06639
3175.4,0.06645
3177.3,0.06656
3179.3,0.0667
3181.2,0.06678
3183.2,0.06681
3185.1,0.0669
3187.1,0.06701
3189.1,0.06709
3191.0,0.06716
3193.0,0.0672
3195.0,0.06722
3196.9,0.06734
3198.9,0.06747
3200.9,0.06756
3202.9,0.06765
3204.8,0.06772
3206.8,0.06778
3208.8,0.06788
3210.8,0.06799
3212.8,0.06806
3214.8,0.06816
3216.8,0.06831
3218.8,0.06838
3220.8,0.0684
3222.8,0.0685
3224.8,0.0686
3226.8,0.06866
3228.8,0.06873
3230.8,0.06885
3232.8,0.06897
3234.8,0.06911
3236.8,0.06922
3238.9,0.06933
3240.9,0.06941
3242.9,0.06943
3244.9,0.06952
3247.0,0.06964
3249.0,0.06973
3251.1,0.06976
3253.1,0.06987
3255.1,0.06998
3257.2,0.07001
3259.2,0.0701
3261.3,0.07023
3263.3,0.07032
3265.4,0.07039
3267.4,0.07045
3269.5,0.07054
3271.6,0.07062
3273.6,0.07073
3275.7,0.07079
3277.8,0.07083
3279.8,0.07091
3281.9,0.07103
3284.0,0.0711
3286.1,0.07113
3288.2,0.07126
3290.2,0.07143
3292.3,0.07146
3294.4,0.07144
3296.5,0.07149
3298.6,0.07164
3300.7,0.07177
3302.8,0.0718
3304.9,0.07184
3307.0,0.07189
3309.1,0.07201
3311.3,0.07212
3313.4,0.07215
3315.5,0.07218
3317.6,0.0722
3319.7,0.07224
3321.9,0.07233
3324.0,0.07239
3326.1,0.07248
3328.3,0.07261
3330.4,0.07271
3332.5,0.07281
3334.7,0.07284
3336.8,0.0729
3339.0,0.07299
3341.1,0.07297
3343.3,0.07301
3345.4,0.07314
3347.6,0.07329
3349.8,0.07335
3351.9,0.07336
3354.1,0.0734
3356.3,0.07349
3358.4,0.07357
3360.6,0.07365
3362.8,0.07369
3365.0,0.07371
3367.2,0.07375
3369.4,0.07376
3371.5,0.07379
3373.7,0.07381
3375.9,0.07383
3378.1,0.07385
3380.3,0.07396
3382.5,0.07411
3384.7,0.07415
3386.9,0.07416
3389.2,0.07425
3391.4,0.07437
3393.6,0.07441
3395.8,0.07446
3398.1,0.07445
3400.3,0.07444
3402.5,0.07452
3404.7,0.07447
3407.0,0.0744
3409.2,0.07439
3411.5,0.07439
3413.7,0.07447
3416.0,0.07453
3418.2,0.07455
3420.5,0.07456
3422.7,0.0746
3425.0,0.07469
3427.3,0.07482
3429.5,0.07492
3431.8,0.07509
3434.1,0.07521
3436.3,0.07529
3438.6,0.07534
3440.9,0.07537
3443.2,0.07547
3445.5,0.07551
3447.8,0.07561
3450.1,0.07572
3452.4,0.07575
3454.6,0.07583
3456.9,0.07591
3459.3,0.07598
3461.6,0.076
3463.9,0.07606
3466.2,0.0761
3468.5,0.07615
3470.8,0.07621
3473.2,0.0763
3475.5,0.07641
3477.8,0.07641
3480.1,0.07643
3482.5,0.0765
3484.8,0.07651
3487.2,0.07649
3489.5,0.0765
3491.9,0.07656
3494.2,0.0766
3496.6,0.07654
3498.9,0.07656
3501.3,0.07661
3503.7,0.07663
3506.0,0.0767
3508.4,0.07677
3510.8,0.07689
3513.2,0.077
3515.5,0.07703
3517.9,0.07706
3520.3,0.0771
3522.7,0.07718
3525.1,0.07726
3527.5,0.07727
3529.9,0.07735
3532.3,0.0775
3534.7,0.07759
3537.1,0.07765
3539.5,0.07766
3541.9,0.07767
3544.4,0.07773
3546.8,0.07777
3549.2,0.07784
3551.7,0.07786
3554.1,0.07792
3556.5,0.07802
3559.0,0.07806
3561.4,0.07806
3563.9,0.07809
3566.3,0.07811
3568.8,0.07817
3571.2,0.07825
3573.7,0.07826
3576.1,0.07833
3578.6,0.07842
3581.1,0.07845
3583.6,0.07848
3586.0,0.07854
3588.5,0.07861
3591.0,0.07865
3593.5,0.07866
3596.0,0.07871
3598.5,0.07884
3601.0,0.0789
3603.5,0.07891
3606.0,0.07891
3608.5,0.0789
3611.0,0.0789
3613.5,0.07898
3616.1,0.07905
3618.6,0.07906
3621.1,0.0791
3623.6,0.07916
3626.2,0.0792
3628.7,0.0792
3631.3,0.07922
3633.8,0.07932
3636.3,0.0794
3638.9,0.07947
3641.4,0.0795
3644.0,0.0795
3646.6,0.07956
3649.1,0.07962
3651.7,0.07968
3654.3,0.07973
3656.9,0.07979
3659.4,0.07977
3662.0,0.07978
3664.6,0.07986
3667.2,0.07994
3669.8,0.07999
3672.4,0.08
3675.0,0.08003
3677.6,0.08009
3680.2,0.08016
3682.8,0.08021
3685.4,0.08026
3688.1,0.08026
3690.7,0.08028
3693.3,0.08029
3695.9,0.08032
3698.6,0.08034
3701.2,0.08037
3703.9,0.08039
3706.5,0.08047
3709.2,0.0806
3711.8,0.08069
3714.5,0.08065
3717.1,0.08062
3719.8,0.08067
3722.5,0.08074
3725.2,0.08077
3727.8,0.08083
3730.5,0.08084
3733.2,0.08084
3735.9,0.08092
3738.6,0.08096
3741.3,0.08099
3744.0,0.08103
3746.7,0.08105
3749.4,0.08106
3752.1,0.08107
3754.8,0.08115
3757.6,0.08125
3760.3,0.08127
3763.0,0.08132
3765.7,0.08135
3768.5,0.08138
3771.2,0.08146
3774.0,0.08144
3776.7,0.08144
3779.5,0.08145
3782.2,0.08149
3785.0,0.08149
3787.7,0.08149
3790.5,0.08154
3793.3,0.0816
3796.1,0.08168
3798.8,0.08168
3801.6,0.08165
3804.4,0.08167
3807.2,0.08172
3810.0,0.08171
3812.8,0.08176
3815.6,0.0818
3818.4,0.0818
3821.2,0.08183
3824.1,0.0819
3826.9,0.08194
3829.7,0.08198
3832.5,0.082
3835.4,0.08202
3838.2,0.08203
3841.1,0.08204
3843.9,0.08205
3846.8,0.08208
3849.6,0.08216
3852.5,0.08222
3855.3,0.08225
3858.2,0.08228
3861.1,0.08225
3863.9,0.08225
3866.8,0.08228
3869.7,0.08236
3872.6,0.0824
3875.5,0.0824
3878.4,0.08243
3881.3,0.08247
3884.2,0.0825
3887.1,0.08251
3890.0,0.08249
3893.0,0.08244
3895.9,0.08246
3898.8,0.08256
3901.7,0.08259
3904.7,0.08261
3907.6,0.08264
3910.6,0.08269
3913.5,0.08269
3916.5,0.0827
3919.4,0.08278
3922.4,0.08278
3925.4,0.08276
3928.4,0.08279
3931.3,0.08279
3934.3,0.08279
3937.3,0.08284
3940.3,0.08286
3943.3,0.08286
3946.3,0.08289
3949.3,0.08292
3952.3,0.08289
3955.3,0.0829
3958.3,0.08299
3961.4,0.08303
3964.4,0.08302
3967.4,0.0831
3970.5,0.08317
3973.5,0.08315
3976.6,0.08315
3979.6,0.08318
3982.6,0.08317
3985.7,0.08319
3988.8,0.08328
3991.9,0.08332
3994.9,0.08329
3998.0,0.08328
4001.1,0.08329
4004.2,0.08332
4007.3,0.08332
4010.4,0.08329
4013.5,0.08328
4016.6,0.08334
4019.7,0.08337
4022.8,0.08341
4025.9,0.08345
4029.1,0.08346
4032.2,0.08348
4035.3,0.08353
4038.5,0.08353
4041.6,0.08349
4044.8,0.0835
4047.9,0.08352
4051.1,0.08352
4054.3,0.08353
4057.4,0.08355
4060.6,0.08357
4063.8,0.08355
4067.0,0.08355
4070.2,0.08359
4073.4,0.08365
4076.6,0.08365
4079.8,0.08363
4083.0,0.08366
4086.2,0.08369
4089.4,0.08372
4092.7,0.08371
4095.9,0.08367
4099.1,0.08368
4102.4,0.08371
4105.6,0.08374
4108.9,0.08377
4112.1,0.08374
4115.4,0.08372
4118.7,0.08376
4122.0,0.08376
4125.2,0.08378
4128.5,0.0838
4131.8,0.08381
4135.1,0.08381
4138.4,0.08378
4141.7,0.08379
4145.0,0.0838
4148.3,0.08384
4151.6,0.08389
4155.0,0.08384
4158.3,0.08378
4161.6,0.08382
4165.0,0.08387
4168.3,0.08383
4171.7,0.08381
4175.0,0.08386
4178.4,0.08384
4181.8,0.08381
4185.2,0.08381
4188.5,0.08381
4191.9,0.08384
4195.3,0.08389
4198.7,0.08385
4202.1,0.08381
4205.5,0.08385
4208.9,0.08387
4212.4,0.08383
4215.8,0.08377
4219.2,0.08376
4222.6,0.08373
4226.1,0.0837
4229.5,0.08371
4233.0,0.08369
4236.5,0.08361
4239.9,0.08357
4243.4,0.08357
4246.9,0.08363
4250.3,0.08371
4253.8,0.08379
4257.3,0.08385
4260.8,0.08384
4264.3,0.08382
4267.8,0.08374
4271.3,0.08372
4274.9,0.08377
4278.4,0.08382
4281.9,0.08381
4285.5,0.0838
4289.0,0.08376
4292.6,0.08374
4296.1,0.08379
4299.7,0.0838
4303.3,0.0838
4306.8,0.08383
4310.4,0.08388
4314.0,0.08391
4317.6,0.0839
4321.2,0.08392
4324.8,0.08392
4328.4,0.08388
4332.0,0.08392
4335.6,0.08397
4339.3,0.08394
4342.9,0.08393
4346.5,0.08395
4350.2,0.08397
4353.8,0.08395
4357.5,0.08395
4361.1,0.08399
4364.8,0.08403
4368.5,0.08405
4372.2,0.08405
4375.9,0.08401
4379.6,0.08393
4383.3,0.08396
4387.0,0.08403
4390.7,0.08401
4394.4,0.08397
4398.1,0.08394
4401.9,0.08398
4405.6,0.08404
4409.4,0.08405
4413.1,0.08405
4416.9,0.08403
4420.6,0.08399
4424.4,0.08399
4428.2,0.08401
4432.0,0.08401
4435.8,0.08401
4439.6,0.08402
4443.4,0.08396
4447.2,0.08396
4451.0,0.08398
4454.8,0.08397
4458.6,0.08397
4462.5,0.08397
4466.3,0.08397
4470.2,0.084
4474.0,0.08402
4477.9,0.08406
4481.8,0.08403
4485.6,0.08397
4489.5,0.08391
4493.4,0.08389
4497.3,0.08389
4501.2,0.08394
4505.1,0.08393
4509.0,0.08388
4513.0,0.08388
4516.9,0.08387
4520.9,0.08383
4524.8,0.08383
4528.7,0.08385
4532.7,0.08387
4536.7,0.08384
4540.6,0.08378
4544.6,0.08374
4548.6,0.08377
4552.6,0.08375
4556.6,0.08373
4560.6,0.08373
4564.6,0.08366
4568.6,0.08358
4572.7,0.08359
4576.7,0.0836
4580.8,0.08358
4584.8,0.08354
4588.9,0.08355
4592.9,0.08351
4597.0,0.08347
4601.1,0.08346
4605.2,0.08348
4609.3,0.08348
4613.4,0.08342
4617.5,0.08334
4621.6,0.08331
4625.7,0.08331
4629.8,0.08327
4634.0,0.08324
4638.1,0.08325
4642.3,0.08323
4646.4,0.08318
4650.6,0.08313
4654.8,0.08306
4659.0,0.08302
4663.1,0.08301
4667.3,0.08296
4671.5,0.08292
4675.8,0.08293
4680.0,0.08296
4684.2,0.08296
4688.4,0.08289
4692.7,0.08281
4696.9,0.08281
4701.2,0.08282
4705.5,0.08278
4709.7,0.08273
4714.0,0.08269
4718.3,0.08266
4722.6,0.08265
4726.9,0.08264
4731.2,0.0826
4735.5,0.08255
4739.9,0.0825
4744.2,0.08243
4748.5,0.08236
4752.9,0.08232
4757.3,0.08228
4761.6,0.08222
4766.0,0.0822
4770.4,0.08217
4774.8,0.08211
4779.2,0.08204
4783.6,0.082
4788.0,0.08191
4792.4,0.08185
4796.9,0.08181
4801.3,0.08181
4805.8,0.08172
4810.2,0.08162
4814.7,0.08159
4819.1,0.08155
4823.6,0.08151
4828.1,0.0815
4832.6,0.08144
4837.1,0.08135
4841.6,0.08131
4846.2,0.08122
4850.7,0.08115
4855.3,0.0811
4859.8,0.08097
4864.4,0.08087
4868.9,0.08076
4873.5,0.08066
4878.1,0.08057
4882.7,0.08046
4887.3,0.08033
4891.9,0.08021
4896.5,0.08007
4901.1,0.07992
4905.8,0.07978
4910.4,0.07964
4915.1,0.07951
4919.7,0.07934
4924.4,0.07919
4929.1,0.07906
4933.8,0.07892
4938.5,0.07881
4943.2,0.07874
4947.9,0.07867
4952.6,0.07858
4957.4,0.07852
4962.1,0.07851
4966.9,0.07851
4971.6,0.0785
4976.4,0.07851
4981.2,0.07853
4986.0,0.07853
4990.8,0.07851
4995.6,0.07854
5000.4,0.07858
5005.2,0.0786
5010.0,0.07855
5014.9,0.07852
5019.8,0.07852
5024.6,0.07851
5029.5,0.07851
5034.4,0.07849
5039.3,0.07846
5044.2,0.07842
5049.1,0.07836
5054.0,0.07831
5058.9,0.07828
5063.9,0.07826
5068.8,0.07815
5073.8,0.07808
5078.8,0.07801
5083.7,0.07789
5088.7,0.0778
5093.7,0.07774
5098.7,0.07765
5103.7,0.07755
5108.8,0.07746
5113.8,0.07739
5118.9,0.07732
5123.9,0.07725
5129.0,0.07714
5134.1,0.07706
5139.1,0.07698
5144.3,0.07692
5149.4,0.07685
5154.5,0.07679
5159.6,0.07672
5164.7,0.07669
5169.9,0.07665
5175.0,0.07656
5180.2,0.07651
5185.4,0.0765
5190.6,0.07646
5195.8,0.07641
5201.0,0.07638
5206.2,0.07639
5211.5,0.07639
5216.7,0.07635
5222.0,0.0763
5227.2,0.07628
5232.5,0.07629
5237.8,0.07632
5243.1,0.07632
5248.4,0.07637
5253.7,0.07639
5259.0,0.07638
5264.4,0.07637
5269.7,0.07641
5275.1,0.07643
5280.5,0.07641
5285.8,0.07641
5291.2,0.07643
5296.6,0.0764
5302.0,0.07642
5307.5,0.07646
5312.9,0.07646
5318.4,0.07643
5323.8,0.07641
5329.3,0.07638
5334.8,0.07638
5340.3,0.07628
5345.8,0.07616
5351.3,0.07609
5356.8,0.07606
5362.4,0.07601
5367.9,0.07592
5373.5,0.07578
5379.0,0.07566
5384.6,0.07559
5390.2,0.07547
5395.8,0.07533
5401.5,0.07522
5407.1,0.07508
5412.7,0.0749
5418.4,0.07479
5424.1,0.07468
5429.7,0.07454
5435.4,0.0744
5441.1,0.07429
5446.9,0.07426
5452.6,0.07418
5458.3,0.07407
5464.1,0.07402
5469.8,0.07401
5475.6,0.07401
5481.4,0.07402
5487.2,0.074
5493.0,0.07399
5498.8,0.07399
5504.7,0.07398
5510.5,0.07396
5516.4,0.07393
5522.3,0.07393
5528.1,0.0739
5534.0,0.0738
5540.0,0.07369
5545.9,0.07358
5551.8,0.07346
5557.8,0.07322
5563.7,0.07296
5569.7,0.07266
5575.7,0.07232
5581.7,0.07195
5587.7,0.07154
5593.7,0.07111
5599.8,0.07076
5605.8,0.07049
5611.9,0.07026
5618.0,0.07006
5624.1,0.06988
5630.2,0.06981
5636.3,0.06977
5642.4,0.06977
5648.6,0.0698
5654.7,0.06993
5660.9,0.07013
5667.1,0.07037
5673.3,0.07063
5679.5,0.07086
5685.7,0.07111
5692.0,0.07141
5698.2,0.07167
5704.5,0.07193
5710.8,0.07212
5717.1,0.07229
5723.4,0.07248
5729.7,0.07265
5736.0,0.0728
5742.4,0.07293
5748.8,0.07304
5755.1,0.07307
5761.5,0.07313
5768.0,0.07314
5774.4,0.07312
5780.8,0.07304
5787.3,0.07291
5793.7,0.0728
5800.2,0.07274
5806.7,0.07267
5813.2,0.0726
5819.8,0.07252
5826.3,0.07241
5832.8,0.07223
5839.4,0.07209
5846.0,0.07202
5852.6,0.07191
5859.2,0.07171
5865.8,0.07152
5872.5,0.07143
5879.1,0.07139
5885.8,0.07126
5892.5,0.07118
5899.2,0.07105
5905.9,0.07092
5912.6,0.07082
5919.4,0.07062
5926.2,0.07046
5932.9,0.07027
5939.7,0.06996
5946.5,0.06975
5953.4,0.06951
5960.2,0.06928
5967.1,0.06901
5974.0,0.06867
5980.8,0.06838
5987.8,0.06815
5994.7,0.06788
6001.6,0.0677
6008.6,0.06766
6015.5,0.06767
6022.5,0.06774
6029.5,0.06794
6036.5,0.06818
6043.6,0.06848
6050.6,0.06887
6057.7,0.06921
6064.8,0.06951
6071.9,0.06984
6079.0,0.07001
6086.1,0.07013
6093.3,0.0703
6100.5,0.07045
6107.6,0.07057
6114.9,0.07065
6122.1,0.07071
6129.3,0.07074
6136.5,0.07078
6143.8,0.07081
6151.1,0.0708
6158.4,0.0708
6165.7,0.07079
6173.1,0.07075
6180.4,0.07075
6187.8,0.0707
6195.2,0.07057
6202.6,0.07049
6210.0,0.07045
6217.5,0.0704
6225.0,0.07033
6232.4,0.07026
6239.9,0.07016
6247.5,0.07002
6255.0,0.06988
6262.5,0.06975
6270.1,0.06963
6277.7,0.06944
6285.3,0.06931
6292.9,0.06925
6300.6,0.06925
6308.3,0.06928
6315.9,0.06935
6323.6,0.06943
6331.4,0.06952
6339.1,0.0696
6346.9,0.06962
6354.6,0.06966
6362.4,0.06971
6370.3,0.06977
6378.1,0.06985
6385.9,0.06989
6393.8,0.06986
6401.7,0.06982
6409.6,0.06984
6417.6,0.06982
6425.5,0.06973
6433.5,0.06965
6441.5,0.06952
6449.5,0.06948
6457.5,0.0694
6465.6,0.06925
6473.6,0.06912
6481.7,0.06905
6489.8,0.06898
6498.0,0.06886
6506.1,0.06876
6514.3,0.06869
6522.5,0.06855
6530.7,0.06836
6538.9,0.06821
6547.2,0.06814
6555.5,0.06801
6563.8,0.06787
6572.1,0.06777
6580.4,0.06763
6588.8,0.0675
6597.2,0.06738
6605.6,0.06727
6614.0,0.06717
6622.5,0.06708
6630.9,0.06703
6639.4,0.06689
6647.9,0.06673
6656.5,0.06668
6665.0,0.06667
6673.6,0.06662
6682.2,0.06655
6690.8,0.06645
6699.5,0.06639
6708.1,0.06632
6716.8,0.06627
6725.5,0.06619
6734.3,0.06609
6743.0,0.06601
6751.8,0.06591
6760.6,0.06582
6769.4,0.06579
6778.3,0.06569
6787.1,0.06563
6796.0,0.06554
6805.0,0.06544
6813.9,0.06535
6822.9,0.06534
6831.9,0.06535
6840.9,0.06532
6849.9,0.06532
6859.0,0.06532
6868.0,0.06524
6877.2,0.06517
6886.3,0.06515
6895.5,0.06508
6904.6,0.06499
6913.8,0.0649
6923.1,0.06479
6932.3,0.06467
6941.6,0.06454
6950.9,0.06442
6960.2,0.06428
6969.6,0.06411
6979.0,0.064
6988.4,0.06386
6997.8,0.06368
7007.3,0.06352
7016.8,0.06334
7026.3,0.06313
7035.8,0.06299
7045.4,0.06284
7054.9,0.06266
7064.5,0.06256
7074.2,0.06235
7083.9,0.06217
7093.5,0.06202
7103.3,0.06191
7113.0,0.06181
7122.8,0.06167
7132.6,0.06146
7142.4,0.06129
7152.2,0.06113
7162.1,0.06096
7172.0,0.06076
7182.0,0.06059
7191.9,0.06043
7201.9,0.06026
7211.9,0.0601
7222.0,0.05994
7232.0,0.05976
7242.1,0.05962
7252.3,0.05952
7262.4,0.05938
7272.6,0.0592
7282.8,0.05904
7293.1,0.0589
7303.3,0.05876
7313.6,0.05854
7324.0,0.05838
7334.3,0.05821
7344.7,0.05804
7355.1,0.05785
7365.6,0.05767
7376.1,0.05751
7386.6,0.05736
7397.1,0.05718
7407.7,0.05702
7418.3,0.05692
7428.9,0.05676
7439.6,0.05658
7450.3,0.05646
7461.0,0.0563
7471.7,0.05617
7482.5,0.05606
7493.3,0.05594
7504.2,0.05581
7515.0,0.05571
7525.9,0.05558
7536.9,0.05549
7547.9,0.05535
7558.9,0.05524
7569.9,0.05515
7581.0,0.05505
7592.0,0.05499
7603.2,0.05501
7614.4,0.05499
7625.5,0.05492
7636.8,0.05482
7648.0,0.05479
7659.3,0.05473
7670.7,0.05464
7682.0,0.05452
7693.4,0.05449
7704.9,0.05441
7716.3,0.0543
7727.8,0.05414
7739.4,0.05392
7750.9,0.05374
7762.5,0.05363
7774.2,0.05345
7785.8,0.05329
7797.5,0.0531
7809.3,0.05286
7821.1,0.05263
7832.9,0.05241
7844.7,0.05221
7856.6,0.05201
7868.5,0.05183
7880.5,0.05162
7892.5,0.05128
7904.5,0.05096
7916.6,0.0507
7928.7,0.05043
7940.8,0.05009
7953.0,0.04979
7965.2,0.04944
7977.5,0.04907
7989.8,0.0486
8002.1,0.04817
8014.5,0.04779
8026.9,0.04737
8039.3,0.04691
8051.8,0.04648
8064.3,0.04602
8076.9,0.04559
8089.5,0.04517
8102.1,0.0447
8114.8,0.04422
8127.5,0.04369
8140.3,0.04317
8153.1,0.04279
8165.9,0.04237
8178.8,0.04194
8191.7,0.04152
8204.7,0.04109
8217.7,0.04067
8230.7,0.04033
8243.8,0.03997
8257.0,0.03961
8270.1,0.03925
8283.3,0.03896
8296.6,0.03873
8309.9,0.03847
8323.2,0.0381
8336.6,0.03778
8350.0,0.03755
8363.5,0.03736
8377.0,0.03713
8390.5,0.03687
8404.2,0.03659
8417.8,0.03636
8431.5,0.03616
8445.2,0.03594
8459.0,0.03568
8472.8,0.0355
8486.7,0.03533
8500.6,0.03515
8514.5,0.03495
8528.5,0.03484
8542.6,0.03475
8556.7,0.03464
8570.8,0.03454
8585.0,0.03453
8599.3,0.03445
8613.5,0.03441
8627.9,0.03439
8642.3,0.03435
8656.7,0.03418
8671.2,0.03384
8685.7,0.03344
8700.3,0.03319
8714.9,0.03299
8729.6,0.0328
8744.3,0.0325
8759.0,0.03233
8773.9,0.03249
8788.7,0.03295
8803.7,0.03351
8818.6,0.03398
8833.7,0.0342
8848.7,0.03416
8863.8,0.03393
8879.0,0.03369
8894.3,0.03344
8909.5,0.03327
8924.9,0.03321
8940.3,0.03325
8955.7,0.03328
8971.2,0.03332
8986.8,0.03335
9002.3,0.03332
9018.0,0.03315
9033.7,0.03303
9049.5,0.03287
9065.3,0.03273
9081.2,0.03261
9097.1,0.03251
9113.1,0.03243
9129.1,0.0325
9145.2,0.03262
9161.4,0.03282
9177.6,0.03297
9193.9,0.03319
9210.2,0.03355
9226.6,0.03396
9243.0,0.0344
9259.5,0.03492
9276.1,0.03546
9292.7,0.03609
9309.4,0.03666
9326.2,0.03721
9343.0,0.0377
9359.8,0.03826
9376.8,0.03884
9393.7,0.03937
9410.8,0.0398
9427.9,0.04023
9445.1,0.04053
9462.3,0.04081
9479.6,0.04093
9497.0,0.04104
9514.4,0.04114
9531.9,0.04114
9549.4,0.04107
9567.1,0.04085
9584.7,0.04054
9602.5,0.04023
9620.3,0.03987
9638.2,0.03944
9656.1,0.03903
9674.2,0.03871
9692.2,0.03837
9710.4,0.03808
9728.6,0.03783
9746.9,0.03762
9765.2,0.0375
9783.7,0.03739
9802.2,0.03725
9820.7,0.03721
9839.4,0.0372
9858.1,0.03726
9876.8,0.03735
9895.7,0.03736
9914.6,0.0374
9933.6,0.0375
9952.7,0.03758
9971.8,0.03771
9991.0,0.03771
10010.3,0.03777
10029.7,0.0379
10049.1,0.03801
10068.6,0.03826
10088.2,0.03852
10107.9,0.03866
10127.6,0.03878
10147.4,0.0388
10167.3,0.03874
10187.3,0.03863
10207.4,0.03862
10227.5,0.03866
10247.7,0.03871
10268.0,0.03881
10288.4,0.03902
10308.8,0.03934
10329.4,0.03975
10350.0,0.04017
10370.7,0.04051
10391.5,0.04082
10412.3,0.04126
10433.3,0.04191
10454.3,0.04278
10475.5,0.04389
10496.7,0.04519
10517.9,0.04642
10539.3,0.04737
10560.8,0.04799
10582.3,0.04843
10604.0,0.04864
10625.7,0.04876
10647.5,0.04884
10669.4,0.04873
10691.4,0.04856
10713.5,0.04835
10735.7,0.04816
10758.0,0.04803
10780.3,0.04782
10802.8,0.04758
10825.4,0.0473
10848.0,0.04694
10870.8,0.04643
10893.6,0.04602
10916.5,0.04567
10939.5,0.04525
10962.7,0.04498
10985.9,0.04487
11009.2,0.04468
11032.7,0.04436
11056.2,0.04421
11079.8,0.04418
11103.5,0.04408
11127.3,0.044
11151.3,0.04394
11175.3,0.04394
11199.5,0.04413
11223.7,0.04442
11248.0,0.04459
11272.5,0.0447
11297.1,0.0448
11321.7,0.0449
11346.5,0.0449
11371.4,0.04474
11396.4,0.04439
11421.5,0.04396
11446.7,0.04326
11472.0,0.0422
11497.5,0.04088
11523.0,0.03949
11548.7,0.03833
11574.4,0.03745
11600.3,0.03669
11626.3,0.03597
11652.5,0.0355
11678.7,0.0352
11705.1,0.03482
11731.6,0.03438
11758.2,0.03398
11784.9,0.03352
11811.7,0.033
11838.7,0.0325
11865.8,0.03234
11893.0,0.03274
11920.3,0.03345
11947.8,0.03444
11975.4,0.03537
12003.1,0.03626
12031.0,0.03735
12059.0,0.03823
12087.1,0.03911
12115.3,0.04018
12143.7,0.04103
12172.2,0.04184
12200.8,0.0426
12229.6,0.04329
12258.5,0.04397
12287.6,0.04476
12316.8,0.04542
12346.1,0.04601
12375.5,0.04656
12405.2,0.04702
12434.9,0.04734
12464.8,0.04772
12494.8,0.04809
12525.0,0.04844
12555.3,0.04884
12585.8,0.04905
12616.4,0.04908
12647.2,0.04911
12678.1,0.04928
12709.2,0.04956
12740.4,0.04976
12771.8,0.0498
12803.3,0.04992
12835.0,0.05004
12866.9,0.05001
12898.9,0.04991
12931.1,0.04978
12963.4,0.04979
12995.9,0.04956
13028.5,0.04924
13061.3,0.04891
13094.3,0.04849
13127.5,0.04799
13160.8,0.04736
13194.3,0.04663
13228.0,0.04584
13261.8,0.045
13295.8,0.04419
13330.0,0.04348
13364.3,0.0427
13398.9,0.04178
13433.6,0.04086
13468.5,0.03975
13503.5,0.0386
13538.8,0.03764
13574.2,0.03664
13609.9,0.03589
13645.7,0.03569
13681.7,0.03536
13717.9,0.03497
13754.3,0.0345
13790.8,0.03426
13827.6,0.03433
13864.6,0.03456
13901.8,0.03485
13939.1,0.03507
13976.7,0.03496
14014.5,0.03487
14052.5,0.03476
14090.7,0.03459
14129.0,0.03425
14167.7,0.0336
14206.5,0.03286
14245.5,0.03236
14284.7,0.03178
14324.2,0.03093
14363.9,0.03008
14403.8,0.02945
14443.9,0.02864
14484.2,0.02787
14524.8,0.0272
14565.6,0.02659
14606.7,0.026
14647.9,0.02537
14689.4,0.02489
14731.2,0.02452
14773.1,0.02429
14815.3,0.02407
14857.8,0.02385
14900.5,0.02389
14943.4,0.02367
14986.6,0.0233
15030.0,0.02317
15073.7,0.02283
15117.7,0.02225
15161.9,0.02211
15206.3,0.02175
15251.1,0.02129
15296.1,0.02109
15341.3,0.02118
15386.8,0.02131
15432.6,0.02159
15478.7,0.02197
15525.0,0.02235
15571.7,0.02265
15618.6,0.02321
15665.8,0.02393
15713.2,0.0245
15761.0,0.02479
15809.0,0.02515
15857.4,0.02574
15906.0,0.02635
15955.0,0.02634
16004.2,0.02655
16053.8,0.02686
16103.6,0.02684
16153.8,0.02692
16204.3,0.02707
16255.1,0.02731
16306.2,0.02749
16357.6,0.02734
16409.4,0.02739
16461.5,0.02781
16513.9,0.02813
16566.7,0.02813
16619.8,0.02832
16673.2,0.02815
16727.0,0.02815
16781.1,0.02839
16835.6,0.02887
16890.5,0.02919
16945.7,0.02931
17001.2,0.02935
17057.2,0.0297
17113.4,0.02998
17170.1,0.0302
17227.2,0.03038
17284.6,0.03065
17342.4,0.03084
17400.6,0.03123
17459.2,0.03197
17518.2,0.03255
17577.5,0.03298
17637.3,0.03374
17697.5,0.03449
17758.1,0.03491
17819.2,0.03539
17880.6,0.03615
17942.5,0.03669
18004.8,0.0375
18067.5,0.03828
18130.7,0.03928
18194.3,0.04034
18258.4,0.04099
18322.9,0.04139
18387.9,0.04189
18453.3,0.04204
18519.2,0.04211
18585.6,0.04229
18652.4,0.04262
18719.8,0.04321
18787.6,0.04432
18855.9,0.04531
18924.8,0.04618
18994.1,0.04709
19063.9,0.04753
19134.3,0.04731
19205.1,0.04704
19276.5,0.04665
19348.4,0.0457
19420.9,0.04503
19493.9,0.04477
19567.5,0.04423
19641.6,0.04412
19716.3,0.04407
19791.5,0.04383
19867.4,0.04346
19943.8,0.04268
20020.8,0.04176
20098.4,0.04114
20176.6,0.03996
20255.4,0.03896
20334.8,0.03768
20414.9,0.03648
20495.6,0.03494
20576.9,0.03384
20658.9,0.03296
20741.5,0.03255
20824.8,0.03257
20908.8,0.03266
20993.4,0.03256
21078.8,0.03302
21164.8,0.03291
21251.6,0.03304
21339.0,0.03338
21427.2,0.0334
21516.1,0.03291
21605.8,0.033
21696.2,0.03309
21787.3,0.0329
21879.3,0.03238
21972.0,0.03231
22065.5,0.03365
22159.8,0.03499
22254.9,0.03565
22350.8,0.03643
22447.5,0.03744
22545.1,0.03877
22643.6,0.04117
22742.9,0.04364
22843.1,0.04372
22944.2,0.04369
23046.2,0.0453
23149.0,0.04738
23252.8,0.04867
23357.6,0.05191
23463.3,0.0533
23569.9,0.05417
23677.6,0.05675
23786.2,0.05953
23895.8,0.05957
24006.4,0.05871
24118.1,0.05932
24230.8,0.05991
24344.5,0.05922
24459.4,0.05845
24575.3,0.05748
24692.3,0.05794
24810.4,0.05689
24929.7,0.05442
25050.2,0.05434
