Database of Origin,University of Winnipeg Spectrophotometer Facility
Sample Description,Carbonaceous chondrites - RELAB archive 8. Lab-heated carbonaceous chondrites
Other Information,Heated Ivuna 500C ncmp18C
Date Added,2018-07-23 23:45:04.465013

Data ID,RLA_MET_40_4        
Sample ID,Ivuna
Mineral Name,Ivuna
Viewing Geometry,30/0/ 30
Resolution,5/ 0.6-129 nm
Material Class,CI1

Wavelength
305.0,0.014777
310.0,0.015014
315.0,0.014701
320.0,0.014824
325.0,0.014895
330.0,0.014701
335.0,0.014827
340.0,0.01395
345.0,0.014391
350.0,0.014388
355.0,0.014311
360.0,0.014354
365.0,0.014375
370.0,0.014178
375.0,0.014295
380.0,0.014447
385.0,0.014478
390.0,0.014458
395.0,0.014513
400.0,0.01449
405.0,0.014496
410.0,0.014651
415.0,0.014731
420.0,0.014837
425.0,0.014996
430.0,0.015034
435.0,0.015063
440.0,0.015074
445.0,0.015109
450.0,0.01513
455.0,0.01518
460.0,0.015174
465.0,0.015258
470.0,0.015343
475.0,0.015314
480.0,0.015397
485.0,0.015419
490.0,0.015547
495.0,0.015542
500.0,0.015587
505.0,0.01566
510.0,0.015736
515.0,0.015815
520.0,0.015854
525.0,0.015982
530.0,0.016105
535.0,0.016136
540.0,0.016086
545.0,0.01614
550.0,0.016179
555.0,0.016219
560.0,0.016236
565.0,0.016264
570.0,0.016301
575.0,0.016311
580.0,0.01636
585.0,0.01636
590.0,0.01637
595.0,0.016428
600.0,0.016497
605.0,0.016506
610.0,0.016606
615.0,0.016693
620.0,0.016737
625.0,0.016746
630.0,0.016748
635.0,0.016808
640.0,0.016838
645.0,0.016897
650.0,0.016868
655.0,0.01693
660.0,0.016908
665.0,0.01687
670.0,0.016859
675.0,0.01688
680.0,0.016974
685.0,0.016879
690.0,0.016923
695.0,0.016972
700.0,0.0169
705.0,0.016881
710.0,0.016958
715.0,0.016826
720.0,0.016875
725.0,0.016848
730.0,0.016969
735.0,0.016874
740.0,0.016953
745.0,0.016897
750.0,0.016848
755.0,0.016875
760.0,0.01682
765.0,0.016831
770.0,0.016851
775.0,0.016871
780.0,0.016887
785.0,0.016892
790.0,0.016893
795.0,0.016869
800.0,0.016924
805.0,0.016889
810.0,0.016799
815.0,0.016708
820.0,0.016745
825.0,0.016723
830.0,0.016721
835.0,0.016714
840.0,0.01684
845.0,0.016735
850.0,0.016754
855.0,0.016666
860.0,0.01678
865.0,0.01659
870.0,0.016747
875.0,0.016711
880.0,0.01672
885.0,0.016729
890.0,0.016725
895.0,0.01668
900.0,0.016683
905.0,0.016821
910.0,0.016786
915.0,0.016734
920.0,0.016794
925.0,0.016767
930.0,0.016768
935.0,0.016736
940.0,0.016778
945.0,0.016813
950.0,0.016801
955.0,0.016744
960.0,0.016748
965.0,0.01682
970.0,0.016719
975.0,0.016731
980.0,0.016688
985.0,0.01672
990.0,0.016856
995.0,0.016774
1000.0,0.016768
1005.0,0.016785
1010.0,0.016782
1015.0,0.016798
1020.0,0.016779
1025.0,0.016883
1030.0,0.016747
1035.0,0.016789
1040.0,0.016811
1045.0,0.016757
1050.0,0.016802
1055.0,0.016827
1060.0,0.016787
1065.0,0.016807
1070.0,0.01676
1075.0,0.016671
1080.0,0.016736
1085.0,0.016728
1090.0,0.016673
1095.0,0.016694
1100.0,0.016718
1105.0,0.016789
1110.0,0.016791
1115.0,0.016776
1120.0,0.016763
1125.0,0.016762
1130.0,0.016731
1135.0,0.016842
1140.0,0.016779
1145.0,0.016772
1150.0,0.016855
1155.0,0.016858
1160.0,0.016859
1165.0,0.016976
1170.0,0.016921
1175.0,0.016966
1180.0,0.016969
1185.0,0.016929
1190.0,0.016955
1195.0,0.016857
1200.0,0.017087
1205.0,0.017113
1210.0,0.01714
1215.0,0.017199
1220.0,0.017211
1225.0,0.017182
1230.0,0.017099
1235.0,0.017127
1240.0,0.017133
1245.0,0.017064
1250.0,0.017135
1255.0,0.017082
1260.0,0.017096
1265.0,0.017174
1270.0,0.017059
1275.0,0.017109
1280.0,0.017122
1285.0,0.017076
1290.0,0.017193
1295.0,0.0172
1300.0,0.017171
1305.0,0.017232
1310.0,0.01724
1315.0,0.017256
1320.0,0.01729
1325.0,0.017231
1330.0,0.017281
1335.0,0.017286
1340.0,0.017316
1345.0,0.017261
1350.0,0.017354
1355.0,0.017352
1360.0,0.017474
1365.0,0.017408
1370.0,0.017443
1375.0,0.017366
1380.0,0.017508
1385.0,0.017498
1390.0,0.017534
1395.0,0.017543
1400.0,0.017632
1405.0,0.017673
1410.0,0.017546
1415.0,0.017611
1420.0,0.017703
1425.0,0.017658
1430.0,0.017693
1435.0,0.01765
1440.0,0.017716
1445.0,0.017835
1450.0,0.01781
1455.0,0.01787
1460.0,0.017876
1465.0,0.017879
1470.0,0.017973
1475.0,0.01797
1480.0,0.017909
1485.0,0.017947
1490.0,0.017956
1495.0,0.018074
1500.0,0.018007
1505.0,0.017982
1510.0,0.017988
1515.0,0.018041
1520.0,0.018014
1525.0,0.018054
1530.0,0.018078
1535.0,0.018143
1540.0,0.018146
1545.0,0.018191
1550.0,0.018258
1555.0,0.018326
1560.0,0.018273
1565.0,0.018298
1570.0,0.018244
1575.0,0.018337
1580.0,0.018443
1585.0,0.018533
1590.0,0.018416
1595.0,0.018427
1600.0,0.018404
1605.0,0.018477
1610.0,0.018543
1615.0,0.018636
1620.0,0.018549
1625.0,0.018559
1630.0,0.018624
1635.0,0.018614
1640.0,0.018812
1645.0,0.018756
1650.0,0.018755
1655.0,0.018813
1660.0,0.018915
1665.0,0.018827
1670.0,0.018939
1675.0,0.019031
1680.0,0.018995
1685.0,0.018911
1690.0,0.018932
1695.0,0.018988
1700.0,0.019067
1705.0,0.019052
1710.0,0.019117
1715.0,0.019115
1720.0,0.019265
1725.0,0.019155
1730.0,0.019253
1735.0,0.019321
1740.0,0.019333
1745.0,0.019292
1750.0,0.019342
1755.0,0.019306
1760.0,0.019374
1765.0,0.019441
1770.0,0.019375
1775.0,0.019385
1780.0,0.019481
1785.0,0.019516
1790.0,0.019528
1795.0,0.019557
1800.0,0.019576
1805.0,0.019606
1810.0,0.019621
1815.0,0.019649
1820.0,0.019596
1825.0,0.019706
1830.0,0.019678
1835.0,0.019809
1840.0,0.019859
1845.0,0.019789
1850.0,0.019897
1855.0,0.019903
1860.0,0.019914
1865.0,0.019905
1870.0,0.019885
1875.0,0.019917
1880.0,0.019939
1885.0,0.019981
1890.0,0.019897
1895.0,0.01998
1900.0,0.020047
1905.0,0.020004
1910.0,0.020085
1915.0,0.020152
1920.0,0.020139
1925.0,0.020187
1930.0,0.020134
1935.0,0.02012
1940.0,0.020347
1945.0,0.020299
1950.0,0.020253
1955.0,0.020334
1960.0,0.02028
1965.0,0.020315
1970.0,0.020386
1975.0,0.020437
1980.0,0.020469
1985.0,0.020357
1990.0,0.020539
1995.0,0.020515
2000.0,0.020648
2005.0,0.020659
2010.0,0.020587
2015.0,0.02062
2020.0,0.020741
2025.0,0.020799
2030.0,0.020727
2035.0,0.020803
2040.0,0.020853
2045.0,0.02092
2050.0,0.021026
2055.0,0.021047
2060.0,0.021025
2065.0,0.021103
2070.0,0.021117
2075.0,0.021091
2080.0,0.021337
2085.0,0.021379
2090.0,0.02139
2095.0,0.021368
2100.0,0.02143
2105.0,0.021332
2110.0,0.021331
2115.0,0.021326
2120.0,0.02138
2125.0,0.021448
2130.0,0.021382
2135.0,0.021369
2140.0,0.021581
2145.0,0.021535
2150.0,0.021459
2155.0,0.021605
2160.0,0.021552
2165.0,0.02159
2170.0,0.021615
2175.0,0.021759
2180.0,0.021606
2185.0,0.021674
2190.0,0.021763
2195.0,0.021763
2200.0,0.02184
2205.0,0.021852
2210.0,0.021764
2215.0,0.021871
2220.0,0.021839
2225.0,0.02186
2230.0,0.02193
2235.0,0.021754
2240.0,0.021987
2245.0,0.021882
2250.0,0.022014
2255.0,0.022046
2260.0,0.022047
2265.0,0.022097
2270.0,0.022151
2275.0,0.022073
2280.0,0.022098
2285.0,0.021986
2290.0,0.02203
2295.0,0.022039
2300.0,0.022129
2305.0,0.022101
2310.0,0.022142
2315.0,0.022018
2320.0,0.022096
2325.0,0.022099
2330.0,0.022231
2335.0,0.022245
2340.0,0.022064
2345.0,0.022142
2350.0,0.022071
2355.0,0.022103
2360.0,0.022127
2365.0,0.022045
2370.0,0.022014
2375.0,0.022085
2380.0,0.022101
2385.0,0.022109
2390.0,0.022086
2395.0,0.022101
2400.0,0.022103
2405.0,0.022138
2410.0,0.02211
2415.0,0.022141
2420.0,0.022176
2425.0,0.022139
2430.0,0.022149
2435.0,0.022142
2440.0,0.02206
2445.0,0.022072
2450.0,0.022111
2455.0,0.022138
2460.0,0.022048
2465.0,0.022085
2470.0,0.02209
2475.0,0.022087
2480.0,0.022163
2485.0,0.022167
2490.0,0.022222
2495.0,0.022154
2500.0,0.022232
2502.0,0.022259
2503.2,0.022175
2504.41,0.02223
2505.62,0.02233
2506.83,0.022351
2508.05,0.022251
2509.26,0.022117
2510.48,0.022046
2511.69,0.02217
2512.91,0.022188
2514.13,0.022181
2515.35,0.022181
2516.57,0.022198
2517.79,0.022183
2519.02,0.022246
2520.24,0.02222
2521.47,0.022168
2522.69,0.022193
2523.92,0.022302
2525.15,0.022358
2526.38,0.02235
2527.61,0.022363
2528.85,0.022286
2530.08,0.022176
2531.32,0.022197
2532.55,0.022304
2533.79,0.022409
2535.03,0.022484
2536.27,0.022427
2537.51,0.022461
2538.75,0.022514
2540.0,0.02234
2541.24,0.022184
2542.49,0.022229
2543.74,0.022408
2544.99,0.022538
2546.24,0.022389
2547.49,0.022331
2548.74,0.022333
2549.99,0.022307
2551.25,0.022402
2552.5,0.022443
2553.76,0.02249
2555.02,0.022495
2556.28,0.02241
2557.54,0.022429
2558.8,0.022494
2560.07,0.022531
2561.33,0.022587
2562.6,0.022499
2563.86,0.022551
2565.13,0.022618
2566.4,0.022637
2567.67,0.02253
2568.95,0.022527
2570.22,0.022664
2571.5,0.022699
2572.77,0.022598
2574.05,0.022469
2575.33,0.022424
2576.61,0.022529
2577.89,0.022609
2579.17,0.022711
2580.46,0.022693
2581.74,0.022662
2583.03,0.022659
2584.31,0.022636
2585.6,0.022539
2586.89,0.022525
2588.19,0.022574
2589.48,0.022725
2590.77,0.022801
2592.07,0.022768
2593.36,0.022859
2594.66,0.022806
2595.96,0.022632
2597.26,0.02258
2598.56,0.022619
2599.87,0.02273
2601.17,0.022774
2602.48,0.02272
2603.78,0.022742
2605.09,0.022738
2606.4,0.022727
2607.71,0.022802
2609.03,0.022807
2610.34,0.02269
2611.66,0.022773
2612.97,0.022827
2614.29,0.022774
2615.61,0.022807
2616.93,0.022963
2618.25,0.022893
2619.57,0.022897
2620.9,0.022949
2622.22,0.022914
2623.55,0.022918
2624.88,0.022998
2626.21,0.023013
2627.54,0.022809
2628.87,0.022679
2630.21,0.022785
2631.54,0.02279
2632.88,0.022818
2634.21,0.022954
2635.55,0.023026
2636.89,0.022998
2638.24,0.02285
2639.58,0.022817
2640.92,0.022928
2642.27,0.022927
2643.62,0.022926
2644.97,0.02296
2646.32,0.02291
2647.67,0.022962
2649.02,0.022986
2650.38,0.022967
2651.73,0.023019
2653.09,0.02298
2654.45,0.022915
2655.81,0.022936
2657.17,0.023045
2658.53,0.023064
2659.89,0.023134
2661.26,0.02317
2662.63,0.023119
2664.0,0.023073
2665.36,0.022894
2666.74,0.022877
2668.11,0.02297
2669.48,0.022997
2670.86,0.023067
2672.23,0.023077
2673.61,0.022826
2674.99,0.02276
2676.37,0.02291
2677.76,0.022856
2679.14,0.022711
2680.52,0.022813
2681.91,0.022841
2683.3,0.022815
2684.69,0.0227
2686.08,0.022574
2687.47,0.022502
2688.87,0.022409
2690.26,0.02235
2691.66,0.022362
2693.06,0.022234
2694.46,0.02203
2695.86,0.021909
2697.26,0.021803
2698.66,0.021738
2700.07,0.021543
2701.48,0.021398
2702.89,0.021473
2704.3,0.021487
2705.71,0.021305
2707.12,0.02115
2708.53,0.021027
2709.95,0.020985
2711.37,0.020933
2712.79,0.020899
2714.21,0.020965
2715.63,0.020906
2717.05,0.020701
2718.48,0.020391
2719.9,0.020248
2721.33,0.020362
2722.76,0.020357
2724.19,0.020421
2725.62,0.020593
2727.06,0.020765
2728.49,0.020977
2729.93,0.021096
2731.37,0.02106
2732.81,0.021072
2734.25,0.021181
2735.69,0.021235
2737.14,0.021334
2738.58,0.021455
2740.03,0.021473
2741.48,0.02155
2742.93,0.021592
2744.38,0.02163
2745.83,0.021531
2747.29,0.02153
2748.75,0.021621
2750.2,0.021574
2751.66,0.021513
2753.13,0.02148
2754.59,0.021524
2756.05,0.021632
2757.52,0.021697
2758.99,0.021697
2760.46,0.021664
2761.93,0.021593
2763.4,0.021535
2764.87,0.021526
2766.35,0.021548
2767.82,0.021565
2769.3,0.021525
2770.78,0.021562
2772.26,0.021616
2773.75,0.021579
2775.23,0.021604
2776.72,0.021592
2778.21,0.021614
2779.7,0.021678
2781.19,0.021707
2782.68,0.021683
2784.18,0.02161
2785.67,0.021542
2787.17,0.021553
2788.67,0.021574
2790.17,0.021598
2791.67,0.021605
2793.18,0.021673
2794.68,0.021703
2796.19,0.02164
2797.7,0.021599
2799.21,0.021655
2800.72,0.021689
2802.24,0.021672
2803.75,0.021679
2805.27,0.021706
2806.79,0.021745
2808.31,0.021686
2809.83,0.021646
2811.35,0.021765
2812.88,0.021722
2814.41,0.021673
2815.93,0.021678
2817.46,0.021636
2819.0,0.021692
2820.53,0.021801
2822.07,0.021766
2823.6,0.021724
2825.14,0.021723
2826.68,0.02179
2828.22,0.021791
2829.77,0.021843
2831.31,0.021875
2832.86,0.021891
2834.41,0.021864
2835.96,0.021889
2837.51,0.02188
2839.07,0.021829
2840.62,0.021832
2842.18,0.021833
2843.74,0.021839
2845.3,0.021839
2846.86,0.021954
2848.43,0.021969
2849.99,0.021859
2851.56,0.021758
2853.13,0.021733
2854.7,0.021905
2856.27,0.022013
2857.85,0.022019
2859.42,0.022016
2861.0,0.022003
2862.58,0.021949
2864.16,0.021984
2865.75,0.021987
2867.33,0.02197
2868.92,0.022081
2870.51,0.022128
2872.1,0.022099
2873.69,0.022079
2875.28,0.022065
2876.88,0.022002
2878.48,0.022025
2880.07,0.022112
2881.68,0.022112
2883.28,0.022072
2884.88,0.022118
2886.49,0.0221
2888.1,0.022105
2889.71,0.022168
2891.32,0.02224
2892.93,0.022315
2894.55,0.022278
2896.16,0.022231
2897.78,0.022157
2899.4,0.022145
2901.03,0.022174
2902.65,0.022215
2904.28,0.022286
2905.91,0.022254
2907.54,0.022236
2909.17,0.022245
2910.8,0.022296
2912.44,0.022294
2914.07,0.022269
2915.71,0.022353
2917.35,0.022424
2918.99,0.022409
2920.64,0.022333
2922.29,0.02234
2923.93,0.022363
2925.58,0.022321
2927.24,0.022371
2928.89,0.022425
2930.55,0.022458
2932.2,0.02251
2933.86,0.022511
2935.52,0.022491
2937.19,0.0225
2938.85,0.022551
2940.52,0.022563
2942.19,0.022566
2943.86,0.02257
2945.53,0.022565
2947.21,0.022486
2948.88,0.02241
2950.56,0.022518
2952.24,0.022577
2953.92,0.022641
2955.61,0.022694
2957.29,0.022717
2958.98,0.022694
2960.67,0.022679
2962.36,0.022684
2964.06,0.022683
2965.75,0.022621
2967.45,0.022572
2969.15,0.022592
2970.85,0.022603
2972.55,0.022595
2974.26,0.022643
2975.97,0.022685
2977.68,0.02273
2979.39,0.022711
2981.1,0.022769
2982.82,0.022768
2984.53,0.022649
2986.25,0.022672
2987.97,0.022732
2989.7,0.0228
2991.42,0.022835
2993.15,0.022794
2994.88,0.022761
2996.61,0.022815
2998.34,0.022794
3000.08,0.022782
3001.82,0.022885
3003.55,0.022905
3005.3,0.02281
3007.04,0.022769
3008.78,0.022812
3010.53,0.022836
3012.28,0.022828
3014.03,0.022959
3015.79,0.022976
3017.54,0.022901
3019.3,0.022899
3021.06,0.022938
3022.82,0.022952
3024.58,0.022942
3026.35,0.022914
3028.12,0.022906
3029.89,0.022997
3031.66,0.023025
3033.43,0.023
3035.21,0.02297
3036.99,0.022947
3038.77,0.022999
3040.55,0.023045
3042.33,0.023034
3044.12,0.023094
3045.91,0.02311
3047.7,0.023107
3049.49,0.0231
3051.29,0.023122
3053.08,0.023167
3054.88,0.023187
3056.68,0.023194
3058.49,0.023237
3060.29,0.023188
3062.1,0.023183
3063.91,0.023302
3065.72,0.023316
3067.54,0.023237
3069.35,0.02327
3071.17,0.023318
3072.99,0.023295
3074.81,0.023234
3076.64,0.023225
3078.47,0.023324
3080.29,0.023421
3082.13,0.023419
3083.96,0.023399
3085.79,0.023346
3087.63,0.023356
3089.47,0.023421
3091.31,0.023412
3093.16,0.023431
3095.01,0.023436
3096.85,0.023413
3098.71,0.023436
3100.56,0.023493
3102.41,0.0236
3104.27,0.0236
3106.13,0.023587
3107.99,0.023643
3109.86,0.023588
3111.73,0.023558
3113.59,0.023615
3115.47,0.023685
3117.34,0.023655
3119.21,0.023564
3121.09,0.023486
3122.97,0.023536
3124.86,0.02362
3126.74,0.023611
3128.63,0.0236
3130.52,0.023663
3132.41,0.023758
3134.3,0.023777
3136.2,0.023775
3138.1,0.02383
3140.0,0.023874
3141.9,0.023877
3143.81,0.02386
3145.71,0.02385
3147.62,0.023887
3149.54,0.023875
3151.45,0.023845
3153.37,0.023877
3155.29,0.023905
3157.21,0.023957
3159.13,0.023992
3161.06,0.023943
3162.99,0.023965
3164.92,0.024021
3166.85,0.024042
3168.79,0.024026
3170.72,0.024035
3172.67,0.024006
3174.61,0.02402
3176.55,0.024108
3178.5,0.024122
3180.45,0.024069
3182.4,0.024103
3184.36,0.024215
3186.32,0.02426
3188.27,0.024189
3190.24,0.024207
3192.2,0.024247
3194.17,0.02423
3196.14,0.024261
3198.11,0.024319
3200.08,0.024336
3202.06,0.024296
3204.04,0.024285
3206.02,0.024349
3208.0,0.024414
3209.99,0.024386
3211.98,0.024298
3213.97,0.024363
3215.96,0.02446
3217.96,0.024475
3219.96,0.024495
3221.96,0.02446
3223.96,0.024415
3225.97,0.024449
3227.98,0.02447
3229.99,0.024488
3232.0,0.024483
3234.02,0.024493
3236.04,0.024522
3238.06,0.02453
3240.08,0.024571
3242.11,0.024584
3244.14,0.024576
3246.17,0.024592
3248.2,0.024648
3250.24,0.024699
3252.28,0.0247
3254.32,0.024691
3256.37,0.024677
3258.41,0.024677
3260.46,0.024718
3262.51,0.024733
3264.57,0.024692
3266.63,0.02468
3268.69,0.024726
3270.75,0.024762
3272.81,0.024781
3274.88,0.024795
3276.95,0.024819
3279.02,0.024801
3281.1,0.024819
3283.18,0.024867
3285.26,0.024865
3287.34,0.024882
3289.43,0.024951
3291.51,0.024953
3293.61,0.024949
3295.7,0.024957
3297.8,0.024949
3299.9,0.0249
3302.0,0.024908
3304.1,0.025007
3306.21,0.025046
3308.32,0.025006
3310.43,0.02498
3312.55,0.024994
3314.66,0.025028
3316.79,0.025068
3318.91,0.025114
3321.03,0.025082
3323.16,0.025081
3325.29,0.02511
3327.43,0.02515
3329.57,0.025167
3331.71,0.025183
3333.85,0.025187
3335.99,0.02516
3338.14,0.025202
3340.29,0.025244
3342.45,0.025139
3344.6,0.025113
3346.76,0.025224
3348.92,0.02528
3351.09,0.025288
3353.26,0.025275
3355.43,0.025305
3357.6,0.025345
3359.78,0.025377
3361.96,0.025384
3364.14,0.025338
3366.32,0.025316
3368.51,0.025321
3370.7,0.025325
3372.89,0.025325
3375.09,0.025331
3377.29,0.025355
3379.49,0.025357
3381.69,0.025327
3383.9,0.02534
3386.11,0.025385
3388.32,0.025411
3390.54,0.025414
3392.76,0.025419
3394.98,0.025421
3397.21,0.025441
3399.43,0.025438
3401.66,0.025445
3403.9,0.025406
3406.13,0.025352
3408.37,0.025364
3410.61,0.025412
3412.86,0.025419
3415.11,0.025386
3417.36,0.025401
3419.61,0.025441
3421.87,0.025437
3424.13,0.025483
3426.39,0.025519
3428.66,0.025525
3430.93,0.025554
3433.2,0.025647
3435.48,0.025625
3437.76,0.025571
3440.04,0.025623
3442.32,0.025717
3444.61,0.025745
3446.9,0.02573
3449.19,0.025751
3451.49,0.02578
3453.79,0.025784
3456.09,0.025788
3458.4,0.025817
3460.7,0.025844
3463.02,0.025837
3465.33,0.025832
3467.65,0.025802
3469.97,0.025837
3472.29,0.025897
3474.62,0.025882
3476.95,0.025854
3479.29,0.02591
3481.62,0.025975
3483.96,0.025991
3486.3,0.025972
3488.65,0.025968
3491.0,0.025991
3493.35,0.025996
3495.71,0.025918
3498.07,0.025936
3500.43,0.025982
3502.79,0.025983
3505.16,0.02598
3507.53,0.025976
3509.91,0.026041
3512.29,0.026082
3514.67,0.026042
3517.05,0.026042
3519.44,0.026105
3521.83,0.026165
3524.23,0.026214
3526.62,0.026284
3529.02,0.02632
3531.43,0.026301
3533.83,0.026292
3536.24,0.026242
3538.66,0.026238
3541.08,0.026307
3543.5,0.026328
3545.92,0.026328
3548.35,0.026411
3550.78,0.026399
3553.21,0.02636
3555.65,0.026394
3558.09,0.026425
3560.53,0.02643
3562.98,0.026471
3565.43,0.026477
3567.88,0.026475
3570.34,0.026466
3572.8,0.026476
3575.27,0.026523
3577.73,0.026541
3580.2,0.02657
3582.68,0.026586
3585.16,0.026551
3587.64,0.026613
3590.12,0.026655
3592.61,0.02669
3595.1,0.026715
3597.6,0.026688
3600.09,0.026669
3602.6,0.02666
3605.1,0.026682
3607.61,0.026719
3610.12,0.026746
3612.64,0.026747
3615.16,0.026725
3617.68,0.026782
3620.21,0.026811
3622.74,0.026752
3625.27,0.026759
3627.81,0.026843
3630.35,0.026857
3632.89,0.026827
3635.44,0.026879
3637.99,0.026905
3640.54,0.026882
3643.1,0.026909
3645.66,0.02689
3648.23,0.026867
3650.8,0.02688
3653.37,0.026888
3655.95,0.026893
3658.53,0.026894
3661.11,0.026924
3663.7,0.026983
3666.29,0.027025
3668.89,0.027017
3671.48,0.027039
3674.09,0.027088
3676.69,0.027095
3679.3,0.027056
3681.91,0.027066
3684.53,0.027095
3687.15,0.027093
3689.78,0.027114
3692.4,0.027064
3695.04,0.02706
3697.67,0.027105
3700.31,0.027134
3702.95,0.027121
3705.6,0.027098
3708.25,0.027071
3710.91,0.027124
3713.56,0.027181
3716.23,0.027172
3718.89,0.027217
3721.56,0.027179
3724.23,0.027146
3726.91,0.027196
3729.59,0.027237
3732.28,0.027304
3734.97,0.027346
3737.66,0.027329
3740.36,0.027277
3743.06,0.027245
3745.76,0.027259
3748.47,0.02726
3751.18,0.02728
3753.9,0.027323
3756.62,0.027374
3759.34,0.027372
3762.07,0.027301
3764.8,0.027334
3767.54,0.027366
3770.28,0.027358
3773.02,0.027378
3775.77,0.027448
3778.52,0.027476
3781.28,0.027443
3784.04,0.027442
3786.8,0.027438
3789.57,0.027433
3792.34,0.027454
3795.12,0.027501
3797.9,0.027532
3800.69,0.027537
3803.47,0.027526
3806.27,0.027527
3809.06,0.027525
3811.86,0.027575
3814.67,0.027619
3817.48,0.027636
3820.29,0.027644
3823.11,0.027591
3825.93,0.027592
3828.76,0.02761
3831.59,0.027597
3834.42,0.027598
3837.26,0.027653
3840.1,0.027735
3842.95,0.027749
3845.8,0.027715
3848.65,0.027665
3851.51,0.027667
3854.38,0.027718
3857.24,0.027725
3860.12,0.027718
3862.99,0.027718
3865.87,0.027709
3868.76,0.027734
3871.65,0.027743
3874.54,0.027835
3877.44,0.027873
3880.34,0.027858
3883.25,0.027875
3886.16,0.027854
3889.07,0.027825
3891.99,0.027826
3894.92,0.027836
3897.85,0.027856
3900.78,0.027848
3903.72,0.02785
3906.66,0.027895
3909.6,0.027907
3912.55,0.027919
3915.51,0.027896
3918.47,0.027912
3921.43,0.027905
3924.4,0.02794
3927.38,0.027984
3930.35,0.027923
3933.33,0.027939
3936.32,0.027977
3939.31,0.027959
3942.31,0.027945
3945.31,0.027955
3948.31,0.027935
3951.32,0.027938
3954.34,0.027983
3957.35,0.027978
3960.38,0.027948
3963.41,0.027952
3966.44,0.027992
3969.48,0.027996
3972.52,0.028005
3975.56,0.028034
3978.61,0.028069
3981.67,0.028039
3984.73,0.028002
3987.8,0.028046
3990.87,0.028089
3993.94,0.028105
3997.02,0.028086
4000.1,0.028098
4003.19,0.028146
4006.29,0.028127
4009.39,0.028126
4012.49,0.028162
4015.6,0.028131
4018.71,0.028143
4021.83,0.028214
4024.95,0.028245
4028.08,0.028241
4031.21,0.028243
4034.35,0.028259
4037.49,0.028295
4040.64,0.028289
4043.79,0.028228
4046.94,0.028233
4050.11,0.028266
4053.27,0.028259
4056.44,0.028263
4059.62,0.028278
4062.8,0.028289
4065.99,0.028291
4069.18,0.028291
4072.38,0.028322
4075.58,0.028382
4078.78,0.028357
4082.0,0.028327
4085.21,0.028342
4088.43,0.028386
4091.66,0.028399
4094.89,0.028377
4098.13,0.028386
4101.37,0.028406
4104.62,0.028402
4107.87,0.028397
4111.13,0.028429
4114.39,0.028473
4117.66,0.028488
4120.93,0.028523
4124.21,0.028529
4127.5,0.028507
4130.79,0.028534
4134.08,0.028501
4137.38,0.028472
4140.68,0.028479
4143.99,0.028438
4147.31,0.028464
4150.63,0.02852
4153.95,0.028555
4157.29,0.028563
4160.62,0.028569
4163.96,0.02857
4167.31,0.028546
4170.66,0.028542
4174.02,0.02856
4177.39,0.028592
4180.75,0.028608
4184.13,0.028563
4187.51,0.028566
4190.89,0.028626
4194.28,0.028631
4197.68,0.028618
4201.08,0.028632
4204.49,0.028648
4207.9,0.02868
4211.32,0.028698
4214.74,0.028677
4218.17,0.028648
4221.61,0.02867
4225.05,0.028708
4228.5,0.028731
4231.95,0.028706
4235.4,0.028671
4238.87,0.028651
4242.34,0.028653
4245.81,0.028688
4249.29,0.028713
4252.78,0.028737
4256.27,0.028745
4259.77,0.028744
4263.27,0.028766
4266.78,0.028795
4270.29,0.028767
4273.81,0.028738
4277.34,0.028773
4280.87,0.028817
4284.41,0.028817
4287.95,0.028805
4291.5,0.028795
4295.06,0.028737
4298.62,0.028754
4302.19,0.028821
4305.76,0.028849
4309.34,0.028858
4312.92,0.028862
4316.52,0.028861
4320.11,0.028871
4323.72,0.028881
4327.32,0.028883
4330.94,0.028912
4334.56,0.028906
4338.19,0.028901
4341.82,0.028953
4345.46,0.028983
4349.11,0.028956
4352.76,0.02897
4356.42,0.029
4360.08,0.02901
4363.75,0.028992
4367.43,0.02899
4371.11,0.029
4374.8,0.028999
4378.49,0.028993
4382.19,0.02901
4385.9,0.029027
4389.61,0.02904
4393.33,0.029058
4397.06,0.029056
4400.79,0.029058
4404.53,0.029056
4408.28,0.029046
4412.03,0.029073
4415.79,0.029143
4419.55,0.029165
4423.32,0.029166
4427.1,0.029127
4430.88,0.029112
4434.68,0.029126
4438.47,0.029171
4442.28,0.02918
4446.08,0.029135
4449.9,0.029151
4453.72,0.029192
4457.55,0.029199
4461.39,0.029223
4465.23,0.029248
4469.08,0.029222
4472.94,0.029229
4476.8,0.02925
4480.67,0.02926
4484.55,0.029286
4488.43,0.029271
4492.32,0.029256
4496.21,0.029296
4500.12,0.029299
4504.03,0.029286
4507.94,0.029286
4511.87,0.029285
4515.8,0.029297
4519.73,0.029309
4523.68,0.029322
4527.63,0.029339
4531.59,0.029364
4535.55,0.029358
4539.52,0.029337
4543.5,0.029369
4547.49,0.0294
4551.48,0.029475
4555.48,0.029452
4559.49,0.029402
4563.5,0.02939
4567.52,0.029403
4571.55,0.029432
4575.58,0.029447
4579.63,0.029463
4583.67,0.029504
4587.73,0.029493
4591.79,0.029501
4595.86,0.029508
4599.94,0.029459
4604.03,0.029466
4608.12,0.029515
4612.22,0.029537
4616.33,0.029544
4620.44,0.029551
4624.56,0.02954
4628.69,0.029576
4632.83,0.02958
4636.97,0.029554
4641.12,0.029541
4645.28,0.029527
4649.45,0.02955
4653.62,0.029556
4657.8,0.029569
4661.99,0.029591
4666.19,0.029593
4670.39,0.029606
4674.6,0.029604
4678.82,0.029564
4683.05,0.02958
4687.28,0.029621
4691.52,0.029618
4695.77,0.029631
4700.03,0.029645
4704.3,0.029679
4708.57,0.029686
4712.85,0.029715
4717.14,0.029747
4721.43,0.02974
4725.74,0.029739
4730.05,0.029769
4734.37,0.029794
4738.7,0.029812
4743.03,0.029824
4747.38,0.029827
4751.73,0.02983
4756.09,0.029838
4760.45,0.029814
4764.83,0.029796
4769.21,0.029822
4773.6,0.029836
4778.0,0.029861
4782.41,0.029873
4786.83,0.029871
4791.25,0.02987
4795.68,0.029883
4800.13,0.029892
4804.57,0.029897
4809.03,0.02993
4813.5,0.029942
4817.97,0.029927
4822.45,0.029898
4826.94,0.029906
4831.44,0.029942
4835.95,0.029949
4840.46,0.029985
4844.99,0.029994
4849.52,0.029927
4854.06,0.029961
4858.61,0.029998
4863.17,0.029968
4867.73,0.029972
4872.31,0.029983
4876.89,0.030007
4881.48,0.030037
4886.08,0.030044
4890.69,0.029981
4895.31,0.02998
4899.94,0.030035
4904.57,0.030039
4909.22,0.030008
4913.87,0.03
4918.53,0.030024
4923.21,0.030015
4927.88,0.030003
4932.57,0.030005
4937.27,0.030041
4941.98,0.030059
4946.69,0.030067
4951.42,0.030087
4956.15,0.030064
4960.9,0.030045
4965.65,0.030055
4970.41,0.030057
4975.18,0.030077
4979.96,0.0301
4984.75,0.030092
4989.54,0.030095
4994.35,0.0301
4999.17,0.030093
5003.99,0.030111
5008.83,0.030108
5013.67,0.030094
5018.52,0.03012
5023.39,0.030127
5028.26,0.030131
5033.14,0.030136
5038.03,0.030132
5042.93,0.030128
5047.84,0.030152
5052.76,0.030185
5057.69,0.030199
5062.63,0.030193
5067.58,0.030188
5072.54,0.030176
5077.51,0.030166
5082.49,0.030176
5087.47,0.030213
5092.47,0.030202
5097.48,0.030237
5102.5,0.030258
5107.52,0.030243
5112.56,0.030219
5117.61,0.030187
5122.66,0.030203
5127.73,0.03025
5132.81,0.030281
5137.89,0.030286
5142.99,0.030233
5148.1,0.030212
5153.22,0.030268
5158.34,0.030315
5163.48,0.030267
5168.63,0.030187
5173.79,0.030205
5178.96,0.030251
5184.13,0.030281
5189.32,0.030275
5194.52,0.030257
5199.73,0.030275
5204.96,0.030263
5210.19,0.030264
5215.43,0.030268
5220.68,0.030277
5225.94,0.030277
5231.22,0.030249
5236.5,0.030229
5241.79,0.030215
5247.1,0.030214
5252.42,0.03024
5257.74,0.030237
5263.08,0.030224
5268.43,0.030251
5273.79,0.03026
5279.16,0.030251
5284.54,0.030251
5289.93,0.03025
5295.34,0.030256
5300.75,0.030259
5306.18,0.030262
5311.61,0.030262
5317.06,0.03027
5322.52,0.030269
5327.99,0.030294
5333.47,0.030295
5338.96,0.030257
5344.47,0.030233
5349.98,0.030247
5355.51,0.030289
5361.05,0.03032
5366.6,0.03033
5372.16,0.030331
5377.73,0.030322
5383.32,0.030316
5388.91,0.03033
5394.52,0.030347
5400.14,0.030348
5405.77,0.030372
5411.41,0.030362
5417.07,0.030385
5422.74,0.030405
5428.41,0.030381
5434.1,0.030388
5439.81,0.030398
5445.52,0.030413
5451.25,0.03042
5456.98,0.030397
5462.73,0.03038
5468.5,0.030394
5474.27,0.030406
5480.06,0.0304
5485.86,0.030405
5491.67,0.030436
5497.49,0.03042
5503.33,0.030371
5509.18,0.030395
5515.04,0.030425
5520.91,0.030375
5526.8,0.030324
5532.69,0.030323
5538.61,0.030352
5544.53,0.03036
5550.47,0.030322
5556.41,0.03032
5562.38,0.030279
5568.35,0.030248
5574.34,0.030268
5580.34,0.030303
5586.35,0.030293
5592.38,0.030269
5598.42,0.030262
5604.47,0.030267
5610.54,0.030283
5616.61,0.03031
5622.71,0.030319
5628.81,0.030313
5634.93,0.03033
5641.06,0.03035
5647.21,0.030353
5653.36,0.030373
5659.54,0.030391
5665.72,0.030398
5671.92,0.030399
5678.13,0.03041
5684.36,0.030458
5690.6,0.030478
5696.85,0.030453
5703.12,0.030476
5709.4,0.030506
5715.69,0.030497
5722.0,0.030515
5728.33,0.030524
5734.66,0.03051
5741.01,0.030525
5747.38,0.030528
5753.76,0.030526
5760.15,0.030521
5766.56,0.030499
5772.98,0.03045
5779.41,0.030434
5785.86,0.030445
5792.33,0.030443
5798.81,0.030406
5805.3,0.030387
5811.81,0.030369
5818.33,0.030357
5824.87,0.030314
5831.42,0.030282
5837.99,0.030264
5844.57,0.030209
5851.17,0.030159
5857.78,0.03011
5864.41,0.030063
5871.05,0.030013
5877.7,0.029968
5884.38,0.029945
5891.06,0.029884
5897.76,0.029835
5904.48,0.029781
5911.21,0.029765
5917.96,0.029752
5924.73,0.029736
5931.5,0.029647
5938.3,0.029547
5945.11,0.02949
5951.93,0.029461
5958.78,0.029428
5965.63,0.029419
5972.51,0.02937
5979.39,0.029299
5986.3,0.029277
5993.22,0.029207
6000.16,0.029136
6007.11,0.029102
6014.08,0.029059
6021.06,0.028992
6028.06,0.02898
6035.08,0.028981
6042.12,0.028927
6049.17,0.028867
6056.23,0.028825
6063.32,0.028866
6070.42,0.028853
6077.53,0.028768
6084.67,0.028672
6091.82,0.028604
6098.98,0.028585
6106.17,0.028535
6113.37,0.028469
6120.58,0.028473
6127.82,0.028468
6135.07,0.028406
6142.34,0.028397
6149.63,0.028377
6156.93,0.028374
6164.25,0.028369
6171.59,0.028325
6178.95,0.028335
6186.32,0.02839
6193.71,0.028417
6201.12,0.028427
6208.54,0.028453
6215.99,0.028478
6223.45,0.028498
6230.93,0.028522
6238.43,0.028555
6245.95,0.028634
6253.48,0.02868
6261.03,0.028701
6268.6,0.02874
6276.19,0.028757
6283.8,0.028756
6291.43,0.028772
6299.07,0.028771
6306.73,0.028797
6314.42,0.028863
6322.12,0.028909
6329.84,0.028952
6337.57,0.028976
6345.33,0.029003
6353.11,0.029086
6360.9,0.029152
6368.72,0.029169
6376.55,0.029213
6384.4,0.029264
6392.27,0.029321
6400.17,0.02932
6408.08,0.029326
6416.01,0.029351
6423.96,0.029366
6431.93,0.029418
6439.92,0.029414
6447.93,0.029437
6455.96,0.029464
6464.01,0.029434
6472.08,0.029454
6480.17,0.029488
6488.28,0.029503
6496.41,0.029503
6504.56,0.029483
6512.73,0.029458
6520.92,0.029433
6529.14,0.029418
6537.37,0.029434
6545.63,0.029416
6553.9,0.029418
6562.2,0.029412
6570.51,0.029374
6578.85,0.029362
6587.21,0.029347
6595.59,0.029298
6603.99,0.029263
6612.42,0.02928
6620.86,0.029241
6629.33,0.029185
6637.82,0.029159
6646.33,0.029104
6654.86,0.029066
6663.41,0.029062
6671.99,0.02906
6680.59,0.029061
6689.21,0.029047
6697.85,0.029067
6706.51,0.029049
6715.2,0.029017
6723.91,0.028985
6732.64,0.028946
6741.4,0.028921
6750.18,0.028914
6758.98,0.028876
6767.8,0.028806
6776.65,0.028736
6785.52,0.028693
6794.41,0.028665
6803.33,0.028636
6812.27,0.028558
6821.23,0.02849
6830.22,0.028463
6839.23,0.028448
6848.26,0.028384
6857.32,0.028299
6866.4,0.028244
6875.51,0.028149
6884.64,0.028063
6893.8,0.028019
6902.98,0.027993
6912.18,0.027947
6921.41,0.027878
6930.66,0.027799
6939.94,0.027757
6949.24,0.027746
6958.57,0.027735
6967.92,0.02769
6977.3,0.027681
6986.7,0.02766
6996.13,0.027655
7005.59,0.027668
7015.07,0.027673
7024.57,0.027704
7034.1,0.027743
7043.66,0.027746
7053.25,0.027771
7062.85,0.027809
7072.49,0.027857
7082.15,0.027886
7091.84,0.027901
7101.55,0.027927
7111.3,0.027979
7121.06,0.028004
7130.86,0.028007
7140.68,0.028019
7150.53,0.02801
7160.41,0.027991
7170.31,0.028015
7180.24,0.02806
7190.2,0.028071
7200.19,0.028039
7210.2,0.02802
7220.24,0.028033
7230.31,0.028103
7240.41,0.028167
7250.54,0.028198
7260.69,0.028212
7270.88,0.028228
7281.09,0.028229
7291.33,0.028247
7301.6,0.028273
7311.9,0.028288
7322.22,0.028309
7332.58,0.028328
7342.97,0.028348
7353.38,0.028343
7363.83,0.028325
7374.3,0.028353
7384.81,0.028345
7395.34,0.028319
7405.91,0.028299
7416.5,0.028252
7427.13,0.028251
7437.78,0.028204
7448.47,0.028137
7459.19,0.028121
7469.94,0.028134
7480.71,0.028104
7491.52,0.02802
7502.37,0.02796
7513.24,0.027922
7524.14,0.02789
7535.08,0.027865
7546.05,0.02779
7557.05,0.027711
7568.08,0.027632
7579.15,0.027569
7590.24,0.027497
7601.37,0.027398
7612.53,0.027358
7623.73,0.027304
7634.96,0.027242
7646.22,0.02725
7657.51,0.027252
7668.84,0.027166
7680.2,0.027096
7691.59,0.027098
7703.02,0.027059
7714.49,0.026975
7725.98,0.026879
7737.52,0.026802
7749.08,0.026681
7760.68,0.026566
7772.32,0.026461
7783.99,0.02634
7795.69,0.026202
7807.43,0.026086
7819.21,0.025981
7831.02,0.025915
7842.87,0.025832
7854.75,0.025723
7866.67,0.025626
7878.62,0.025547
7890.62,0.025472
7902.64,0.025381
7914.71,0.025337
7926.81,0.025312
7938.95,0.025275
7951.13,0.025228
7963.34,0.025125
7975.59,0.025053
7987.88,0.024998
8000.21,0.024959
8012.57,0.024927
8024.98,0.02488
8037.42,0.024825
8049.9,0.024753
8062.42,0.024686
8074.98,0.024618
8087.57,0.024507
8100.21,0.024388
8112.89,0.024269
8125.6,0.024172
8138.36,0.024086
8151.16,0.023981
8163.99,0.023874
8176.87,0.023803
8189.79,0.023702
8202.75,0.023564
8215.75,0.023443
8228.79,0.023308
8241.87,0.023188
8254.99,0.023077
8268.16,0.022904
8281.37,0.022725
8294.62,0.022583
8307.91,0.022455
8321.24,0.022347
8334.62,0.022226
8348.04,0.022103
8361.51,0.022016
8375.02,0.021932
8388.57,0.021843
8402.16,0.021718
8415.8,0.021564
8429.49,0.021509
8443.22,0.021433
8456.99,0.021279
8470.81,0.021152
8484.67,0.02101
8498.58,0.020871
8512.54,0.020796
8526.54,0.020684
8540.58,0.020574
8554.68,0.020499
8568.82,0.020353
8583.0,0.020248
8597.24,0.020129
8611.52,0.019983
8625.85,0.019875
8640.23,0.019677
8654.65,0.019568
8669.12,0.019513
8683.64,0.019429
8698.21,0.019313
8712.83,0.019128
8727.5,0.018966
8742.22,0.018836
8756.99,0.018657
8771.8,0.018456
8786.67,0.018246
8801.59,0.018056
8816.56,0.017939
8831.58,0.017816
8846.65,0.017712
8861.77,0.017583
8876.94,0.017418
8892.17,0.017329
8907.45,0.017274
8922.78,0.017227
8938.16,0.017229
8953.6,0.017208
8969.09,0.01713
8984.64,0.01712
9000.23,0.017141
9015.89,0.017202
9031.59,0.017239
9047.36,0.017251
9063.17,0.017275
9079.05,0.017339
9094.97,0.017501
9110.96,0.017642
9127.0,0.017714
9143.1,0.01791
9159.25,0.018102
9175.46,0.018351
9191.73,0.018594
9208.06,0.018826
9224.44,0.01901
9240.88,0.019236
9257.38,0.019562
9273.94,0.019925
9290.56,0.020294
9307.24,0.020704
9323.98,0.021094
9340.78,0.02149
9357.64,0.02199
9374.57,0.022555
9391.55,0.023105
9408.59,0.023632
9425.7,0.024188
9442.87,0.02477
9460.1,0.025335
9477.4,0.025908
9494.75,0.026505
9512.17,0.027062
9529.66,0.027529
9547.21,0.027982
9564.83,0.028387
9582.5,0.028765
9600.25,0.029102
9618.06,0.029428
9635.94,0.029737
9653.88,0.030033
9671.89,0.030347
9689.97,0.030598
9708.12,0.030667
9726.33,0.030656
9744.62,0.030676
9762.97,0.030774
9781.39,0.030736
9799.88,0.03068
9818.44,0.030644
9837.07,0.030623
9855.77,0.030505
9874.54,0.030301
9893.39,0.030155
9912.3,0.030052
9931.29,0.029962
9950.36,0.029825
9969.49,0.029664
9988.7,0.029545
10007.98,0.029444
10027.34,0.029328
10046.77,0.029238
10066.28,0.029118
10085.87,0.029004
10105.53,0.028879
10125.26,0.028767
10145.08,0.028659
10164.97,0.02857
10184.94,0.028454
10204.99,0.028363
10225.12,0.028279
10245.33,0.028196
10265.61,0.028153
10285.98,0.028123
10306.43,0.028123
10326.96,0.028143
10347.57,0.02816
10368.27,0.028141
10389.05,0.02812
10409.91,0.028183
10430.86,0.028277
10451.88,0.028342
10473.0,0.028452
10494.2,0.028569
10515.49,0.028667
10536.86,0.028798
10558.32,0.028899
10579.87,0.028957
10601.5,0.029056
10623.23,0.029122
10645.04,0.029134
10666.94,0.029198
10688.94,0.029214
10711.02,0.029219
10733.2,0.02926
10755.47,0.029288
10777.83,0.029268
10800.28,0.029228
10822.83,0.029276
10845.47,0.029248
10868.21,0.029166
10891.04,0.029116
10913.97,0.029145
10936.99,0.029062
10960.12,0.029002
10983.34,0.029008
11006.66,0.028962
11030.07,0.028831
11053.59,0.028729
11077.21,0.028645
11100.93,0.028674
11124.75,0.028685
11148.68,0.028649
11172.71,0.028652
11196.84,0.028594
11221.07,0.02859
11245.41,0.02864
11269.86,0.028707
11294.41,0.028841
11319.07,0.028936
11343.84,0.029108
11368.72,0.029365
11393.7,0.029567
11418.8,0.029743
11444.01,0.030048
11469.33,0.030498
11494.76,0.030916
11520.3,0.031295
11545.96,0.031734
11571.73,0.032072
11597.62,0.032386
11623.62,0.032759
11649.74,0.032901
11675.98,0.032993
11702.34,0.033183
11728.81,0.033282
11755.41,0.033335
11782.13,0.033439
11808.96,0.033474
11835.92,0.033531
11863.01,0.033447
11890.22,0.033301
11917.55,0.033272
11945.01,0.033378
11972.6,0.033579
12000.31,0.033898
12028.16,0.034146
12056.13,0.034424
12084.23,0.034699
12112.46,0.034877
12140.83,0.035044
12169.33,0.035173
12197.96,0.035184
12226.73,0.035176
12255.64,0.035194
12284.68,0.035174
12313.86,0.03513
12343.18,0.035023
12372.64,0.034935
12402.24,0.034887
12431.98,0.034845
12461.86,0.03483
12491.89,0.034798
12522.07,0.03476
12552.38,0.034698
12582.85,0.034598
12613.47,0.034463
12644.23,0.03432
12675.15,0.034307
12706.21,0.034262
12737.43,0.034184
12768.81,0.034174
12800.33,0.034235
12832.02,0.034166
12863.86,0.034046
12895.86,0.033972
12928.02,0.033795
12960.34,0.03366
12992.82,0.033584
13025.46,0.033459
13058.27,0.033301
13091.25,0.033137
13124.39,0.032957
13157.7,0.032748
13191.18,0.03259
13224.83,0.032416
13258.66,0.032248
13292.65,0.032153
13326.83,0.032088
13361.17,0.031999
13395.7,0.031834
13430.4,0.031646
13465.29,0.031506
13500.35,0.031394
13535.6,0.031269
13571.03,0.031173
13606.65,0.031014
13642.46,0.030767
13678.46,0.030554
13714.64,0.030432
13751.02,0.03022
13787.59,0.029921
13824.36,0.0297
13861.32,0.029564
13898.49,0.029461
13935.85,0.029188
13973.41,0.028837
14011.17,0.028492
14049.15,0.028204
14087.32,0.027975
14125.71,0.027775
14164.3,0.027556
14203.11,0.027234
14242.13,0.026978
14281.36,0.026694
14320.81,0.026489
14360.49,0.026206
14400.38,0.025854
14440.49,0.025547
14480.82,0.025381
14521.39,0.025282
14562.18,0.025068
14603.2,0.024863
14644.45,0.024768
14685.93,0.024802
14727.66,0.024965
14769.62,0.025071
14811.81,0.025099
14854.25,0.025223
14896.94,0.025379
14939.87,0.025566
14983.05,0.025893
15026.48,0.026229
15070.16,0.026467
15114.1,0.026701
15158.29,0.026762
15202.74,0.026761
15247.46,0.026822
15292.43,0.026838
15337.68,0.026899
15383.19,0.027056
15428.97,0.027124
15475.03,0.027163
15521.36,0.027092
15567.97,0.027096
15614.87,0.027073
15662.04,0.026988
15709.5,0.026985
15757.25,0.026923
15805.29,0.026792
15853.62,0.026717
15902.26,0.026675
15951.19,0.026731
16000.42,0.026663
16049.95,0.02645
16099.8,0.02645
16149.95,0.026586
16200.42,0.026715
16251.21,0.026894
16302.31,0.027006
16353.74,0.027055
16405.49,0.02712
16457.57,0.027239
16509.98,0.027272
16562.73,0.027163
16615.82,0.027133
16669.24,0.02709
16723.02,0.027054
16777.14,0.027003
16831.61,0.026904
16886.43,0.026879
16941.62,0.02695
16997.16,0.027084
17053.08,0.027134
17109.36,0.027087
17166.01,0.027298
17223.04,0.027357
17280.45,0.027312
17338.24,0.027393
17396.43,0.02733
17455.0,0.027267
17513.97,0.027342
17573.34,0.027369
17633.11,0.027491
17693.29,0.027639
17753.89,0.027655
17814.9,0.027758
17876.33,0.027731
17938.18,0.027731
18000.47,0.027719
18063.19,0.027652
18126.35,0.027508
18189.95,0.027225
18254.0,0.027146
18318.5,0.027231
18383.46,0.027467
18448.88,0.027729
18514.77,0.027943
18581.13,0.028156
18647.97,0.028556
18715.29,0.0292
18783.1,0.029686
18851.4,0.030243
18920.2,0.030911
18989.51,0.031328
19059.32,0.031639
19129.65,0.032018
19200.5,0.032541
19271.88,0.033031
19343.79,0.033595
19416.24,0.033872
19489.23,0.03406
19562.77,0.034785
19636.88,0.035333
19711.54,0.035506
19786.78,0.03572
19862.59,0.036009
19938.98,0.036525
20015.96,0.037155
20093.55,0.037502
20171.73,0.037881
20250.53,0.038295
20329.94,0.038712
20409.98,0.039315
20490.65,0.039875
20571.96,0.040639
20653.92,0.041401
20736.54,0.041861
20819.82,0.04255
20903.77,0.043422
20988.4,0.044348
21073.72,0.045112
21159.73,0.045567
21246.46,0.045914
21333.89,0.046146
21422.04,0.046398
21510.93,0.046832
21600.56,0.047071
21690.94,0.046943
21782.08,0.046822
21873.99,0.046549
21966.67,0.046177
22060.15,0.046012
22154.42,0.046307
22249.51,0.046733
22345.41,0.047007
22442.14,0.047158
22539.72,0.047222
22638.14,0.047293
22737.43,0.047071
22837.6,0.04658
22938.65,0.04637
23040.6,0.046201
23143.46,0.045761
23247.24,0.045158
23351.96,0.044495
23457.63,0.04331
23564.25,0.042878
23671.85,0.043353
23780.44,0.043575
23890.02,0.043712
24000.63,0.042897
24112.26,0.042164
24224.93,0.041737
24338.66,0.041633
24453.47,0.042092
24569.36,0.041915
24686.36,0.04179
24804.47,0.04213
24923.73,0.04168
25044.13,0.040623
25165.71,0.039976
25288.46,0.040287
25412.43,0.039686
25537.61,0.039639
25664.04,0.040477
25791.72,0.042835
