Database of Origin,University of Winnipeg Spectrophotometer Facility
Sample Description,Carbonaceous chondrites - RELAB archive 2. CM chondrites
Date Added,2018-07-23 23:44:49.962666

Data ID,RLA_MET_33_28       
Sample ID,MET00639
Mineral Name,CM Chondrite
Grain Size,<75 microns
Viewing Geometry,30/0
Material Class,CM2

Wavelength
305.0,0.01824
310.0,0.01872
315.0,0.01901
320.0,0.01979
325.0,0.02056
330.0,0.0213
335.0,0.02213
340.0,0.02276
345.0,0.0233
350.0,0.02371
355.0,0.02401
360.0,0.02422
365.0,0.02447
370.0,0.02474
375.0,0.02498
380.0,0.02523
385.0,0.02549
390.0,0.02574
395.0,0.02596
400.0,0.02617
405.0,0.02636
410.0,0.02654
415.0,0.02664
420.0,0.02678
425.0,0.02694
430.0,0.02715
435.0,0.0272
440.0,0.02727
445.0,0.02737
450.0,0.02742
455.0,0.02743
460.0,0.0274
465.0,0.02753
470.0,0.02757
475.0,0.02765
480.0,0.02775
485.0,0.02778
490.0,0.02785
495.0,0.02789
500.0,0.02796
505.0,0.02797
510.0,0.02808
515.0,0.02807
520.0,0.02813
525.0,0.02812
530.0,0.02826
535.0,0.02826
540.0,0.02838
545.0,0.02837
550.0,0.02839
555.0,0.02837
560.0,0.02839
565.0,0.02835
570.0,0.02831
575.0,0.02829
580.0,0.02822
585.0,0.02824
590.0,0.02819
595.0,0.02818
600.0,0.02817
605.0,0.02818
610.0,0.0282
615.0,0.02822
620.0,0.02821
625.0,0.02824
630.0,0.02827
635.0,0.02828
640.0,0.02832
645.0,0.02835
650.0,0.02834
655.0,0.02831
660.0,0.02828
665.0,0.02823
670.0,0.02825
675.0,0.02822
680.0,0.02821
685.0,0.02818
690.0,0.02816
695.0,0.0281
700.0,0.02804
705.0,0.02802
710.0,0.028
715.0,0.02805
720.0,0.02807
725.0,0.02814
730.0,0.02818
735.0,0.02824
740.0,0.02825
745.0,0.02829
750.0,0.02838
755.0,0.02841
760.0,0.02844
765.0,0.02849
770.0,0.02852
775.0,0.02852
780.0,0.02856
785.0,0.02861
790.0,0.02861
795.0,0.02862
800.0,0.02868
805.0,0.02875
810.0,0.02874
815.0,0.02878
820.0,0.02879
825.0,0.0288
830.0,0.02881
835.0,0.02881
840.0,0.02887
845.0,0.02892
850.0,0.02894
855.0,0.02892
860.0,0.02894
865.0,0.02881
870.0,0.02873
875.0,0.02874
880.0,0.02869
885.0,0.02868
890.0,0.02868
895.0,0.02877
900.0,0.02877
905.0,0.02876
910.0,0.02874
915.0,0.02876
920.0,0.02868
925.0,0.02866
930.0,0.02865
935.0,0.02865
940.0,0.02864
945.0,0.02865
950.0,0.02865
955.0,0.02874
960.0,0.02881
965.0,0.02884
970.0,0.02882
975.0,0.0288
980.0,0.02875
985.0,0.02873
990.0,0.02877
995.0,0.0288
1000.0,0.02885
1005.0,0.0288
1010.0,0.02878
1015.0,0.02874
1020.0,0.02873
1025.0,0.02875
1030.0,0.02886
1035.0,0.02885
1040.0,0.02874
1045.0,0.02872
1050.0,0.02869
1055.0,0.02861
1060.0,0.02857
1065.0,0.02859
1070.0,0.0285
1075.0,0.02846
1080.0,0.02843
1085.0,0.02845
1090.0,0.02844
1095.0,0.02844
1100.0,0.02843
1105.0,0.02835
1110.0,0.02832
1115.0,0.02835
1120.0,0.02836
1125.0,0.02835
1130.0,0.02837
1135.0,0.02831
1140.0,0.02829
1145.0,0.02828
1150.0,0.02831
1155.0,0.02834
1160.0,0.02841
1165.0,0.02843
1170.0,0.02848
1175.0,0.02846
1180.0,0.02848
1185.0,0.02847
1190.0,0.02843
1195.0,0.02844
1200.0,0.02854
1205.0,0.02858
1210.0,0.0286
1215.0,0.02867
1220.0,0.02867
1225.0,0.02862
1230.0,0.02857
1235.0,0.02854
1240.0,0.0285
1245.0,0.02851
1250.0,0.02848
1255.0,0.02847
1260.0,0.02851
1265.0,0.02853
1270.0,0.02853
1275.0,0.02849
1280.0,0.02848
1285.0,0.02847
1290.0,0.02847
1295.0,0.02842
1300.0,0.02843
1305.0,0.02842
1310.0,0.02845
1315.0,0.02845
1320.0,0.02848
1325.0,0.02848
1330.0,0.02849
1335.0,0.02849
1340.0,0.0285
1345.0,0.02852
1350.0,0.02854
1355.0,0.02855
1360.0,0.02852
1365.0,0.0285
1370.0,0.02853
1375.0,0.02853
1380.0,0.02853
1385.0,0.0286
1390.0,0.02868
1395.0,0.02867
1400.0,0.02866
1405.0,0.0287
1410.0,0.0287
1415.0,0.0287
1420.0,0.02866
1425.0,0.02867
1430.0,0.02868
1435.0,0.02872
1440.0,0.02869
1445.0,0.0287
1450.0,0.02869
1455.0,0.0287
1460.0,0.02867
1465.0,0.0287
1470.0,0.02873
1475.0,0.02876
1480.0,0.02878
1485.0,0.02877
1490.0,0.02875
1495.0,0.02875
1500.0,0.02878
1505.0,0.02881
1510.0,0.02884
1515.0,0.02888
1520.0,0.02889
1525.0,0.02889
1530.0,0.02884
1535.0,0.02884
1540.0,0.02887
1545.0,0.0289
1550.0,0.02893
1555.0,0.02896
1560.0,0.02902
1565.0,0.02901
1570.0,0.02905
1575.0,0.02906
1580.0,0.02909
1585.0,0.02905
1590.0,0.02905
1595.0,0.02905
1600.0,0.02913
1605.0,0.02905
1610.0,0.02907
1615.0,0.02909
1620.0,0.02908
1625.0,0.02912
1630.0,0.0291
1635.0,0.02908
1640.0,0.02911
1645.0,0.02914
1650.0,0.02918
1655.0,0.02916
1660.0,0.02916
1665.0,0.02911
1670.0,0.02911
1675.0,0.02903
1680.0,0.029
1685.0,0.02904
1690.0,0.02907
1695.0,0.02904
1700.0,0.02905
1705.0,0.02905
1710.0,0.02905
1715.0,0.02907
1720.0,0.02911
1725.0,0.02918
1730.0,0.02919
1735.0,0.02918
1740.0,0.02916
1745.0,0.02911
1750.0,0.02915
1755.0,0.02917
1760.0,0.02918
1765.0,0.02916
1770.0,0.02924
1775.0,0.02926
1780.0,0.02925
1785.0,0.02926
1790.0,0.02929
1795.0,0.02924
1800.0,0.0292
1805.0,0.0292
1810.0,0.02923
1815.0,0.02921
1820.0,0.02921
1825.0,0.02922
1830.0,0.02919
1835.0,0.02916
1840.0,0.02912
1845.0,0.02915
1850.0,0.02909
1855.0,0.02912
1860.0,0.02918
1865.0,0.02915
1870.0,0.02909
1875.0,0.02914
1880.0,0.02909
1885.0,0.02904
1890.0,0.02908
1895.0,0.02915
1900.0,0.02915
1905.0,0.02913
1910.0,0.02912
1915.0,0.02912
1920.0,0.02909
1925.0,0.02911
1930.0,0.02911
1935.0,0.02913
1940.0,0.02915
1945.0,0.02918
1950.0,0.02916
1955.0,0.02916
1960.0,0.02921
1965.0,0.02931
1970.0,0.02928
1975.0,0.0293
1980.0,0.02927
1985.0,0.02926
1990.0,0.02923
1995.0,0.02925
2000.0,0.02923
2005.0,0.0293
2010.0,0.02931
2015.0,0.02936
2020.0,0.02936
2025.0,0.02936
2030.0,0.02929
2035.0,0.0293
2040.0,0.02931
2045.0,0.0293
2050.0,0.02933
2055.0,0.02944
2060.0,0.02947
2065.0,0.02945
2070.0,0.02947
2075.0,0.02952
2080.0,0.02945
2085.0,0.02939
2090.0,0.02938
2095.0,0.02934
2100.0,0.02932
2105.0,0.02934
2110.0,0.02934
2115.0,0.02937
2120.0,0.02942
2125.0,0.02947
2130.0,0.02949
2135.0,0.02956
2140.0,0.02955
2145.0,0.02956
2150.0,0.02951
2155.0,0.02944
2160.0,0.02942
2165.0,0.02938
2170.0,0.02942
2175.0,0.02941
2180.0,0.02944
2185.0,0.02945
2190.0,0.02946
2195.0,0.02949
2200.0,0.02945
2205.0,0.02949
2210.0,0.02945
2215.0,0.02943
2220.0,0.0294
2225.0,0.02934
2230.0,0.02931
2235.0,0.02931
2240.0,0.02939
2245.0,0.0294
2250.0,0.02941
2255.0,0.02936
2260.0,0.02937
2265.0,0.02931
2270.0,0.02935
2275.0,0.02937
2280.0,0.02939
2285.0,0.02945
2290.0,0.02945
2295.0,0.02941
2300.0,0.02935
2305.0,0.02936
2310.0,0.02935
2315.0,0.02931
2320.0,0.02931
2325.0,0.02934
2330.0,0.02932
2335.0,0.02931
2340.0,0.02934
2345.0,0.02926
2350.0,0.02922
2355.0,0.02918
2360.0,0.02917
2365.0,0.02909
2370.0,0.02913
2375.0,0.02916
2380.0,0.02918
2385.0,0.02925
2390.0,0.02929
2395.0,0.02935
2400.0,0.02929
2405.0,0.0292
2410.0,0.02918
2415.0,0.02912
2420.0,0.02915
2425.0,0.02908
2430.0,0.02907
2435.0,0.02908
2440.0,0.02906
2445.0,0.02906
2450.0,0.02915
2455.0,0.02913
2460.0,0.02908
2465.0,0.02906
2470.0,0.02899
2475.0,0.02899
2480.0,0.02909
2485.0,0.0291
2490.0,0.0291
2495.0,0.02925
2500.0,0.02916
2505.0,0.02919
2510.0,0.02919
2515.0,0.02926
2520.0,0.02929
2525.0,0.02933
2530.0,0.02932
2535.0,0.02935
2540.0,0.02929
2545.0,0.02921
2550.0,0.02926
2555.0,0.02927
2560.0,0.02923
2565.0,0.02923
2570.0,0.02926
2575.0,0.02917
2580.0,0.02908
2585.0,0.0292
2590.0,0.02903
2595.0,0.02891
2600.0,0.02876
