Database of Origin,University of Winnipeg Spectrophotometer Facility
Sample Description,Carbonaceous chondrites - RELAB archive 7. Ungrouped chondrites and ATCCs
Other Information,pressed powder for laser irradiation  spun MT-TXH-025-L0/C1MT25L0 c1mt25l0
Date Added,2018-07-23 23:45:03.586124

Data ID,RLA_MET_38_10       
Sample ID,Tagish Lake
Mineral Name,Tagish Lake
Grain Size,<125 um
Viewing Geometry,30/0
Material Class,C2-unique

Wavelength
305.0,0.02362
310.0,0.02396
315.0,0.02438
320.0,0.02495
325.0,0.02542
330.0,0.02592
335.0,0.02635
340.0,0.02671
345.0,0.02683
350.0,0.02692
355.0,0.02701
360.0,0.02709
365.0,0.02729
370.0,0.02744
375.0,0.02765
380.0,0.02789
385.0,0.02818
390.0,0.02843
395.0,0.02871
400.0,0.02904
405.0,0.02937
410.0,0.02939
415.0,0.02938
420.0,0.02963
425.0,0.02991
430.0,0.02988
435.0,0.03007
440.0,0.03028
445.0,0.03031
450.0,0.03048
455.0,0.03062
460.0,0.03074
465.0,0.03087
470.0,0.03092
475.0,0.03103
480.0,0.03121
485.0,0.03129
490.0,0.03141
495.0,0.03151
500.0,0.03164
505.0,0.03177
510.0,0.03192
515.0,0.03207
520.0,0.03215
525.0,0.03228
530.0,0.03253
535.0,0.03268
540.0,0.03282
545.0,0.033
550.0,0.03306
555.0,0.03309
560.0,0.0332
565.0,0.03331
570.0,0.03331
575.0,0.03341
580.0,0.03355
585.0,0.03361
590.0,0.03382
595.0,0.03394
600.0,0.03416
605.0,0.03422
610.0,0.03445
615.0,0.03469
620.0,0.03497
625.0,0.03507
630.0,0.03516
635.0,0.03529
640.0,0.03535
645.0,0.03549
650.0,0.0355
655.0,0.03551
660.0,0.03558
665.0,0.03556
670.0,0.03553
675.0,0.03554
680.0,0.03557
685.0,0.03564
690.0,0.03565
695.0,0.03567
700.0,0.03574
705.0,0.03581
710.0,0.03584
715.0,0.03593
720.0,0.03594
725.0,0.03605
730.0,0.03611
735.0,0.0362
740.0,0.03627
745.0,0.03629
750.0,0.03642
755.0,0.03647
760.0,0.03651
765.0,0.03657
770.0,0.03666
775.0,0.0367
780.0,0.03683
785.0,0.03679
790.0,0.03694
795.0,0.03699
800.0,0.03723
805.0,0.03734
810.0,0.03735
815.0,0.03739
820.0,0.03745
825.0,0.03748
830.0,0.03753
835.0,0.03755
840.0,0.03756
845.0,0.03754
850.0,0.03763
855.0,0.03757
860.0,0.03755
865.0,0.03759
870.0,0.03761
875.0,0.03758
880.0,0.03761
885.0,0.03766
890.0,0.03766
895.0,0.03767
900.0,0.0377
905.0,0.03771
910.0,0.03781
915.0,0.03785
920.0,0.03793
925.0,0.03798
930.0,0.03804
935.0,0.03803
940.0,0.03811
945.0,0.03817
950.0,0.03826
955.0,0.03828
960.0,0.03835
965.0,0.03843
970.0,0.03843
975.0,0.03844
980.0,0.03849
985.0,0.0385
990.0,0.03848
995.0,0.0385
1000.0,0.03854
1005.0,0.03856
1010.0,0.0386
1015.0,0.03861
1020.0,0.03863
1025.0,0.03864
1030.0,0.03869
1035.0,0.03874
1040.0,0.03881
1045.0,0.03885
1050.0,0.03887
1055.0,0.03889
1060.0,0.03889
1065.0,0.03885
1070.0,0.03884
1075.0,0.03885
1080.0,0.03882
1085.0,0.03883
1090.0,0.0389
1095.0,0.03892
1100.0,0.03893
1105.0,0.03899
1110.0,0.039
1115.0,0.03904
1120.0,0.03906
1125.0,0.03915
1130.0,0.03918
1135.0,0.03928
1140.0,0.03932
1145.0,0.03938
1150.0,0.03943
1155.0,0.03952
1160.0,0.03957
1165.0,0.03959
1170.0,0.03965
1175.0,0.03964
1180.0,0.03965
1185.0,0.03967
1190.0,0.0397
1195.0,0.03978
1200.0,0.03996
1205.0,0.04003
1210.0,0.04012
1215.0,0.04024
1220.0,0.04026
1225.0,0.04026
1230.0,0.04028
1235.0,0.04032
1240.0,0.0403
1245.0,0.04033
1250.0,0.04034
1255.0,0.04036
1260.0,0.04037
1265.0,0.04042
1270.0,0.04045
1275.0,0.04042
1280.0,0.04041
1285.0,0.04043
1290.0,0.04045
1295.0,0.04045
1300.0,0.04045
1305.0,0.04046
1310.0,0.04049
1315.0,0.0405
1320.0,0.04055
1325.0,0.0406
1330.0,0.04065
1335.0,0.04067
1340.0,0.04073
1345.0,0.04079
1350.0,0.04085
1355.0,0.04082
1360.0,0.04092
1365.0,0.04089
1370.0,0.04091
1375.0,0.04089
1380.0,0.04099
1385.0,0.04103
1390.0,0.04113
1395.0,0.04117
1400.0,0.04127
1405.0,0.04136
1410.0,0.0414
1415.0,0.04144
1420.0,0.04141
1425.0,0.0414
1430.0,0.04139
1435.0,0.04138
1440.0,0.04141
1445.0,0.04146
1450.0,0.04151
1455.0,0.04154
1460.0,0.04157
1465.0,0.04153
1470.0,0.04158
1475.0,0.04161
1480.0,0.04166
1485.0,0.04174
1490.0,0.04182
1495.0,0.04187
1500.0,0.04196
1505.0,0.04199
1510.0,0.04205
1515.0,0.04209
1520.0,0.04212
1525.0,0.04216
1530.0,0.04222
1535.0,0.04223
1540.0,0.04228
1545.0,0.04235
1550.0,0.04237
1555.0,0.04239
1560.0,0.04242
1565.0,0.04252
1570.0,0.04256
1575.0,0.04261
1580.0,0.04264
1585.0,0.04271
1590.0,0.0427
1595.0,0.04271
1600.0,0.04276
1605.0,0.04281
1610.0,0.04287
1615.0,0.0429
1620.0,0.04297
1625.0,0.04297
1630.0,0.04297
1635.0,0.04294
1640.0,0.04299
1645.0,0.04303
1650.0,0.04306
1655.0,0.04305
1660.0,0.04305
1665.0,0.04302
1670.0,0.04298
1675.0,0.04295
1680.0,0.04296
1685.0,0.043
1690.0,0.043
1695.0,0.04302
1700.0,0.0431
1705.0,0.04309
1710.0,0.04314
1715.0,0.04315
1720.0,0.04321
1725.0,0.04322
1730.0,0.04325
1735.0,0.04327
1740.0,0.0433
1745.0,0.04332
1750.0,0.04331
1755.0,0.04336
1760.0,0.04336
1765.0,0.04335
1770.0,0.04334
1775.0,0.04335
1780.0,0.04336
1785.0,0.0434
1790.0,0.0435
1795.0,0.04357
1800.0,0.04358
1805.0,0.04359
1810.0,0.04363
1815.0,0.04362
1820.0,0.04368
1825.0,0.04373
1830.0,0.04379
1835.0,0.04376
1840.0,0.04378
1845.0,0.04371
1850.0,0.04368
1855.0,0.04361
1860.0,0.04378
1865.0,0.04373
1870.0,0.04366
1875.0,0.0437
1880.0,0.04377
1885.0,0.04363
1890.0,0.04379
1895.0,0.04397
1900.0,0.04399
1905.0,0.04405
1910.0,0.04416
1915.0,0.04415
1920.0,0.04418
1925.0,0.04426
1930.0,0.04427
1935.0,0.04424
1940.0,0.04422
1945.0,0.04415
1950.0,0.04414
1955.0,0.04404
1960.0,0.04405
1965.0,0.04404
1970.0,0.04409
1975.0,0.0441
1980.0,0.04422
1985.0,0.04423
1990.0,0.0443
1995.0,0.04433
2000.0,0.04436
2005.0,0.04435
2010.0,0.04437
2015.0,0.04436
2020.0,0.04437
2025.0,0.04436
2030.0,0.04439
2035.0,0.04445
2040.0,0.0445
2045.0,0.04453
2050.0,0.04455
2055.0,0.04457
2060.0,0.04458
2065.0,0.04456
2070.0,0.04455
2075.0,0.04453
2080.0,0.0445
2085.0,0.0445
2090.0,0.04452
2095.0,0.04456
2100.0,0.04456
2105.0,0.04462
2110.0,0.04463
2115.0,0.04462
2120.0,0.04461
2125.0,0.04468
2130.0,0.04469
2135.0,0.04474
2140.0,0.04477
2145.0,0.04482
2150.0,0.04481
2155.0,0.04481
2160.0,0.04483
2165.0,0.04491
2170.0,0.04494
2175.0,0.04496
2180.0,0.04502
2185.0,0.04502
2190.0,0.04505
2195.0,0.04507
2200.0,0.04507
2205.0,0.04504
2210.0,0.04508
2215.0,0.04506
2220.0,0.04505
2225.0,0.04507
2230.0,0.04506
2235.0,0.04505
2240.0,0.04508
2245.0,0.04506
2250.0,0.0451
2255.0,0.04508
2260.0,0.04507
2265.0,0.04505
2270.0,0.04508
2275.0,0.04505
2280.0,0.0451
2285.0,0.04507
2290.0,0.0451
2295.0,0.04516
2300.0,0.04524
2305.0,0.04528
2310.0,0.0453
2315.0,0.04527
2320.0,0.04527
2325.0,0.04524
2330.0,0.04525
2335.0,0.04528
2340.0,0.04533
2345.0,0.04533
2350.0,0.04534
2355.0,0.04536
2360.0,0.04537
2365.0,0.04534
2370.0,0.04532
2375.0,0.04532
2380.0,0.04533
2385.0,0.04527
2390.0,0.04528
2395.0,0.04529
2400.0,0.04524
2405.0,0.04524
2410.0,0.04532
2415.0,0.04532
2420.0,0.04534
2425.0,0.04544
2430.0,0.04547
2435.0,0.04551
2440.0,0.04557
2445.0,0.04557
2450.0,0.04555
2455.0,0.0456
2460.0,0.04562
2465.0,0.04552
2470.0,0.04563
2475.0,0.04562
2480.0,0.04543
2485.0,0.0455
2490.0,0.04549
2495.0,0.04555
2500.0,0.04558
2505.0,0.04547
2510.0,0.04548
2515.0,0.04543
2520.0,0.04526
2525.0,0.0452
2530.0,0.04511
2535.0,0.04513
