Database of Origin,University of Winnipeg Spectrophotometer Facility
Sample Description,Carbonaceous chondrites - RELAB archive 8. Lab-heated carbonaceous chondrites
Other Information,Heated Ivuna 100C lamp18F
Date Added,2018-07-23 23:45:04.557352

Data ID,RLA_MET_40_7        
Sample ID,Ivuna
Mineral Name,Ivuna
Viewing Geometry,30/0/ 30
Resolution,5/ 0.6-129 nm
Material Class,CI1

Wavelength
305.0,0.018091
310.0,0.018081
315.0,0.018966
320.0,0.019098
325.0,0.019005
330.0,0.019513
335.0,0.019575
340.0,0.019797
345.0,0.020201
350.0,0.020206
355.0,0.020425
360.0,0.020889
365.0,0.02111
370.0,0.021292
375.0,0.021395
380.0,0.021878
385.0,0.022176
390.0,0.022587
395.0,0.022802
400.0,0.023228
405.0,0.023621
410.0,0.023884
415.0,0.024183
420.0,0.024418
425.0,0.024659
430.0,0.024937
435.0,0.025257
440.0,0.025407
445.0,0.025613
450.0,0.02592
455.0,0.025986
460.0,0.026142
465.0,0.026218
470.0,0.026195
475.0,0.026347
480.0,0.026445
485.0,0.026518
490.0,0.026724
495.0,0.02681
500.0,0.027022
505.0,0.027191
510.0,0.027651
515.0,0.027886
520.0,0.028105
525.0,0.028448
530.0,0.028766
535.0,0.028953
540.0,0.02922
545.0,0.029388
550.0,0.029585
555.0,0.029755
560.0,0.029757
565.0,0.029963
570.0,0.029951
575.0,0.030066
580.0,0.030102
585.0,0.030212
590.0,0.030199
595.0,0.030305
600.0,0.030348
605.0,0.030357
610.0,0.030446
615.0,0.030519
620.0,0.030606
625.0,0.030674
630.0,0.030706
635.0,0.030782
640.0,0.030661
645.0,0.030852
650.0,0.030734
655.0,0.03076
660.0,0.03083
665.0,0.030805
670.0,0.030794
675.0,0.030731
680.0,0.0308
685.0,0.030754
690.0,0.03066
695.0,0.030738
700.0,0.030766
705.0,0.030735
710.0,0.03056
715.0,0.030576
720.0,0.030555
725.0,0.03076
730.0,0.030589
735.0,0.030532
740.0,0.030478
745.0,0.030548
750.0,0.030706
755.0,0.030514
760.0,0.030471
765.0,0.030494
770.0,0.030498
775.0,0.03053
780.0,0.030386
785.0,0.030381
790.0,0.030357
795.0,0.030368
800.0,0.030469
805.0,0.030324
810.0,0.030272
815.0,0.030334
820.0,0.030222
825.0,0.030224
830.0,0.030146
835.0,0.030185
840.0,0.030115
845.0,0.03016
850.0,0.030001
855.0,0.030105
860.0,0.029976
865.0,0.030004
870.0,0.030078
875.0,0.030078
880.0,0.029877
885.0,0.029845
890.0,0.029964
895.0,0.029944
900.0,0.029898
905.0,0.029758
910.0,0.029665
915.0,0.02971
920.0,0.029659
925.0,0.029653
930.0,0.029556
935.0,0.029432
940.0,0.029428
945.0,0.02959
950.0,0.029479
955.0,0.029531
960.0,0.029418
965.0,0.029395
970.0,0.029393
975.0,0.029306
980.0,0.029383
985.0,0.029523
990.0,0.02941
995.0,0.029577
1000.0,0.02944
1005.0,0.029469
1010.0,0.029471
1015.0,0.029422
1020.0,0.029465
1025.0,0.029436
1030.0,0.029315
1035.0,0.02938
1040.0,0.029396
1045.0,0.029503
1050.0,0.02943
1055.0,0.029368
1060.0,0.02926
1065.0,0.029158
1070.0,0.029017
1075.0,0.029023
1080.0,0.028965
1085.0,0.028916
1090.0,0.028922
1095.0,0.028958
1100.0,0.028854
1105.0,0.02887
1110.0,0.028823
1115.0,0.028777
1120.0,0.028768
1125.0,0.028858
1130.0,0.028768
1135.0,0.028764
1140.0,0.02894
1145.0,0.028907
1150.0,0.028855
1155.0,0.028838
1160.0,0.028849
1165.0,0.028699
1170.0,0.028835
1175.0,0.028831
1180.0,0.028749
1185.0,0.02881
1190.0,0.028845
1195.0,0.028913
1200.0,0.0291
1205.0,0.029187
1210.0,0.029267
1215.0,0.029178
1220.0,0.029125
1225.0,0.02897
1230.0,0.028926
1235.0,0.028844
1240.0,0.028758
1245.0,0.028767
1250.0,0.028699
1255.0,0.028676
1260.0,0.028722
1265.0,0.028621
1270.0,0.028625
1275.0,0.02863
1280.0,0.028583
1285.0,0.028551
1290.0,0.028579
1295.0,0.028505
1300.0,0.028491
1305.0,0.028472
1310.0,0.02851
1315.0,0.028555
1320.0,0.028563
1325.0,0.028473
1330.0,0.028524
1335.0,0.028439
1340.0,0.028594
1345.0,0.028563
1350.0,0.028524
1355.0,0.028556
1360.0,0.028411
1365.0,0.028348
1370.0,0.028384
1375.0,0.02832
1380.0,0.028405
1385.0,0.028374
1390.0,0.028435
1395.0,0.028556
1400.0,0.028598
1405.0,0.028536
1410.0,0.028521
1415.0,0.028507
1420.0,0.028587
1425.0,0.028484
1430.0,0.028482
1435.0,0.028515
1440.0,0.028399
1445.0,0.028469
1450.0,0.028516
1455.0,0.028604
1460.0,0.02854
1465.0,0.028645
1470.0,0.028728
1475.0,0.028626
1480.0,0.028653
1485.0,0.0286
1490.0,0.028621
1495.0,0.028636
1500.0,0.028765
1505.0,0.028713
1510.0,0.028843
1515.0,0.028844
1520.0,0.028735
1525.0,0.028876
1530.0,0.028827
1535.0,0.028914
1540.0,0.028906
1545.0,0.028983
1550.0,0.029023
1555.0,0.029115
1560.0,0.029059
1565.0,0.029121
1570.0,0.029208
1575.0,0.029121
1580.0,0.029211
1585.0,0.029163
1590.0,0.029319
1595.0,0.029162
1600.0,0.029446
1605.0,0.029408
1610.0,0.029488
1615.0,0.029533
1620.0,0.029322
1625.0,0.029307
1630.0,0.029267
1635.0,0.029467
1640.0,0.029454
1645.0,0.02946
1650.0,0.02945
1655.0,0.029466
1660.0,0.029308
1665.0,0.029292
1670.0,0.02929
1675.0,0.029353
1680.0,0.029445
1685.0,0.029357
1690.0,0.029264
1695.0,0.029335
1700.0,0.029386
1705.0,0.029419
1710.0,0.029344
1715.0,0.029339
1720.0,0.029301
1725.0,0.029312
1730.0,0.02938
1735.0,0.029298
1740.0,0.029302
1745.0,0.029342
1750.0,0.029315
1755.0,0.029321
1760.0,0.029301
1765.0,0.029362
1770.0,0.02932
1775.0,0.029303
1780.0,0.029355
1785.0,0.02943
1790.0,0.029415
1795.0,0.029453
1800.0,0.029576
1805.0,0.029501
1810.0,0.029468
1815.0,0.029513
1820.0,0.029571
1825.0,0.029587
1830.0,0.029551
1835.0,0.029569
1840.0,0.029538
1845.0,0.029415
1850.0,0.029496
1855.0,0.029513
1860.0,0.029492
1865.0,0.029471
1870.0,0.029643
1875.0,0.029348
1880.0,0.029288
1885.0,0.029464
1890.0,0.029479
1895.0,0.029468
1900.0,0.029511
1905.0,0.029473
1910.0,0.029404
1915.0,0.029413
1920.0,0.029479
1925.0,0.029488
1930.0,0.029501
1935.0,0.029468
1940.0,0.029414
1945.0,0.029451
1950.0,0.029485
1955.0,0.02944
1960.0,0.029494
1965.0,0.029516
1970.0,0.029539
1975.0,0.029468
1980.0,0.02947
1985.0,0.029421
1990.0,0.029493
1995.0,0.029492
2000.0,0.029569
2005.0,0.029539
2010.0,0.02964
2015.0,0.0295
2020.0,0.029686
2025.0,0.029715
2030.0,0.029707
2035.0,0.029782
2040.0,0.029821
2045.0,0.029755
2050.0,0.029737
2055.0,0.029782
2060.0,0.029745
2065.0,0.029824
2070.0,0.029841
2075.0,0.030024
2080.0,0.029846
2085.0,0.02986
2090.0,0.029825
2095.0,0.029814
2100.0,0.029821
2105.0,0.02979
2110.0,0.029723
2115.0,0.029773
2120.0,0.029711
2125.0,0.029673
2130.0,0.029678
2135.0,0.029766
2140.0,0.029742
2145.0,0.029763
2150.0,0.029767
2155.0,0.029758
2160.0,0.029848
2165.0,0.029812
2170.0,0.02982
2175.0,0.029764
2180.0,0.0298
2185.0,0.029818
2190.0,0.029831
2195.0,0.029899
2200.0,0.029934
2205.0,0.02977
2210.0,0.029839
2215.0,0.029804
2220.0,0.029808
2225.0,0.029811
2230.0,0.029889
2235.0,0.03003
2240.0,0.030006
2245.0,0.029996
2250.0,0.029991
2255.0,0.030052
2260.0,0.03001
2265.0,0.029984
2270.0,0.030008
2275.0,0.029984
2280.0,0.029997
2285.0,0.030008
2290.0,0.029868
2295.0,0.02981
2300.0,0.029718
2305.0,0.029658
2310.0,0.029701
2315.0,0.029698
2320.0,0.029639
2325.0,0.029619
2330.0,0.029587
2335.0,0.029647
2340.0,0.029625
2345.0,0.029606
2350.0,0.029597
2355.0,0.029636
2360.0,0.02963
2365.0,0.029687
2370.0,0.029736
2375.0,0.029669
2380.0,0.029684
2385.0,0.029704
2390.0,0.029631
2395.0,0.029596
2400.0,0.029644
2405.0,0.029663
2410.0,0.029726
2415.0,0.029676
2420.0,0.029762
2425.0,0.029682
2430.0,0.029642
2435.0,0.029678
2440.0,0.029578
2445.0,0.029587
2450.0,0.029646
2455.0,0.029655
2460.0,0.029635
2465.0,0.029601
2470.0,0.029527
2475.0,0.029512
2480.0,0.029532
2485.0,0.029488
2490.0,0.029352
2495.0,0.02928
2500.0,0.029336
2502.0,0.029554
2503.2,0.0297
2504.41,0.029513
2505.62,0.029302
2506.83,0.029442
2508.05,0.02961
2509.26,0.029488
2510.48,0.029508
2511.69,0.029694
2512.91,0.029646
2514.13,0.029574
2515.35,0.029572
2516.57,0.029611
2517.79,0.029672
2519.02,0.029697
2520.24,0.029673
2521.47,0.029672
2522.69,0.029716
2523.92,0.029659
2525.15,0.029457
2526.38,0.02959
2527.61,0.029717
2528.85,0.029587
2530.08,0.029457
2531.32,0.029507
2532.55,0.029586
2533.79,0.029446
2535.03,0.029394
2536.27,0.029414
2537.51,0.029499
2538.75,0.029479
2540.0,0.029469
2541.24,0.029538
2542.49,0.029668
2543.74,0.029767
2544.99,0.029612
2546.24,0.02957
2547.49,0.029403
2548.74,0.02947
2549.99,0.029662
2551.25,0.029726
2552.5,0.02966
2553.76,0.029623
2555.02,0.029629
2556.28,0.029617
2557.54,0.029558
2558.8,0.029791
2560.07,0.02992
2561.33,0.029906
2562.6,0.029827
2563.86,0.02965
2565.13,0.029546
2566.4,0.029551
2567.67,0.029704
2568.95,0.029735
2570.22,0.029784
2571.5,0.029865
2572.77,0.029722
2574.05,0.029744
2575.33,0.029749
2576.61,0.029675
2577.89,0.029635
2579.17,0.029763
2580.46,0.029877
2581.74,0.029837
2583.03,0.029755
2584.31,0.029719
2585.6,0.029739
2586.89,0.029755
2588.19,0.029723
2589.48,0.029715
2590.77,0.029798
2592.07,0.029928
2593.36,0.029882
2594.66,0.029885
2595.96,0.029885
2597.26,0.029929
2598.56,0.030072
2599.87,0.029991
2601.17,0.029753
2602.48,0.029764
2603.78,0.029832
2605.09,0.029842
2606.4,0.029927
2607.71,0.029964
2609.03,0.029913
2610.34,0.029888
2611.66,0.029893
2612.97,0.029874
2614.29,0.029866
2615.61,0.029896
2616.93,0.029847
2618.25,0.029802
2619.57,0.029897
2620.9,0.029807
2622.22,0.029689
2623.55,0.029966
2624.88,0.029959
2626.21,0.029628
2627.54,0.029606
2628.87,0.029784
2630.21,0.029808
2631.54,0.029862
2632.88,0.029774
2634.21,0.029612
2635.55,0.029678
2636.89,0.029804
2638.24,0.02982
2639.58,0.029777
2640.92,0.029767
2642.27,0.029731
2643.62,0.029819
2644.97,0.02981
2646.32,0.029677
2647.67,0.029631
2649.02,0.029696
2650.38,0.029752
2651.73,0.029792
2653.09,0.029715
2654.45,0.029824
2655.81,0.029918
2657.17,0.029754
2658.53,0.029625
2659.89,0.029749
2661.26,0.02984
2662.63,0.029656
2664.0,0.029449
2665.36,0.029672
2666.74,0.029763
2668.11,0.029606
2669.48,0.02948
2670.86,0.029356
2672.23,0.029349
2673.61,0.029415
2674.99,0.02937
2676.37,0.029182
2677.76,0.02884
2679.14,0.028793
2680.52,0.028665
2681.91,0.028444
2683.3,0.028281
2684.69,0.027956
2686.08,0.027486
2687.47,0.026988
2688.87,0.026671
2690.26,0.026215
2691.66,0.02575
2693.06,0.025494
2694.46,0.025164
2695.86,0.024651
2697.26,0.024227
2698.66,0.023881
2700.07,0.023481
2701.48,0.02315
2702.89,0.022917
2704.3,0.022675
2705.71,0.022452
2707.12,0.022153
2708.53,0.022102
2709.95,0.021754
2711.37,0.021551
2712.79,0.021717
2714.21,0.02183
2715.63,0.021743
2717.05,0.021814
2718.48,0.021863
2719.9,0.021982
2721.33,0.022117
2722.76,0.022146
2724.19,0.022172
2725.62,0.022393
2727.06,0.022481
2728.49,0.022252
2729.93,0.022391
2731.37,0.022598
2732.81,0.022596
2734.25,0.022446
2735.69,0.02239
2737.14,0.022449
2738.58,0.022574
2740.03,0.022705
2741.48,0.022699
2742.93,0.022635
2744.38,0.022549
2745.83,0.022544
2747.29,0.022556
2748.75,0.022446
2750.2,0.022361
2751.66,0.022229
2753.13,0.022147
2754.59,0.02227
2756.05,0.022303
2757.52,0.022177
2758.99,0.022014
2760.46,0.022015
2761.93,0.022126
2763.4,0.022172
2764.87,0.022156
2766.35,0.022098
2767.82,0.022035
2769.3,0.02195
2770.78,0.02199
2772.26,0.021923
2773.75,0.021701
2775.23,0.021706
2776.72,0.021803
2778.21,0.021807
2779.7,0.021804
2781.19,0.021706
2782.68,0.021672
2784.18,0.021773
2785.67,0.021692
2787.17,0.021525
2788.67,0.021559
2790.17,0.021635
2791.67,0.021687
2793.18,0.021796
2794.68,0.021665
2796.19,0.021488
2797.7,0.0215
2799.21,0.021501
2800.72,0.021456
2802.24,0.021416
2803.75,0.021492
2805.27,0.021516
2806.79,0.021526
2808.31,0.021515
2809.83,0.021537
2811.35,0.021494
2812.88,0.021454
2814.41,0.021497
2815.93,0.021529
2817.46,0.021524
2819.0,0.021363
2820.53,0.021246
2822.07,0.021365
2823.6,0.021414
2825.14,0.02135
2826.68,0.021478
2828.22,0.021546
2829.77,0.021427
2831.31,0.021396
2832.86,0.02142
2834.41,0.021376
2835.96,0.021384
2837.51,0.02144
2839.07,0.02127
2840.62,0.021221
2842.18,0.021337
2843.74,0.021474
2845.3,0.021353
2846.86,0.021206
2848.43,0.021253
2849.99,0.021257
2851.56,0.021258
2853.13,0.021338
2854.7,0.02137
2856.27,0.021357
2857.85,0.021303
2859.42,0.021273
2861.0,0.021171
2862.58,0.021251
2864.16,0.021275
2865.75,0.021205
2867.33,0.021191
2868.92,0.02135
2870.51,0.021404
2872.1,0.021296
2873.69,0.021274
2875.28,0.021351
2876.88,0.021337
2878.48,0.021336
2880.07,0.021304
2881.68,0.021266
2883.28,0.0214
2884.88,0.021372
2886.49,0.021385
2888.1,0.021478
2889.71,0.021441
2891.32,0.02139
2892.93,0.021355
2894.55,0.021198
2896.16,0.021168
2897.78,0.021304
2899.4,0.021344
2901.03,0.021386
2902.65,0.021398
2904.28,0.02146
2905.91,0.021424
2907.54,0.021285
2909.17,0.021326
2910.8,0.021402
2912.44,0.021298
2914.07,0.021192
2915.71,0.021276
2917.35,0.021362
2918.99,0.021385
2920.64,0.021327
2922.29,0.02123
2923.93,0.021186
2925.58,0.021184
2927.24,0.02125
2928.89,0.021256
2930.55,0.021257
2932.2,0.021323
2933.86,0.021352
2935.52,0.021349
2937.19,0.021297
2938.85,0.021321
2940.52,0.021462
2942.19,0.021492
2943.86,0.021447
2945.53,0.021346
2947.21,0.021334
2948.88,0.021467
2950.56,0.021415
2952.24,0.02134
2953.92,0.021411
2955.61,0.021474
2957.29,0.021391
2958.98,0.021347
2960.67,0.021279
2962.36,0.02127
2964.06,0.021373
2965.75,0.021426
2967.45,0.021343
2969.15,0.021392
2970.85,0.021387
2972.55,0.021309
2974.26,0.021423
2975.97,0.021586
2977.68,0.021483
2979.39,0.021393
2981.1,0.021376
2982.82,0.021366
2984.53,0.021338
2986.25,0.021403
2987.97,0.021475
2989.7,0.021445
2991.42,0.021503
2993.15,0.021603
2994.88,0.021539
2996.61,0.021488
2998.34,0.021406
3000.08,0.021435
3001.82,0.021546
3003.55,0.021489
3005.3,0.021442
3007.04,0.021357
3008.78,0.021341
3010.53,0.021449
3012.28,0.021435
3014.03,0.021501
3015.79,0.021652
3017.54,0.021677
3019.3,0.021581
3021.06,0.021491
3022.82,0.021457
3024.58,0.021496
3026.35,0.021582
3028.12,0.021574
3029.89,0.021462
3031.66,0.021445
3033.43,0.021445
3035.21,0.02145
3036.99,0.021577
3038.77,0.021742
3040.55,0.021743
3042.33,0.021705
3044.12,0.021675
3045.91,0.021554
3047.7,0.021512
3049.49,0.021575
3051.29,0.021717
3053.08,0.021687
3054.88,0.021636
3056.68,0.021653
3058.49,0.021654
3060.29,0.021617
3062.1,0.021617
3063.91,0.021653
3065.72,0.021696
3067.54,0.021643
3069.35,0.021632
3071.17,0.021675
3072.99,0.021581
3074.81,0.021671
3076.64,0.021725
3078.47,0.021718
3080.29,0.021849
3082.13,0.021929
3083.96,0.021885
3085.79,0.021859
3087.63,0.021847
3089.47,0.021769
3091.31,0.021626
3093.16,0.021655
3095.01,0.021744
3096.85,0.021756
3098.71,0.02178
3100.56,0.021871
3102.41,0.021894
3104.27,0.021887
3106.13,0.021846
3107.99,0.021859
3109.86,0.021856
3111.73,0.021884
3113.59,0.021913
3115.47,0.022041
3117.34,0.022046
3119.21,0.022026
3121.09,0.022083
3122.97,0.022148
3124.86,0.022116
3126.74,0.022081
3128.63,0.022156
3130.52,0.022201
3132.41,0.022155
3134.3,0.022182
3136.2,0.02224
3138.1,0.02232
3140.0,0.022315
3141.9,0.022272
3143.81,0.022302
3145.71,0.02236
3147.62,0.022356
3149.54,0.022372
3151.45,0.022389
3153.37,0.022407
3155.29,0.022432
3157.21,0.022399
3159.13,0.022471
3161.06,0.022552
3162.99,0.022546
3164.92,0.022545
3166.85,0.022551
3168.79,0.022616
3170.72,0.022711
3172.67,0.022696
3174.61,0.022668
3176.55,0.022755
3178.5,0.022783
3180.45,0.022752
3182.4,0.022802
3184.36,0.022917
3186.32,0.022897
3188.27,0.022883
3190.24,0.022955
3192.2,0.023066
3194.17,0.023003
3196.14,0.023015
3198.11,0.023037
3200.08,0.023026
3202.06,0.023073
3204.04,0.023099
3206.02,0.023148
3208.0,0.023196
3209.99,0.023163
3211.98,0.023244
3213.97,0.023323
3215.96,0.023278
3217.96,0.023214
3219.96,0.023284
3221.96,0.023308
3223.96,0.023395
3225.97,0.023409
3227.98,0.023338
3229.99,0.023288
3232.0,0.023349
3234.02,0.023453
3236.04,0.023539
3238.06,0.023626
3240.08,0.023601
3242.11,0.023609
3244.14,0.023699
3246.17,0.023716
3248.2,0.023681
3250.24,0.023653
3252.28,0.023589
3254.32,0.023566
3256.37,0.023539
3258.41,0.023629
3260.46,0.023798
3262.51,0.023902
3264.57,0.023904
3266.63,0.023825
3268.69,0.023793
3270.75,0.023848
3272.81,0.023877
3274.88,0.023911
3276.95,0.023983
3279.02,0.02399
3281.1,0.023993
3283.18,0.023985
3285.26,0.023988
3287.34,0.024087
3289.43,0.024152
3291.51,0.024181
3293.61,0.024145
3295.7,0.02416
3297.8,0.024239
3299.9,0.024302
3302.0,0.024278
3304.1,0.024293
3306.21,0.024321
3308.32,0.024346
3310.43,0.02432
3312.55,0.024262
3314.66,0.024264
3316.79,0.024281
3318.91,0.024292
3321.03,0.024318
3323.16,0.024376
3325.29,0.024429
3327.43,0.024433
3329.57,0.024455
3331.71,0.024514
3333.85,0.024619
3335.99,0.024624
3338.14,0.02454
3340.29,0.024483
3342.45,0.024459
3344.6,0.024498
3346.76,0.024543
3348.92,0.024598
3351.09,0.024618
3353.26,0.024568
3355.43,0.024467
3357.6,0.024473
3359.78,0.024484
3361.96,0.024461
3364.14,0.024474
3366.32,0.024494
3368.51,0.024428
3370.7,0.024272
3372.89,0.024225
3375.09,0.024294
3377.29,0.024323
3379.49,0.02433
3381.69,0.024373
3383.9,0.024357
3386.11,0.024345
3388.32,0.024476
3390.54,0.024555
3392.76,0.024525
3394.98,0.024499
3397.21,0.024514
3399.43,0.024477
3401.66,0.02447
3403.9,0.024476
3406.13,0.024462
3408.37,0.024379
3410.61,0.024314
3412.86,0.024298
3415.11,0.024286
3417.36,0.024296
3419.61,0.024315
3421.87,0.024462
3424.13,0.024566
3426.39,0.024548
3428.66,0.024633
3430.93,0.024731
3433.2,0.024821
3435.48,0.024944
3437.76,0.025096
3440.04,0.025153
3442.32,0.02514
3444.61,0.025187
3446.9,0.025199
3449.19,0.025167
3451.49,0.025199
3453.79,0.025302
3456.09,0.025359
3458.4,0.025378
3460.7,0.025481
3463.02,0.025514
3465.33,0.025532
3467.65,0.025567
3469.97,0.025558
3472.29,0.025573
3474.62,0.025612
3476.95,0.025625
3479.29,0.025602
3481.62,0.025605
3483.96,0.025614
3486.3,0.025617
3488.65,0.025624
3491.0,0.025662
3493.35,0.025602
3495.71,0.02553
3498.07,0.025573
3500.43,0.025651
3502.79,0.025648
3505.16,0.025739
3507.53,0.025859
3509.91,0.025931
3512.29,0.026034
3514.67,0.02618
3517.05,0.026326
3519.44,0.026414
3521.83,0.026518
3524.23,0.026643
3526.62,0.026673
3529.02,0.026733
3531.43,0.026827
3533.83,0.02693
3536.24,0.026942
3538.66,0.026964
3541.08,0.027018
3543.5,0.027032
3545.92,0.027046
3548.35,0.027143
3550.78,0.027257
3553.21,0.027284
3555.65,0.027241
3558.09,0.027192
3560.53,0.027229
3562.98,0.027304
3565.43,0.027348
3567.88,0.027416
3570.34,0.02752
3572.8,0.027481
3575.27,0.027423
3577.73,0.027447
3580.2,0.027547
3582.68,0.027612
3585.16,0.027602
3587.64,0.027623
3590.12,0.027627
3592.61,0.027617
3595.1,0.027679
3597.6,0.027704
3600.09,0.027748
3602.6,0.027787
3605.1,0.027807
3607.61,0.027878
3610.12,0.027933
3612.64,0.027933
3615.16,0.028003
3617.68,0.028019
3620.21,0.028046
3622.74,0.028084
3625.27,0.028073
3627.81,0.028142
3630.35,0.028162
3632.89,0.028115
3635.44,0.028083
3637.99,0.028145
3640.54,0.028263
3643.1,0.028256
3645.66,0.028279
3648.23,0.028382
3650.8,0.028447
3653.37,0.028442
3655.95,0.028392
3658.53,0.028379
3661.11,0.028405
3663.7,0.02845
3666.29,0.028496
3668.89,0.028542
3671.48,0.028586
3674.09,0.028611
3676.69,0.028609
3679.3,0.028652
3681.91,0.02868
3684.53,0.028734
3687.15,0.028705
3689.78,0.02864
3692.4,0.028734
3695.04,0.02884
3697.67,0.02888
3700.31,0.028843
3702.95,0.028841
3705.6,0.028855
3708.25,0.028825
3710.91,0.028838
3713.56,0.02887
3716.23,0.028855
3718.89,0.028867
3721.56,0.028928
3724.23,0.028972
3726.91,0.028995
3729.59,0.029023
3732.28,0.029085
3734.97,0.029067
3737.66,0.029077
3740.36,0.029161
3743.06,0.029118
3745.76,0.029104
3748.47,0.029086
3751.18,0.029112
3753.9,0.029149
3756.62,0.029216
3759.34,0.029276
3762.07,0.029262
3764.8,0.029245
3767.54,0.029321
3770.28,0.029342
3773.02,0.029303
3775.77,0.029317
3778.52,0.029408
3781.28,0.029442
3784.04,0.029433
3786.8,0.029368
3789.57,0.029342
3792.34,0.029339
3795.12,0.029415
3797.9,0.02948
3800.69,0.029492
3803.47,0.029488
3806.27,0.029447
3809.06,0.029397
3811.86,0.029415
3814.67,0.029422
3817.48,0.029435
3820.29,0.029463
3823.11,0.029531
3825.93,0.029577
3828.76,0.029509
3831.59,0.029531
3834.42,0.029661
3837.26,0.029706
3840.1,0.029692
3842.95,0.029714
3845.8,0.029759
3848.65,0.029797
3851.51,0.029837
3854.38,0.029807
3857.24,0.029716
3860.12,0.029682
3862.99,0.02971
3865.87,0.029747
3868.76,0.029833
3871.65,0.029926
3874.54,0.029915
3877.44,0.029884
3880.34,0.029875
3883.25,0.02983
3886.16,0.02982
3889.07,0.029914
3891.99,0.02995
3894.92,0.029936
3897.85,0.029948
3900.78,0.029963
3903.72,0.029985
3906.66,0.029993
3909.6,0.029976
3912.55,0.029975
3915.51,0.029965
3918.47,0.029965
3921.43,0.029954
3924.4,0.029942
3927.38,0.029934
3930.35,0.029928
3933.33,0.029906
3936.32,0.029933
3939.31,0.030042
3942.31,0.030065
3945.31,0.030026
3948.31,0.029985
3951.32,0.029982
3954.34,0.03001
3957.35,0.030023
3960.38,0.02999
3963.41,0.029965
3966.44,0.03003
3969.48,0.030117
3972.52,0.030132
3975.56,0.030164
3978.61,0.030203
3981.67,0.030144
3984.73,0.030143
3987.8,0.030168
3990.87,0.030233
3993.94,0.030318
3997.02,0.030303
4000.1,0.030302
4003.19,0.030326
4006.29,0.03032
4009.39,0.030337
4012.49,0.030366
4015.6,0.030398
4018.71,0.030399
4021.83,0.030356
4024.95,0.030326
4028.08,0.030422
4031.21,0.03055
4034.35,0.030546
4037.49,0.030466
4040.64,0.030456
4043.79,0.03053
4046.94,0.030568
4050.11,0.030589
4053.27,0.03069
4056.44,0.030638
4059.62,0.030495
4062.8,0.030458
4065.99,0.030485
4069.18,0.030578
4072.38,0.030638
4075.58,0.030639
4078.78,0.030601
4082.0,0.030527
4085.21,0.030487
4088.43,0.030543
4091.66,0.030535
4094.89,0.030545
4098.13,0.030576
4101.37,0.030556
4104.62,0.030536
4107.87,0.030527
4111.13,0.030533
4114.39,0.030536
4117.66,0.03054
4120.93,0.030495
4124.21,0.030528
4127.5,0.030609
4130.79,0.030641
4134.08,0.030576
4137.38,0.030529
4140.68,0.030553
4143.99,0.03057
4147.31,0.030591
4150.63,0.030623
4153.95,0.03065
4157.29,0.030593
4160.62,0.030527
4163.96,0.030512
4167.31,0.030529
4170.66,0.030573
4174.02,0.030589
4177.39,0.030629
4180.75,0.03061
4184.13,0.030551
4187.51,0.030561
4190.89,0.030604
4194.28,0.03058
4197.68,0.030504
4201.08,0.030531
4204.49,0.030573
4207.9,0.030576
4211.32,0.030547
4214.74,0.030537
4218.17,0.030598
4221.61,0.030659
4225.05,0.030621
4228.5,0.030563
4231.95,0.030594
4235.4,0.03057
4238.87,0.030492
4242.34,0.030476
4245.81,0.030537
4249.29,0.03056
4252.78,0.030505
4256.27,0.030526
4259.77,0.030549
4263.27,0.030491
4266.78,0.030516
4270.29,0.030575
4273.81,0.030558
4277.34,0.030501
4280.87,0.030566
4284.41,0.030624
4287.95,0.030637
4291.5,0.030637
4295.06,0.030664
4298.62,0.030659
4302.19,0.0306
4305.76,0.030576
4309.34,0.030583
4312.92,0.03059
4316.52,0.030608
4320.11,0.030649
4323.72,0.030656
4327.32,0.030635
4330.94,0.030677
4334.56,0.030695
4338.19,0.030689
4341.82,0.030693
4345.46,0.030655
4349.11,0.03063
4352.76,0.030644
4356.42,0.030676
4360.08,0.030703
4363.75,0.030707
4367.43,0.030725
4371.11,0.030728
4374.8,0.030731
4378.49,0.030778
4382.19,0.030756
4385.9,0.030765
4389.61,0.030756
4393.33,0.030663
4397.06,0.030633
4400.79,0.030667
4404.53,0.030681
4408.28,0.030726
4412.03,0.030728
4415.79,0.030662
4419.55,0.030696
4423.32,0.030737
4427.1,0.030714
4430.88,0.030702
4434.68,0.03065
4438.47,0.030634
4442.28,0.030656
4446.08,0.030699
4449.9,0.030771
4453.72,0.030799
4457.55,0.030726
4461.39,0.03067
4465.23,0.030714
4469.08,0.030752
4472.94,0.030748
4476.8,0.030746
4480.67,0.030743
4484.55,0.030729
4488.43,0.030755
4492.32,0.03077
4496.21,0.030735
4500.12,0.030757
4504.03,0.030822
4507.94,0.030856
4511.87,0.030816
4515.8,0.030781
4519.73,0.030795
4523.68,0.030829
4527.63,0.030793
4531.59,0.030725
4535.55,0.030691
4539.52,0.030732
4543.5,0.030772
4547.49,0.030758
4551.48,0.030756
4555.48,0.030715
4559.49,0.030671
4563.5,0.030686
4567.52,0.030761
4571.55,0.030799
4575.58,0.030754
4579.63,0.030732
4583.67,0.030779
4587.73,0.03078
4591.79,0.030739
4595.86,0.030705
4599.94,0.030778
4604.03,0.030789
4608.12,0.030745
4612.22,0.030743
4616.33,0.030809
4620.44,0.030838
4624.56,0.030819
4628.69,0.030771
4632.83,0.030725
4636.97,0.03072
4641.12,0.030736
4645.28,0.030779
4649.45,0.030801
4653.62,0.030754
4657.8,0.030741
4661.99,0.030767
4666.19,0.030759
4670.39,0.030773
4674.6,0.030819
4678.82,0.03084
4683.05,0.030865
4687.28,0.03083
4691.52,0.030787
4695.77,0.03085
4700.03,0.030899
4704.3,0.03088
4708.57,0.030858
4712.85,0.030879
4717.14,0.030897
4721.43,0.030851
4725.74,0.0308
4730.05,0.030808
4734.37,0.03085
4738.7,0.030863
4743.03,0.030823
4747.38,0.030849
4751.73,0.030868
4756.09,0.030881
4760.45,0.030926
4764.83,0.030943
4769.21,0.030939
4773.6,0.030927
4778.0,0.030939
4782.41,0.030944
4786.83,0.030925
4791.25,0.030963
4795.68,0.030966
4800.13,0.030936
4804.57,0.030924
4809.03,0.030936
4813.5,0.030976
4817.97,0.030965
4822.45,0.030945
4826.94,0.03095
4831.44,0.030948
4835.95,0.030987
4840.46,0.031023
4844.99,0.031001
4849.52,0.030981
4854.06,0.030991
4858.61,0.030967
4863.17,0.030945
4867.73,0.030986
4872.31,0.031032
4876.89,0.031048
4881.48,0.03108
4886.08,0.03107
4890.69,0.031057
4895.31,0.031076
4899.94,0.031083
4904.57,0.03113
4909.22,0.031159
4913.87,0.031074
4918.53,0.031011
4923.21,0.031046
4927.88,0.031109
4932.57,0.031102
4937.27,0.031098
4941.98,0.031133
4946.69,0.031096
4951.42,0.031079
4956.15,0.031087
4960.9,0.031128
4965.65,0.031169
4970.41,0.031117
4975.18,0.031094
4979.96,0.031097
4984.75,0.031189
4989.54,0.031237
4994.35,0.031185
4999.17,0.031128
5003.99,0.03114
5008.83,0.031129
5013.67,0.031092
5018.52,0.031104
5023.39,0.031135
5028.26,0.031145
5033.14,0.031138
5038.03,0.031125
5042.93,0.031114
5047.84,0.031129
5052.76,0.031089
5057.69,0.031098
5062.63,0.031094
5067.58,0.031093
5072.54,0.03115
5077.51,0.031188
5082.49,0.03116
5087.47,0.03114
5092.47,0.031147
5097.48,0.03116
5102.5,0.031137
5107.52,0.031031
5112.56,0.031011
5117.61,0.031086
5122.66,0.031142
5127.73,0.031118
5132.81,0.031061
5137.89,0.031063
5142.99,0.031039
5148.1,0.031037
5153.22,0.031049
5158.34,0.03104
5163.48,0.030993
5168.63,0.030955
5173.79,0.030965
5178.96,0.030991
5184.13,0.030977
5189.32,0.030944
5194.52,0.030928
5199.73,0.030935
5204.96,0.030931
5210.19,0.0309
5215.43,0.030885
5220.68,0.030896
5225.94,0.030881
5231.22,0.030884
5236.5,0.030851
5241.79,0.030801
5247.1,0.030816
5252.42,0.030868
5257.74,0.030867
5263.08,0.030891
5268.43,0.030874
5273.79,0.030835
5279.16,0.030817
5284.54,0.030776
5289.93,0.030822
5295.34,0.030837
5300.75,0.030801
5306.18,0.030809
5311.61,0.030776
5317.06,0.030722
5322.52,0.030704
5327.99,0.03073
5333.47,0.030754
5338.96,0.030744
5344.47,0.030745
5349.98,0.030729
5355.51,0.03068
5361.05,0.03071
5366.6,0.030739
5372.16,0.030672
5377.73,0.030632
5383.32,0.030649
5388.91,0.030627
5394.52,0.030641
5400.14,0.030661
5405.77,0.03058
5411.41,0.030501
5417.07,0.0305
5422.74,0.03051
5428.41,0.030486
5434.1,0.030482
5439.81,0.030475
5445.52,0.030465
5451.25,0.030429
5456.98,0.030386
5462.73,0.030328
5468.5,0.03028
5474.27,0.030283
5480.06,0.030233
5485.86,0.030177
5491.67,0.030133
5497.49,0.030054
5503.33,0.029986
5509.18,0.029949
5515.04,0.029955
5520.91,0.029951
5526.8,0.029973
5532.69,0.029981
5538.61,0.029946
5544.53,0.029891
5550.47,0.0299
5556.41,0.029897
5562.38,0.029876
5568.35,0.029847
5574.34,0.02981
5580.34,0.029789
5586.35,0.029779
5592.38,0.029744
5598.42,0.029737
5604.47,0.029747
5610.54,0.029686
5616.61,0.029633
5622.71,0.029589
5628.81,0.029565
5634.93,0.029512
5641.06,0.0295
5647.21,0.029473
5653.36,0.029435
5659.54,0.029374
5665.72,0.029285
5671.92,0.029265
5678.13,0.029271
5684.36,0.029221
5690.6,0.029133
5696.85,0.029124
5703.12,0.029131
5709.4,0.029109
5715.69,0.029046
5722.0,0.02896
5728.33,0.028912
5734.66,0.028878
5741.01,0.028776
5747.38,0.028671
5753.76,0.02861
5760.15,0.028512
5766.56,0.028422
5772.98,0.028358
5779.41,0.028239
5785.86,0.028104
5792.33,0.02795
5798.81,0.027786
5805.3,0.027698
5811.81,0.027582
5818.33,0.027393
5824.87,0.027193
5831.42,0.026984
5837.99,0.026822
5844.57,0.026737
5851.17,0.026644
5857.78,0.026561
5864.41,0.02646
5871.05,0.026341
5877.7,0.026191
5884.38,0.026074
5891.06,0.025965
5897.76,0.025901
5904.48,0.025823
5911.21,0.025749
5917.96,0.025694
5924.73,0.025576
5931.5,0.02544
5938.3,0.02536
5945.11,0.025263
5951.93,0.025199
5958.78,0.025196
5965.63,0.025141
5972.51,0.025066
5979.39,0.025023
5986.3,0.025007
5993.22,0.025
6000.16,0.024968
6007.11,0.024911
6014.08,0.024889
6021.06,0.024889
6028.06,0.024845
6035.08,0.024808
6042.12,0.024787
6049.17,0.024787
6056.23,0.024778
6063.32,0.024778
6070.42,0.024765
6077.53,0.024764
6084.67,0.024743
6091.82,0.024753
6098.98,0.024809
6106.17,0.024846
6113.37,0.024866
6120.58,0.024885
6127.82,0.024932
6135.07,0.025002
6142.34,0.025064
6149.63,0.025121
6156.93,0.025154
6164.25,0.025271
6171.59,0.025405
6178.95,0.025445
6186.32,0.025542
6193.71,0.025661
6201.12,0.025727
6208.54,0.025778
6215.99,0.025895
6223.45,0.026002
6230.93,0.026041
6238.43,0.026102
6245.95,0.026212
6253.48,0.026313
6261.03,0.0264
6268.6,0.02651
6276.19,0.0266
6283.8,0.026707
6291.43,0.026801
6299.07,0.026887
6306.73,0.02695
6314.42,0.027002
6322.12,0.027089
6329.84,0.027251
6337.57,0.027465
6345.33,0.027635
6353.11,0.02774
6360.9,0.027847
6368.72,0.027988
6376.55,0.028073
6384.4,0.028132
6392.27,0.02817
6400.17,0.0282
6408.08,0.028258
6416.01,0.028362
6423.96,0.028419
6431.93,0.028459
6439.92,0.028502
6447.93,0.028529
6455.96,0.028583
6464.01,0.028648
6472.08,0.028653
6480.17,0.028654
6488.28,0.028703
6496.41,0.028774
6504.56,0.028805
6512.73,0.028819
6520.92,0.02888
6529.14,0.028878
6537.37,0.028849
6545.63,0.028851
6553.9,0.028875
6562.2,0.028904
6570.51,0.028943
6578.85,0.028986
6587.21,0.028971
6595.59,0.028979
6603.99,0.029046
6612.42,0.029075
6620.86,0.029104
6629.33,0.02916
6637.82,0.029228
6646.33,0.029294
6654.86,0.029323
6663.41,0.029352
6671.99,0.029371
6680.59,0.029393
6689.21,0.029345
6697.85,0.029324
6706.51,0.029328
6715.2,0.029312
6723.91,0.029273
6732.64,0.029235
6741.4,0.029194
6750.18,0.029094
6758.98,0.029035
6767.8,0.028915
6776.65,0.02875
6785.52,0.028644
6794.41,0.028561
6803.33,0.028371
6812.27,0.028196
6821.23,0.028183
6830.22,0.028086
6839.23,0.027947
6848.26,0.027879
6857.32,0.027824
6866.4,0.027791
6875.51,0.027775
6884.64,0.027699
6893.8,0.027612
6902.98,0.027574
6912.18,0.027611
6921.41,0.027651
6930.66,0.027634
6939.94,0.027586
6949.24,0.027537
6958.57,0.027548
6967.92,0.027595
6977.3,0.027592
6986.7,0.027595
6996.13,0.027626
7005.59,0.027625
7015.07,0.027617
7024.57,0.027618
7034.1,0.027677
7043.66,0.027712
7053.25,0.027718
7062.85,0.027734
7072.49,0.027775
7082.15,0.027764
7091.84,0.027779
7101.55,0.02782
7111.3,0.027853
7121.06,0.02795
7130.86,0.028
7140.68,0.028044
7150.53,0.028122
7160.41,0.028198
7170.31,0.028254
7180.24,0.028308
7190.2,0.028352
7200.19,0.028413
7210.2,0.028516
7220.24,0.028621
7230.31,0.028726
7240.41,0.028756
7250.54,0.028809
7260.69,0.028888
7270.88,0.028942
7281.09,0.029075
7291.33,0.029254
7301.6,0.029478
7311.9,0.02969
7322.22,0.029876
7332.58,0.030064
7342.97,0.030251
7353.38,0.030384
7363.83,0.030516
7374.3,0.030655
7384.81,0.030703
7395.34,0.030704
7405.91,0.030746
7416.5,0.030795
7427.13,0.030809
7437.78,0.030763
7448.47,0.030727
7459.19,0.030713
7469.94,0.030698
7480.71,0.030683
7491.52,0.030625
7502.37,0.030536
7513.24,0.030431
7524.14,0.030338
7535.08,0.030267
7546.05,0.030129
7557.05,0.029887
7568.08,0.029699
7579.15,0.029627
7590.24,0.02958
7601.37,0.029565
7612.53,0.02959
7623.73,0.029569
7634.96,0.029515
7646.22,0.02948
7657.51,0.029473
7668.84,0.029464
7680.2,0.029458
7691.59,0.029493
7703.02,0.02954
7714.49,0.029515
7725.98,0.029507
7737.52,0.02957
7749.08,0.029614
7760.68,0.029617
7772.32,0.029609
7783.99,0.029629
7795.69,0.029652
7807.43,0.029603
7819.21,0.029457
7831.02,0.029428
7842.87,0.029442
7854.75,0.029428
7866.67,0.029427
7878.62,0.029411
7890.62,0.029397
7902.64,0.029403
7914.71,0.029372
7926.81,0.029412
7938.95,0.029441
7951.13,0.029363
7963.34,0.029273
7975.59,0.029215
7987.88,0.02912
8000.21,0.029024
8012.57,0.028925
8024.98,0.028798
8037.42,0.028695
8049.9,0.028529
8062.42,0.028418
8074.98,0.028268
8087.57,0.028152
8100.21,0.028105
8112.89,0.027973
8125.6,0.027846
8138.36,0.027805
8151.16,0.027757
8163.99,0.027792
8176.87,0.027786
8189.79,0.027736
8202.75,0.027683
8215.75,0.02765
8228.79,0.027653
8241.87,0.027726
8254.99,0.027756
8268.16,0.027722
8281.37,0.027761
8294.62,0.02782
8307.91,0.027803
8321.24,0.027855
8334.62,0.027924
8348.04,0.027953
8361.51,0.02801
8375.02,0.028137
8388.57,0.028305
8402.16,0.0284
8415.8,0.028497
8429.49,0.028556
8443.22,0.028618
8456.99,0.028688
8470.81,0.028723
8484.67,0.028797
8498.58,0.028848
8512.54,0.028838
8526.54,0.028774
8540.58,0.028766
8554.68,0.028865
8568.82,0.028958
8583.0,0.029048
8597.24,0.029239
8611.52,0.029441
8625.85,0.029606
8640.23,0.029707
8654.65,0.029776
8669.12,0.02985
8683.64,0.029864
8698.21,0.029753
8712.83,0.029591
8727.5,0.029432
8742.22,0.029322
8756.99,0.029269
8771.8,0.029236
8786.67,0.029227
8801.59,0.029311
8816.56,0.029412
8831.58,0.029493
8846.65,0.029645
8861.77,0.029857
8876.94,0.030012
8892.17,0.030176
8907.45,0.030416
8922.78,0.030592
8938.16,0.030724
8953.6,0.030775
8969.09,0.030739
8984.64,0.030778
9000.23,0.030823
9015.89,0.0309
9031.59,0.031065
9047.36,0.031204
9063.17,0.031305
9079.05,0.031433
9094.97,0.03176
9110.96,0.032151
9127.0,0.032464
9143.1,0.032794
9159.25,0.033105
9175.46,0.03346
9191.73,0.033843
9208.06,0.034217
9224.44,0.034525
9240.88,0.034802
9257.38,0.034986
9273.94,0.035045
9290.56,0.035308
9307.24,0.035618
9323.98,0.035968
9340.78,0.036334
9357.64,0.036716
9374.57,0.037177
9391.55,0.037753
9408.59,0.038368
9425.7,0.038901
9442.87,0.039487
9460.1,0.040207
9477.4,0.040925
9494.75,0.041653
9512.17,0.042487
9529.66,0.043326
9547.21,0.044122
9564.83,0.044798
9582.5,0.045375
9600.25,0.045936
9618.06,0.046453
9635.94,0.046958
9653.88,0.047445
9671.89,0.047862
9689.97,0.048261
9708.12,0.048562
9726.33,0.048884
9744.62,0.049182
9762.97,0.04944
9781.39,0.049597
9799.88,0.049572
9818.44,0.04958
9837.07,0.049603
9855.77,0.049525
9874.54,0.049275
9893.39,0.049035
9912.3,0.048762
9931.29,0.048435
9950.36,0.048188
9969.49,0.047994
9988.7,0.047631
10007.98,0.047225
10027.34,0.046878
10046.77,0.046569
10066.28,0.046223
10085.87,0.045898
10105.53,0.045595
10125.26,0.045244
10145.08,0.044884
10164.97,0.044592
10184.94,0.044308
10204.99,0.044037
10225.12,0.043816
10245.33,0.043655
10265.61,0.043493
10285.98,0.043356
10306.43,0.043237
10326.96,0.043032
10347.57,0.042902
10368.27,0.042804
10389.05,0.042644
10409.91,0.042553
10430.86,0.042446
10451.88,0.042318
10473.0,0.042262
10494.2,0.042209
10515.49,0.042088
10536.86,0.042022
10558.32,0.041928
10579.87,0.041925
10601.5,0.04188
10623.23,0.041688
10645.04,0.041533
10666.94,0.04145
10688.94,0.041403
10711.02,0.04129
10733.2,0.041112
10755.47,0.041069
10777.83,0.040962
10800.28,0.040799
10822.83,0.040605
10845.47,0.040498
10868.21,0.040435
10891.04,0.040283
10913.97,0.040152
10936.99,0.039991
10960.12,0.039767
10983.34,0.039659
11006.66,0.039671
11030.07,0.039587
11053.59,0.039569
11077.21,0.039563
11100.93,0.039519
11124.75,0.039472
11148.68,0.039465
11172.71,0.039542
11196.84,0.039723
11221.07,0.03984
11245.41,0.039854
11269.86,0.039924
11294.41,0.03997
11319.07,0.039965
11343.84,0.039985
11368.72,0.040017
11393.7,0.040056
11418.8,0.04006
11444.01,0.040021
11469.33,0.040001
11494.76,0.039943
11520.3,0.039808
11545.96,0.039616
11571.73,0.039519
11597.62,0.039375
11623.62,0.039041
11649.74,0.03883
11675.98,0.038776
11702.34,0.038671
11728.81,0.038488
11755.41,0.03841
11782.13,0.038363
11808.96,0.038249
11835.92,0.038058
11863.01,0.037874
11890.22,0.037837
11917.55,0.037961
11945.01,0.038111
11972.6,0.038199
12000.31,0.038197
12028.16,0.038189
12056.13,0.038182
12084.23,0.038168
12112.46,0.03812
12140.83,0.038049
12169.33,0.037989
12197.96,0.037857
12226.73,0.037755
12255.64,0.037602
12284.68,0.037527
12313.86,0.037492
12343.18,0.037373
12372.64,0.03728
12402.24,0.037223
12431.98,0.037131
12461.86,0.037054
12491.89,0.036991
12522.07,0.036886
12552.38,0.036728
12582.85,0.036741
12613.47,0.036777
12644.23,0.036696
12675.15,0.036601
12706.21,0.03648
12737.43,0.036354
12768.81,0.036317
12800.33,0.036348
12832.02,0.036328
12863.86,0.036222
12895.86,0.036153
12928.02,0.036103
12960.34,0.035989
12992.82,0.035836
13025.46,0.035781
13058.27,0.035729
13091.25,0.035658
13124.39,0.035626
13157.7,0.035504
13191.18,0.035352
13224.83,0.035174
13258.66,0.035043
13292.65,0.035008
13326.83,0.034861
13361.17,0.034637
13395.7,0.034532
13430.4,0.034627
13465.29,0.034606
13500.35,0.034705
13535.6,0.034762
13571.03,0.034638
13606.65,0.034546
13642.46,0.034579
13678.46,0.034653
13714.64,0.034696
13751.02,0.034687
13787.59,0.034688
13824.36,0.034609
13861.32,0.034473
13898.49,0.034389
13935.85,0.034386
13973.41,0.034466
14011.17,0.034482
14049.15,0.034483
14087.32,0.034509
14125.71,0.034443
14164.3,0.034539
14203.11,0.034868
14242.13,0.03501
14281.36,0.034898
14320.81,0.034847
14360.49,0.034977
14400.38,0.035069
14440.49,0.035154
14480.82,0.035303
14521.39,0.03538
14562.18,0.035508
14603.2,0.035723
14644.45,0.035958
14685.93,0.036131
14727.66,0.036263
14769.62,0.036231
14811.81,0.036252
14854.25,0.036386
14896.94,0.036517
14939.87,0.036813
14983.05,0.03691
15026.48,0.036842
15070.16,0.037184
15114.1,0.037498
15158.29,0.037567
15202.74,0.037656
15247.46,0.037756
15292.43,0.037703
15337.68,0.037757
15383.19,0.037885
15428.97,0.037981
15475.03,0.037904
15521.36,0.038041
15567.97,0.038246
15614.87,0.03833
15662.04,0.038213
15709.5,0.038269
15757.25,0.038282
15805.29,0.038173
15853.62,0.038127
15902.26,0.038095
15951.19,0.038118
16000.42,0.03824
16049.95,0.038473
16099.8,0.038841
16149.95,0.039025
16200.42,0.03917
16251.21,0.039643
16302.31,0.040016
16353.74,0.040045
16405.49,0.040139
16457.57,0.040287
16509.98,0.040179
16562.73,0.040018
16615.82,0.040156
16669.24,0.040289
16723.02,0.040101
16777.14,0.03992
16831.61,0.039925
16886.43,0.040038
16941.62,0.039938
16997.16,0.039727
17053.08,0.039745
17109.36,0.039775
17166.01,0.039697
17223.04,0.039648
17280.45,0.039725
17338.24,0.039764
17396.43,0.039735
17455.0,0.039857
17513.97,0.03989
17573.34,0.039916
17633.11,0.039604
17693.29,0.039428
17753.89,0.039456
17814.9,0.039508
17876.33,0.039621
17938.18,0.039496
18000.47,0.039485
18063.19,0.039568
18126.35,0.039549
18189.95,0.039878
18254.0,0.039964
18318.5,0.039949
18383.46,0.040295
18448.88,0.040696
18514.77,0.040937
18581.13,0.040973
18647.97,0.041103
18715.29,0.041661
18783.1,0.042291
18851.4,0.042723
18920.2,0.0435
18989.51,0.044652
19059.32,0.045597
19129.65,0.046128
19200.5,0.047063
19271.88,0.048117
19343.79,0.048692
19416.24,0.04937
19489.23,0.050388
19562.77,0.051315
19636.88,0.05228
19711.54,0.053476
19786.78,0.054407
19862.59,0.055455
19938.98,0.056399
20015.96,0.057062
20093.55,0.058054
20171.73,0.059142
20250.53,0.06009
20329.94,0.061476
20409.98,0.06306
20490.65,0.064023
20571.96,0.065125
20653.92,0.066464
20736.54,0.067425
20819.82,0.068536
20903.77,0.069441
20988.4,0.070701
21073.72,0.07244
21159.73,0.073623
21246.46,0.074446
21333.89,0.074619
21422.04,0.074603
21510.93,0.07444
21600.56,0.074757
21690.94,0.074863
21782.08,0.07462
21873.99,0.074646
21966.67,0.074544
22060.15,0.074605
22154.42,0.075274
22249.51,0.07603
22345.41,0.076685
22442.14,0.077068
22539.72,0.077292
22638.14,0.076888
22737.43,0.076475
22837.6,0.076051
22938.65,0.075224
23040.6,0.074016
23143.46,0.071866
23247.24,0.06997
23351.96,0.068736
23457.63,0.067989
23564.25,0.067304
23671.85,0.066363
23780.44,0.065759
23890.02,0.06484
24000.63,0.06428
24112.26,0.064738
24224.93,0.064464
24338.66,0.064166
24453.47,0.063626
24569.36,0.062961
24686.36,0.06346
24804.47,0.062917
24923.73,0.062169
25044.13,0.061918
25165.71,0.060393
25288.46,0.060995
25412.43,0.062255
25537.61,0.061852
25664.04,0.061174
25791.72,0.061336
25920.68,0
