Database of Origin,University of Winnipeg Spectrophotometer Facility
Sample Description,Carbonates and Oxolates - RELAB+Nicolet spectra Newly merged spectra (merged by RELAB)
Other Information,dry seived
Date Added,2018-08-06 20:49:03.196554

Data ID,RLA_CARB_1_48       
Sample ID,CRB214
Mineral Name,Trona
Locality,Green River/ Sweetwater County/ Wyoming/ USA
Grain Size,45-90 um
Viewing Geometry,30/0/30
Resolution,5/ 0.6-129 nm
Formula,Na3(CO3)(HCO3)*2(H2O)
Composition,Tan fibrous masses.

Wavelength
305.0,0.63932
310.0,0.644348
315.0,0.650824
320.0,0.657266
325.0,0.664544
330.0,0.669431
335.0,0.674765
340.0,0.681368
345.0,0.68566
350.0,0.691971
355.0,0.697556
360.0,0.703412
365.0,0.709751
370.0,0.715585
375.0,0.722013
380.0,0.728416
385.0,0.734417
390.0,0.739535
395.0,0.745348
400.0,0.750091
405.0,0.756043
410.0,0.754044
415.0,0.761035
420.0,0.76403
425.0,0.770056
430.0,0.774066
435.0,0.78108
440.0,0.783396
445.0,0.789358
450.0,0.792261
455.0,0.79748
460.0,0.797339
465.0,0.803367
470.0,0.804754
475.0,0.809222
480.0,0.810977
485.0,0.813864
490.0,0.815923
495.0,0.819757
500.0,0.822282
505.0,0.825363
510.0,0.827422
515.0,0.829898
520.0,0.832284
525.0,0.834868
530.0,0.836705
535.0,0.839407
540.0,0.84071
545.0,0.842994
550.0,0.845349
555.0,0.847703
560.0,0.848484
565.0,0.850622
570.0,0.852686
575.0,0.853563
580.0,0.855565
585.0,0.857008
590.0,0.858478
595.0,0.859278
600.0,0.860026
605.0,0.86061
610.0,0.861077
615.0,0.862487
620.0,0.862078
625.0,0.864549
630.0,0.865239
635.0,0.865001
640.0,0.866225
645.0,0.866592
650.0,0.866156
655.0,0.866217
660.0,0.867359
665.0,0.8674
670.0,0.868132
675.0,0.867639
680.0,0.869501
685.0,0.869251
690.0,0.869964
695.0,0.870177
700.0,0.869789
705.0,0.870387
710.0,0.869144
715.0,0.871166
720.0,0.869514
725.0,0.870459
730.0,0.869686
735.0,0.870605
740.0,0.871792
745.0,0.872552
750.0,0.873252
755.0,0.872736
760.0,0.872765
765.0,0.870177
770.0,0.872169
775.0,0.870156
780.0,0.872339
785.0,0.871382
790.0,0.874174
795.0,0.872392
800.0,0.873884
805.0,0.874314
810.0,0.873629
815.0,0.874408
820.0,0.873238
825.0,0.872843
830.0,0.87341
835.0,0.873641
840.0,0.872637
845.0,0.875147
850.0,0.874722
855.0,0.874834
860.0,0.874551
865.0,0.874644
870.0,0.873758
875.0,0.875503
880.0,0.873026
885.0,0.874323
890.0,0.872193
895.0,0.873369
900.0,0.873373
905.0,0.874065
910.0,0.873261
915.0,0.875023
920.0,0.873724
925.0,0.874633
930.0,0.873747
935.0,0.873914
940.0,0.872707
945.0,0.873028
950.0,0.872703
955.0,0.872299
960.0,0.8724
965.0,0.870154
970.0,0.869425
975.0,0.866996
980.0,0.865252
985.0,0.863368
990.0,0.862403
995.0,0.860882
1000.0,0.859006
1005.0,0.858736
1010.0,0.858693
1015.0,0.857582
1020.0,0.859239
1025.0,0.858769
1030.0,0.860057
1035.0,0.861082
1040.0,0.861735
1045.0,0.862903
1050.0,0.863933
1055.0,0.864348
1060.0,0.864628
1065.0,0.866086
1070.0,0.864783
1075.0,0.865369
1080.0,0.864182
1085.0,0.865873
1090.0,0.865138
1095.0,0.864748
1100.0,0.86471
1105.0,0.86502
1110.0,0.863214
1115.0,0.864124
1120.0,0.862956
1125.0,0.861201
1130.0,0.85941
1135.0,0.860481
1140.0,0.857237
1145.0,0.854282
1150.0,0.85116
1155.0,0.847515
1160.0,0.844457
1165.0,0.836722
1170.0,0.829312
1175.0,0.823112
1180.0,0.817805
1185.0,0.814168
1190.0,0.8101
1195.0,0.806837
1200.0,0.803508
1205.0,0.801254
1210.0,0.801526
1215.0,0.799822
1220.0,0.79789
1225.0,0.798627
1230.0,0.796163
1235.0,0.795501
1240.0,0.794683
1245.0,0.79751
1250.0,0.799113
1255.0,0.798596
1260.0,0.80015
1265.0,0.801373
1270.0,0.802361
1275.0,0.802499
1280.0,0.801226
1285.0,0.800663
1290.0,0.79749
1295.0,0.797353
1300.0,0.794564
1305.0,0.791673
1310.0,0.788715
1315.0,0.786447
1320.0,0.781799
1325.0,0.776524
1330.0,0.776843
1335.0,0.773258
1340.0,0.768093
1345.0,0.767035
1350.0,0.766486
1355.0,0.765401
1360.0,0.764632
1365.0,0.760269
1370.0,0.75978
1375.0,0.757729
1380.0,0.75798
1385.0,0.752657
1420.0,0.723815
1425.0,0.71649
1430.0,0.707584
1435.0,0.695714
1440.0,0.684605
1445.0,0.673324
1450.0,0.662669
1455.0,0.653006
1460.0,0.642042
1465.0,0.632639
1470.0,0.623458
1475.0,0.614721
1480.0,0.606292
1485.0,0.599721
1490.0,0.592727
1495.0,0.586684
1500.0,0.581578
1505.0,0.577593
1510.0,0.575006
1515.0,0.572723
1520.0,0.570966
1525.0,0.569725
1530.0,0.569577
1535.0,0.571991
1540.0,0.578014
1545.0,0.58404
1550.0,0.590903
1555.0,0.596188
1560.0,0.60038
1565.0,0.603867
1570.0,0.60567
1575.0,0.606408
1580.0,0.606399
1585.0,0.605515
1590.0,0.604206
1595.0,0.601988
1600.0,0.600042
1605.0,0.597138
1610.0,0.594302
1615.0,0.591316
1620.0,0.588165
1625.0,0.584505
1630.0,0.581012
1635.0,0.577084
1640.0,0.573605
1645.0,0.569271
1650.0,0.56434
1655.0,0.55933
1660.0,0.554054
1665.0,0.550012
1670.0,0.54441
1675.0,0.538874
1680.0,0.534515
1685.0,0.529287
1690.0,0.524943
1695.0,0.519855
1700.0,0.515815
1705.31,0.510963
1709.81,0.50698
1715.46,0.501942
1720.02,0.497802
1724.6,0.49339
1730.35,0.488402
1734.98,0.484719
1739.64,0.481831
1745.5,0.479279
1750.21,0.478066
1754.95,0.477537
1759.72,0.477428
1764.51,0.477164
1770.54,0.476755
1775.39,0.47622
1780.27,0.475525
1785.17,0.474678
1790.1,0.473681
1795.06,0.472927
1800.05,0.471846
1805.06,0.470778
1810.1,0.469751
1815.17,0.46863
1820.27,0.467636
1825.4,0.466307
1830.56,0.46497
1834.44,0.463679
1839.65,0.461737
1844.89,0.458943
1850.16,0.455591
1855.45,0.45121
1859.45,0.447464
1864.8,0.441811
1870.18,0.435209
1875.59,0.42791
1879.67,0.421687
1885.14,0.412098
1890.64,0.40044
1894.79,0.390049
1900.34,0.374034
1904.53,0.360318
1910.15,0.340255
1914.38,0.324275
1920.05,0.301923
1924.33,0.283891
1930.06,0.260376
1934.38,0.245858
1940.17,0.234163
1944.54,0.23082
1950.39,0.232291
1954.8,0.237207
1960.72,0.24758
1965.18,0.255756
1969.66,0.262177
1975.66,0.268202
1980.19,0.270881
1984.74,0.272878
1989.31,0.273988
1995.43,0.274189
2000.05,0.273147
2004.69,0.271438
2009.35,0.268867
2015.6,0.264597
2020.32,0.260558
2025.05,0.256291
2029.81,0.251687
2034.59,0.248139
2039.39,0.245625
2044.22,0.244797
2050.69,0.245533
2055.57,0.246925
2060.47,0.248843
2065.39,0.251211
2070.34,0.253665
2075.31,0.256466
2080.31,0.259474
2085.33,0.262301
2090.38,0.265343
2095.45,0.268342
2100.54,0.271349
2105.66,0.274274
2110.8,0.276867
2114.25,0.278401
2119.43,0.280306
2124.65,0.282089
2129.88,0.283581
2135.15,0.284593
2140.44,0.285362
2145.75,0.286365
2149.31,0.286994
2154.67,0.287866
2160.06,0.288772
2165.47,0.289166
2170.91,0.289399
2174.55,0.289423
2180.04,0.289089
2185.55,0.288307
2189.25,0.287914
2194.81,0.287092
2200.4,0.286389
2204.14,0.285701
2209.78,0.284134
2215.44,0.282034
2219.24,0.280555
2224.95,0.279454
2230.7,0.281425
2234.54,0.283446
2240.33,0.286319
2244.21,0.28707
2250.06,0.287084
2255.93,0.286367
2259.87,0.285655
2265.79,0.283854
2269.76,0.28271
2275.74,0.280542
2279.74,0.27922
2285.77,0.27652
2289.81,0.274814
2295.9,0.271836
2299.97,0.269789
2304.06,0.267669
2310.22,0.264469
2314.35,0.26233
2320.56,0.258913
2324.72,0.256804
2331.0,0.253737
2335.2,0.251591
2339.41,0.249216
2345.76,0.24562
2350.02,0.242907
2354.28,0.240104
2360.72,0.236153
2365.03,0.233228
2369.35,0.230296
2375.86,0.225142
2380.23,0.221277
2384.61,0.217146
2389.0,0.213373
2395.63,0.209781
2400.06,0.208811
2404.52,0.20826
2408.98,0.207941
2415.72,0.207491
2420.23,0.207474
2424.76,0.207567
2429.3,0.20741
2433.87,0.206947
2440.74,0.205673
2445.35,0.204935
2449.97,0.204395
2454.61,0.204094
2459.27,0.20393
2463.94,0.203679
2470.99,0.203135
2475.71,0.202564
2480.45,0.20237
2485.2,0.20204
2489.98,0.201548
2494.77,0.200965
2499.58,0.200213
2504.41,0.199267
2509.26,0.198286
2514.13,0.197229
2519.02,0.195894
2523.92,0.194505
2528.85,0.193039
2533.79,0.191278
2541.24,0.18866
2543.74,0.187666
2548.74,0.185717
2553.76,0.184131
2556.28,0.183264
2558.8,0.182449
2561.33,0.181651
2563.86,0.180664
2566.4,0.179851
2568.95,0.179154
2571.5,0.178354
2574.05,0.177574
2576.61,0.17655
2579.17,0.175663
2581.74,0.174787
2584.31,0.173731
2586.89,0.172715
2589.48,0.171721
2592.07,0.170695
2594.66,0.169661
2597.26,0.16851
2599.87,0.16733
2602.48,0.166264
2605.09,0.165176
2607.71,0.163913
2610.34,0.16277
2612.97,0.161601
2615.61,0.160448
2618.25,0.159292
2620.9,0.158073
2623.55,0.156919
2626.21,0.155731
2628.87,0.154422
2631.54,0.153284
2634.22,0.152174
2636.89,0.150859
2639.58,0.149709
2642.27,0.148503
2644.97,0.147223
2647.67,0.145993
2650.38,0.14466
2653.09,0.143299
2655.81,0.141982
2658.53,0.140691
2661.26,0.139393
2664.0,0.137981
2666.74,0.136435
2669.48,0.134837
2672.23,0.133269
2674.99,0.131619
2677.76,0.130035
2680.52,0.128488
2683.3,0.126946
2686.08,0.125417
2688.87,0.123669
2691.66,0.121847
2694.46,0.120018
2697.26,0.118082
2700.07,0.116063
2702.89,0.114042
2705.71,0.111755
2708.53,0.109343
2711.37,0.106514
2714.21,0.10356
2717.05,0.100912
2719.9,0.098124
2722.76,0.094932
2725.62,0.091731
2728.49,0.088943
2731.37,0.08633
2734.25,0.083685
2737.14,0.081318
2740.03,0.078948
2742.93,0.07665
2745.83,0.074423
2748.75,0.072247
2751.66,0.070145
2754.59,0.068151
2757.52,0.066442
2760.46,0.064585
2763.4,0.062774
2766.35,0.061129
2769.3,0.059602
2772.26,0.058286
2775.23,0.057008
2778.21,0.055538
2781.19,0.05412
2784.18,0.052676
2787.17,0.051496
2790.17,0.050502
2793.18,0.049191
2796.19,0.048072
2799.21,0.047225
2802.24,0.046265
2805.27,0.04528
2808.31,0.044371
2811.35,0.043475
2814.41,0.042833
2817.46,0.042346
2820.53,0.041769
2823.6,0.041273
2826.68,0.040758
2829.77,0.04029
2832.86,0.039993
2835.96,0.039781
2839.07,0.039305
2842.18,0.038892
2845.3,0.038665
2848.43,0.038453
2851.56,0.038079
2854.7,0.037718
2857.85,0.037489
2861.0,0.037225
2864.16,0.036982
2867.33,0.03681
2870.51,0.036818
2873.69,0.036751
2876.88,0.036641
2880.07,0.036569
2883.28,0.036504
2886.49,0.036384
2889.71,0.035936
2892.93,0.035503
2896.17,0.035046
2899.4,0.034354
2902.65,0.033858
2905.91,0.033637
2909.17,0.03339
2912.44,0.033122
2915.71,0.032868
2918.99,0.032462
2922.29,0.032457
2925.58,0.032433
2928.89,0.032252
2932.2,0.032235
2935.52,0.032143
2938.85,0.031865
2942.19,0.031846
2945.53,0.031972
2948.88,0.031883
2952.24,0.031739
2955.61,0.031741
2958.98,0.031769
2962.36,0.031743
2965.75,0.031651
2969.15,0.031522
2972.55,0.031374
2975.97,0.031359
2979.39,0.031365
2986.25,0.031271
2989.7,0.03138
2993.15,0.031147
2996.61,0.030957
3000.08,0.031072
3003.55,0.030914
3007.04,0.030551
3010.53,0.030293
3014.03,0.031095
3017.54,0.030558
3021.06,0.030335
3024.58,0.030177
3028.12,0.030528
3031.66,0.030022
3035.21,0.030181
3038.77,0.030106
3042.33,0.030309
3045.91,0.030107
3049.49,0.030309
3053.08,0.0311
3056.68,0.030091
3060.29,0.030454
3063.91,0.029734
3067.54,0.03003
3071.17,0.02976
3074.81,0.030282
3078.47,0.029848
3082.13,0.02945
3085.79,0.030149
3089.47,0.029414
3093.16,0.029798
3096.85,0.03008
3100.56,0.029836
3104.27,0.029805
3107.99,0.029891
3111.73,0.030158
3115.47,0.029302
3119.21,0.029909
3122.97,0.030006
3126.74,0.030102
3130.52,0.030212
3134.3,0.029375
3138.1,0.029377
3141.9,0.029942
3145.71,0.029933
3149.54,0.030001
3153.37,0.029853
3157.21,0.030125
3161.06,0.030044
3164.92,0.03006
3168.79,0.02984
3172.67,0.030235
3176.55,0.030239
3180.45,0.03091
3184.36,0.030563
3188.27,0.030368
3192.2,0.030731
3196.14,0.030493
3200.08,0.030706
3204.04,0.030586
3208.0,0.030356
3211.98,0.030639
3215.96,0.031032
3219.96,0.030561
3223.96,0.030758
3227.98,0.03092
3232.0,0.031814
3236.04,0.031365
3240.08,0.03106
3244.14,0.03178
3248.2,0.031227
3252.28,0.031527
3256.37,0.030936
3260.46,0.031522
3264.57,0.031193
3268.69,0.031829
3272.81,0.03141
3276.95,0.031919
3281.1,0.032589
3285.26,0.032493
3289.43,0.032415
3293.61,0.03212
3297.8,0.032635
3302.0,0.033104
3306.21,0.03294
3310.43,0.032522
3314.66,0.033147
3318.91,0.03273
3323.16,0.032804
3327.43,0.033085
3331.71,0.033091
3335.99,0.033206
3340.29,0.033183
3344.6,0.032756
3348.92,0.033611
3353.26,0.033631
3357.6,0.033671
3361.96,0.034423
3366.32,0.033643
3370.7,0.033589
3375.09,0.033732
3379.49,0.033908
3383.9,0.0347
3388.32,0.034135
3392.76,0.034197
3397.21,0.034188
3401.66,0.034731
3406.13,0.034536
3410.61,0.034734
3415.11,0.035082
3419.61,0.035322
3424.13,0.034903
3428.66,0.035083
3433.2,0.034997
3437.76,0.035315
3442.32,0.03489
3446.9,0.034902
3451.49,0.035143
3456.09,0.03547
3460.7,0.035782
3465.33,0.035685
3469.97,0.03629
3474.62,0.0354
3479.29,0.035494
3483.96,0.035389
3488.65,0.035688
3493.35,0.035677
3498.07,0.036114
3502.79,0.036086
3507.53,0.036268
3512.29,0.036428
3517.05,0.036443
3521.83,0.036851
3526.62,0.037127
3531.43,0.03682
3536.24,0.037347
3541.08,0.037102
3543.5,0.03777
3545.92,0.038093
3548.35,0.038034
3550.78,0.038011
3553.21,0.038097
3555.65,0.038064
3558.09,0.038308
3560.53,0.038481
3562.98,0.038336
3565.43,0.038082
3567.88,0.038252
3570.34,0.03798
3572.8,0.037822
3575.27,0.038201
3577.73,0.038433
3580.2,0.038484
3582.68,0.038782
3585.16,0.038867
3587.64,0.038754
3590.12,0.038452
3592.61,0.038108
3595.1,0.038233
3597.6,0.038673
3600.09,0.039177
3602.6,0.039067
3605.1,0.038853
3607.61,0.0387
3610.12,0.038816
3612.64,0.039273
3615.16,0.039348
3617.68,0.038978
3620.21,0.038793
3622.74,0.038934
3625.27,0.03907
3627.81,0.038949
3630.35,0.038972
3632.89,0.039109
3635.44,0.039103
3637.99,0.039195
3640.54,0.039739
3643.1,0.039867
3645.66,0.039493
3648.23,0.039704
3650.8,0.040033
3653.37,0.039826
3655.95,0.03981
3658.53,0.03967
3661.11,0.039509
3663.7,0.039782
3666.29,0.039904
3668.89,0.039801
3671.48,0.040039
3674.09,0.040172
3676.69,0.040102
3679.3,0.039874
3681.91,0.039725
3684.53,0.039948
3687.15,0.039875
3689.78,0.03948
3692.4,0.039078
3695.04,0.039254
3697.67,0.039661
3700.31,0.039685
3702.95,0.039809
3705.6,0.039878
3708.25,0.03987
3710.91,0.039734
3713.56,0.039652
3716.23,0.03955
3718.89,0.039305
3721.56,0.039005
3724.23,0.039073
3726.91,0.039497
3729.59,0.039929
3732.28,0.039961
3734.97,0.039556
3737.66,0.039276
3740.36,0.039563
3743.06,0.039432
3745.76,0.038853
3748.47,0.038785
3751.18,0.039069
3753.9,0.039145
3756.62,0.039256
3759.34,0.039325
3762.07,0.039342
3764.8,0.039379
3767.54,0.039413
3770.28,0.039206
3773.02,0.038984
3775.77,0.038812
3778.52,0.038835
3781.28,0.039125
3784.04,0.039406
3786.8,0.039076
3789.57,0.038706
3792.34,0.039011
3795.12,0.039281
3797.9,0.038926
3800.69,0.038698
3803.47,0.038502
3806.27,0.038736
3809.06,0.039063
3811.86,0.038977
3814.67,0.038636
3817.48,0.038555
3820.29,0.038636
3823.11,0.03853
3825.93,0.038278
3828.76,0.037986
3831.59,0.038071
3834.42,0.038236
3837.26,0.037941
3840.1,0.037601
3842.95,0.037586
3845.8,0.037466
3848.65,0.037763
3851.51,0.038058
3854.38,0.038119
3857.24,0.038183
3860.12,0.037765
3862.99,0.037426
3865.87,0.037433
3868.76,0.037525
3871.65,0.037383
3874.54,0.036983
3877.44,0.036991
3880.34,0.036986
3883.25,0.036957
3886.16,0.037017
3889.07,0.036889
3891.99,0.036924
3894.92,0.03719
3897.85,0.036981
3900.78,0.036522
3903.72,0.036344
3906.66,0.036702
3909.6,0.036875
3912.55,0.036614
3915.51,0.036096
3918.47,0.035877
3921.43,0.036121
3924.4,0.036069
3927.38,0.03592
3930.35,0.035682
3933.33,0.035519
3936.32,0.035586
3939.31,0.035372
3942.31,0.035378
3945.31,0.035483
3948.31,0.035273
3951.32,0.035291
3954.34,0.035382
3957.35,0.035271
3960.38,0.035326
3963.41,0.035321
3966.44,0.034978
3969.48,0.034704
3972.52,0.034971
3975.56,0.035094
3978.61,0.034875
3981.67,0.034683
3984.73,0.034459
3987.8,0.034263
3990.87,0.034164
3993.94,0.034304
3997.02,0.034509
4000.1,0.034619
4003.19,0.034459
4006.29,0.034366
4009.39,0.034341
4012.49,0.034204
4015.6,0.034305
4018.71,0.03443
4021.83,0.034488
4024.95,0.034579
4028.08,0.034759
4031.21,0.034763
4034.35,0.034639
4037.49,0.034522
4040.64,0.034541
4043.79,0.034731
4046.94,0.03481
4050.11,0.034861
4053.27,0.035017
4056.44,0.035073
4059.62,0.034912
4062.8,0.03514
4065.99,0.035159
4069.18,0.034961
4072.38,0.034956
4075.58,0.034962
4078.78,0.03481
4082.0,0.034655
4085.21,0.034447
4088.43,0.034205
4091.66,0.034312
4094.89,0.034497
4098.13,0.034261
4101.37,0.034106
4104.62,0.034158
4107.87,0.034354
4111.13,0.034591
4114.39,0.034814
4117.66,0.034867
4120.93,0.034795
4124.21,0.034845
4127.5,0.035003
4130.79,0.034897
4134.08,0.034608
4137.38,0.034258
4140.68,0.0344
4143.99,0.034615
4147.31,0.0346
4150.63,0.03455
4153.95,0.03478
4157.29,0.035001
4160.62,0.034921
4163.96,0.034676
4167.31,0.034562
4170.66,0.034674
4174.02,0.034779
4177.39,0.034593
4180.75,0.034555
4184.13,0.034599
4187.51,0.034535
4190.89,0.034522
4194.28,0.034457
4197.68,0.034375
4201.08,0.034286
4204.49,0.034261
4207.9,0.034248
4211.32,0.034322
4214.74,0.034375
4218.17,0.034171
4221.61,0.03402
4225.05,0.034102
4228.5,0.033902
4231.95,0.033543
4235.4,0.033434
4238.87,0.033454
4242.34,0.033599
4245.81,0.033655
4249.29,0.03345
4252.78,0.033209
4256.27,0.033285
4259.77,0.033338
4263.27,0.033116
4266.78,0.033145
4270.29,0.03365
4273.81,0.033631
4277.34,0.033293
4280.87,0.033104
4284.41,0.033101
4287.95,0.033088
4291.5,0.033085
4295.06,0.033073
4298.62,0.033062
4302.19,0.03302
4305.76,0.033032
4309.34,0.033292
4312.92,0.033045
4316.52,0.03271
4320.11,0.032719
4323.72,0.032623
4327.32,0.032716
4330.94,0.032813
4334.56,0.032778
4338.19,0.032697
4341.82,0.032428
4345.46,0.032351
4349.11,0.032372
4352.76,0.032184
4356.42,0.032023
4360.08,0.031929
4363.75,0.031942
4367.43,0.032115
4371.11,0.032042
4374.8,0.031678
4378.49,0.03163
4382.19,0.031718
4385.9,0.03174
4389.61,0.03173
4393.33,0.031682
4397.06,0.031626
4400.79,0.031696
4404.53,0.031742
4408.28,0.031753
4412.03,0.031586
4415.79,0.031629
4419.55,0.031753
4423.32,0.031692
4427.1,0.031653
4430.88,0.031939
4434.68,0.031884
4438.47,0.031665
4442.28,0.031812
4446.08,0.031874
4449.9,0.031916
4453.72,0.031968
4457.55,0.032035
4461.39,0.031997
4465.23,0.031795
4469.08,0.031791
4472.94,0.03174
4476.8,0.031947
4480.67,0.032198
4484.55,0.031925
4488.43,0.031881
4492.32,0.03208
4496.21,0.032398
4500.12,0.032572
4504.03,0.032546
4507.94,0.032551
4511.87,0.032452
4515.8,0.032501
4519.73,0.0325
4523.68,0.032511
4527.63,0.032468
4531.59,0.032528
4535.55,0.032615
4539.52,0.032718
4543.5,0.032712
4547.49,0.032629
4551.48,0.032866
4555.48,0.032893
4559.49,0.032842
4563.5,0.032906
4567.52,0.032754
4571.55,0.032775
4575.58,0.033172
4579.63,0.033255
4583.67,0.033108
4587.73,0.033183
4591.79,0.032892
4595.86,0.032833
4599.94,0.033028
4604.03,0.032975
4608.12,0.032837
4612.22,0.032895
4616.33,0.03286
4620.44,0.032732
4624.56,0.032828
4628.69,0.033012
4632.83,0.032838
4636.97,0.032686
4641.12,0.032788
4645.28,0.032921
4649.45,0.032927
4653.62,0.033019
4657.8,0.033
4661.99,0.032784
4666.19,0.032754
4670.39,0.032937
4674.6,0.03286
4678.82,0.032771
4683.05,0.032612
4687.28,0.032516
4691.52,0.032543
4695.77,0.032492
4700.03,0.032397
4704.3,0.032293
4708.57,0.032124
4712.85,0.032132
4717.14,0.031777
4721.43,0.031695
4725.74,0.031882
4730.05,0.031815
4734.37,0.031711
4738.7,0.031501
4743.03,0.031362
4747.38,0.031459
4751.73,0.031455
4756.09,0.031317
4760.45,0.031154
4764.83,0.031053
4769.21,0.031119
4773.6,0.0314
4778.0,0.031346
4782.41,0.031307
4786.83,0.031272
4791.25,0.031139
4795.68,0.030986
4800.13,0.030991
4804.57,0.031069
4809.03,0.031207
4813.5,0.031159
4817.97,0.031276
4822.45,0.031201
4826.94,0.03113
4831.44,0.030904
4835.95,0.030698
4840.46,0.030559
4844.99,0.030457
4849.52,0.030331
4854.06,0.030147
4858.61,0.029987
4863.17,0.030069
4867.73,0.03015
4872.31,0.029953
4876.89,0.0299
4881.48,0.02982
4886.08,0.02999
4890.69,0.02998
4895.31,0.029846
4899.94,0.029793
4904.57,0.029503
4909.22,0.029262
4913.87,0.029285
4918.53,0.029456
4923.21,0.029509
4927.88,0.02935
4932.57,0.029311
4937.27,0.029227
4941.98,0.029241
4946.69,0.029261
4951.42,0.029043
4956.15,0.02892
4960.9,0.029001
4965.65,0.028969
4970.41,0.028893
4975.18,0.028702
4979.96,0.028425
4984.75,0.028433
4989.54,0.028486
4994.35,0.028316
4999.17,0.028217
5003.99,0.028287
5008.83,0.028098
5013.67,0.028109
5018.52,0.028048
5023.39,0.027841
5028.26,0.02788
5033.14,0.02799
5038.03,0.027865
5042.93,0.027758
5047.84,0.027832
5052.76,0.027788
5057.69,0.027638
5062.63,0.027481
5067.58,0.027453
5072.54,0.027545
5077.51,0.027704
5082.49,0.027705
5087.47,0.027504
5092.47,0.02735
5097.48,0.027214
5102.5,0.027029
5107.52,0.026847
5112.56,0.026926
5117.61,0.02713
5122.66,0.027054
5127.73,0.026897
5132.81,0.026809
5137.89,0.026745
5142.99,0.026842
5148.1,0.027121
5153.22,0.026962
5158.34,0.026682
5163.48,0.026544
5168.63,0.026468
5173.79,0.026486
5178.96,0.026401
5184.13,0.026293
5189.32,0.026266
5194.52,0.026302
5199.73,0.026268
5204.96,0.026016
5210.19,0.025892
5215.43,0.025889
5220.68,0.025741
5225.94,0.025693
5231.22,0.025727
5236.5,0.025817
5241.79,0.025871
5247.1,0.025696
5252.42,0.0255
5257.74,0.02535
5263.08,0.025347
5268.43,0.025313
5273.79,0.025244
5279.16,0.025185
5284.54,0.025152
5289.93,0.024968
5295.34,0.024716
5300.75,0.024634
5306.18,0.024746
5311.61,0.024724
5317.06,0.024743
5322.52,0.024775
5327.99,0.024641
5333.47,0.024629
5338.96,0.024745
5344.47,0.024647
5349.98,0.024608
5355.51,0.024594
5361.05,0.024466
5366.6,0.024524
5372.16,0.024668
5377.73,0.024678
5383.32,0.024543
5388.91,0.024381
5394.52,0.024156
5400.14,0.024114
5405.77,0.024242
5411.41,0.024165
5417.07,0.024043
5422.74,0.024135
5428.41,0.024229
5434.1,0.024236
5439.81,0.024029
5445.52,0.023891
5451.25,0.02398
5456.98,0.024018
5462.73,0.02397
5468.5,0.023961
5474.27,0.024055
5480.06,0.024153
5485.86,0.024157
5491.67,0.024075
5497.49,0.024144
5503.33,0.024374
5509.18,0.024399
5515.04,0.024377
5520.91,0.024222
5526.8,0.02423
5532.69,0.024278
5538.61,0.024236
5544.53,0.024381
5550.47,0.024667
5556.41,0.024608
5562.38,0.024549
5568.35,0.024756
5574.34,0.025004
5580.34,0.025085
5586.35,0.025098
5592.38,0.025041
5598.42,0.025005
5604.47,0.02509
5610.54,0.025107
5616.61,0.024885
5622.71,0.025005
5628.81,0.025334
5634.93,0.025644
5641.06,0.025799
5647.21,0.025784
5653.36,0.026137
5659.54,0.026641
5665.72,0.026992
5671.92,0.027365
5678.13,0.027686
5684.36,0.02801
5690.6,0.028313
5696.85,0.028544
5703.12,0.028514
5709.4,0.02872
5715.69,0.029201
5722.0,0.029519
5728.33,0.029752
5734.66,0.030263
5741.01,0.030748
5747.38,0.031047
5753.76,0.031375
5760.15,0.031714
5766.56,0.032219
5772.98,0.032664
5779.41,0.032937
5785.86,0.033223
5792.33,0.033555
5798.81,0.033886
5805.3,0.03401
5811.81,0.034233
5818.33,0.034743
5824.87,0.035055
5831.42,0.035317
5837.99,0.035694
5844.57,0.035864
5851.17,0.036179
5857.78,0.036499
5864.41,0.036595
5871.05,0.036711
5877.7,0.036983
5884.38,0.037151
5891.06,0.037109
5897.76,0.037255
5904.48,0.037296
5911.21,0.037531
5917.96,0.037656
5924.73,0.037418
5931.5,0.037385
5938.3,0.037396
5945.11,0.036936
5951.93,0.036661
5958.78,0.036431
5965.63,0.036014
5972.51,0.035614
5979.39,0.035401
5986.3,0.035394
5993.22,0.034898
6000.16,0.034401
6007.11,0.034134
6014.08,0.033984
6021.06,0.033797
6028.06,0.033343
6035.08,0.032906
6042.12,0.032763
6049.17,0.032886
6056.23,0.032753
6063.32,0.0324
6070.42,0.032307
6077.53,0.032304
6084.67,0.032046
6091.82,0.031679
6098.98,0.031518
6106.17,0.031329
6113.37,0.031193
6120.58,0.030936
6127.82,0.030513
6135.07,0.03048
6142.34,0.030387
6149.63,0.030168
6156.93,0.030024
6164.25,0.029951
6171.59,0.029846
6178.95,0.029763
6186.32,0.029599
6193.71,0.029355
6201.12,0.02903
6208.54,0.028819
6215.99,0.028732
6223.45,0.028527
6230.93,0.028379
6238.43,0.028265
6245.95,0.02813
6253.48,0.028026
6261.03,0.027918
6268.6,0.027768
6276.19,0.027588
6283.8,0.02741
6291.43,0.027189
6299.07,0.027058
6306.73,0.027008
6314.42,0.027067
6322.12,0.027293
6329.84,0.02753
6337.57,0.027301
6345.33,0.027167
6353.11,0.027343
6360.9,0.027744
6368.72,0.028163
6376.55,0.02857
6384.4,0.029146
6392.27,0.029804
6400.17,0.030607
6408.08,0.031231
6416.01,0.032161
6423.96,0.03357
6431.93,0.035053
6439.92,0.036626
6447.93,0.038541
6455.96,0.0407
6464.01,0.043212
6472.08,0.045824
6480.17,0.048606
6488.28,0.050932
6496.41,0.053102
6504.56,0.055291
6512.73,0.056874
6520.92,0.057911
6529.14,0.059403
6537.37,0.060951
6545.63,0.062582
6553.9,0.064241
6562.2,0.065773
6570.51,0.06723
6578.85,0.06876
6587.21,0.070493
6595.59,0.072226
6603.99,0.074
6612.42,0.075794
6620.86,0.07764
6629.33,0.079383
6637.82,0.080861
6646.33,0.082572
6654.86,0.08413
6663.41,0.085463
6671.99,0.086729
6680.59,0.087791
6689.21,0.088418
6697.85,0.089007
6706.51,0.08937
6715.2,0.089592
6723.91,0.089537
6732.64,0.089285
6741.4,0.089247
6750.18,0.089315
6758.98,0.089009
6767.8,0.088577
6776.65,0.088139
6785.52,0.087759
6794.41,0.08734
6803.33,0.086773
6812.27,0.086145
6821.23,0.085757
6830.22,0.085393
6839.23,0.085046
6848.26,0.084589
6857.32,0.084353
6866.4,0.084238
6875.51,0.084143
6884.64,0.084047
6893.8,0.084034
6902.98,0.084206
6912.18,0.084644
6921.41,0.084893
6930.66,0.085334
6939.94,0.086146
6949.24,0.087252
6958.57,0.088535
6967.92,0.090114
6977.3,0.09169
6986.7,0.092856
6996.13,0.09364
7005.59,0.093412
7015.07,0.091629
7024.57,0.089036
7034.1,0.086249
7043.66,0.083161
7053.25,0.07952
7062.85,0.07589
7072.49,0.073226
7082.15,0.072
7091.84,0.071535
7101.55,0.070648
7111.3,0.069024
7121.06,0.067274
7130.86,0.065485
7140.68,0.064001
7150.53,0.062829
7160.41,0.062009
7170.31,0.061287
7180.24,0.060725
7190.2,0.060247
7200.19,0.05967
7210.2,0.059123
7220.24,0.058779
7230.31,0.05829
7240.41,0.057919
7250.54,0.057418
7260.69,0.057031
7270.88,0.056826
7281.09,0.056535
7291.33,0.05628
7301.6,0.055872
7311.9,0.055534
7322.22,0.05538
7332.58,0.055041
7342.97,0.054629
7353.38,0.054255
7363.83,0.054154
7374.3,0.054056
7384.81,0.05387
7395.34,0.05384
7405.91,0.053716
7416.5,0.05354
7427.13,0.053234
7437.78,0.053009
7448.47,0.053088
7459.19,0.05318
7469.94,0.053144
7480.71,0.052924
7491.52,0.052693
7502.37,0.052662
7513.24,0.052585
7524.14,0.052644
7535.08,0.052593
7546.05,0.052502
7557.05,0.052595
7568.08,0.052631
7579.15,0.05249
7590.24,0.052512
7601.37,0.052608
7612.53,0.052654
7623.73,0.052458
7634.96,0.052345
7646.22,0.052472
7657.51,0.052401
7668.84,0.052382
7680.2,0.052403
7691.59,0.052256
7703.02,0.05222
7714.49,0.052358
7725.98,0.052381
7737.52,0.052385
7749.08,0.052255
7760.68,0.052122
7772.32,0.052202
7783.99,0.052177
7795.69,0.052058
7807.43,0.051926
7819.21,0.052059
7831.02,0.052302
7842.87,0.052197
7854.75,0.052086
7866.67,0.05226
7878.62,0.052418
7890.62,0.05257
7902.64,0.052602
7914.71,0.052706
7926.81,0.052895
7938.95,0.052821
7951.13,0.05278
7963.34,0.052838
7975.59,0.053081
7987.88,0.053247
8000.21,0.053317
8012.57,0.05347
8024.98,0.053553
8037.42,0.053433
8049.9,0.053413
8062.42,0.053584
8074.98,0.053697
8087.57,0.053753
8100.21,0.053889
8112.89,0.053869
8125.6,0.053749
8138.36,0.053889
8151.16,0.05417
8163.99,0.054308
8176.87,0.054318
8189.79,0.0544
8202.75,0.05454
8215.75,0.054559
8228.79,0.054383
8241.87,0.054412
8254.99,0.054513
8268.16,0.054374
8281.37,0.054432
8294.62,0.054569
8307.91,0.054418
8321.24,0.054409
8334.62,0.054498
8348.04,0.054577
8361.51,0.054532
8375.02,0.054363
8388.57,0.054362
8402.16,0.054575
8415.8,0.054608
8429.49,0.054652
8443.22,0.05464
8456.99,0.054419
8470.81,0.054022
8484.67,0.054063
8498.58,0.054043
8512.54,0.05388
8526.54,0.053774
8540.58,0.053695
8554.68,0.05361
8568.82,0.053477
8583.0,0.053307
8597.24,0.053222
8611.52,0.05283
8625.85,0.052531
8640.23,0.052557
8654.65,0.052447
8669.12,0.052216
8683.64,0.051911
8698.21,0.051928
8712.83,0.051911
8727.5,0.051393
8742.22,0.051286
8756.99,0.051665
8771.8,0.051614
8786.67,0.051097
8801.59,0.050678
8816.56,0.050459
8831.58,0.050527
8846.65,0.050916
8861.77,0.050941
8876.94,0.050828
8892.17,0.050716
8907.45,0.050551
8922.78,0.050448
8938.16,0.050533
8953.6,0.050648
8969.09,0.050277
8984.64,0.049966
9000.23,0.050052
9015.89,0.050016
9031.59,0.049986
9047.36,0.050026
9063.17,0.049867
9079.05,0.049719
9094.97,0.049778
9110.96,0.049448
9127.0,0.049527
9143.1,0.050093
9159.25,0.050144
9175.46,0.049918
9191.73,0.049662
9208.06,0.049394
9224.44,0.049285
9240.88,0.049174
9257.38,0.0492
9273.94,0.049277
9290.56,0.049313
9307.24,0.04931
9323.98,0.049434
9340.78,0.049614
9357.64,0.049405
9374.57,0.049312
9391.55,0.049468
9408.59,0.04934
9425.7,0.049215
9442.87,0.048984
9460.1,0.048958
9477.4,0.048964
9494.75,0.048563
9512.17,0.047497
9529.66,0.045922
9547.21,0.044417
9564.83,0.043552
9582.5,0.043753
9600.25,0.044331
9618.06,0.045044
9635.94,0.045599
9653.88,0.046214
9671.89,0.046775
9689.97,0.047383
9708.12,0.047727
9726.33,0.047662
9744.62,0.047689
9762.97,0.047595
9781.39,0.047773
9799.88,0.047829
9818.44,0.047683
9837.07,0.047846
9855.77,0.048371
9874.54,0.048474
9893.39,0.048393
9912.3,0.048367
9931.29,0.04843
9950.36,0.048542
9969.49,0.048579
9988.7,0.048797
10007.98,0.048635
10027.34,0.048485
10046.77,0.048511
10066.28,0.048908
10085.87,0.04888
10105.53,0.048632
10125.26,0.048611
10145.08,0.048664
10164.97,0.048718
10184.94,0.048763
10204.99,0.048795
10225.12,0.048885
10245.33,0.04883
10265.61,0.048911
10285.98,0.049139
10306.43,0.049007
10326.96,0.049181
10347.57,0.049504
10368.27,0.049571
10389.05,0.049766
10409.91,0.049644
10430.86,0.049541
10451.88,0.049455
10473.0,0.04917
10494.2,0.049275
10515.49,0.04966
10536.86,0.049675
10558.32,0.049682
10579.87,0.049573
10601.5,0.049279
10623.23,0.049231
10645.04,0.049029
10666.94,0.048869
10688.94,0.049015
10711.02,0.048972
10733.2,0.04919
10755.47,0.049212
10777.83,0.049057
10800.28,0.049297
10822.83,0.049282
10845.47,0.049091
10868.21,0.049135
10891.04,0.048888
10913.97,0.048616
10936.99,0.048503
10960.12,0.048778
10983.34,0.049195
11006.66,0.049192
11030.07,0.048946
11053.59,0.049052
11077.21,0.049002
11100.93,0.048724
11124.75,0.048522
11148.68,0.048807
11172.71,0.049215
11196.84,0.049287
11221.07,0.049291
11245.41,0.049431
11269.86,0.050051
11294.41,0.05182
11319.07,0.054028
11343.84,0.056099
11368.72,0.057498
11393.7,0.058622
11418.8,0.059305
11444.01,0.059272
11469.33,0.059493
11494.76,0.060824
11520.3,0.063464
11545.96,0.067225
11571.73,0.072502
11597.62,0.080042
11623.62,0.089666
11649.74,0.102033
11675.98,0.115736
11702.34,0.127993
11728.81,0.136478
11755.41,0.138386
11782.13,0.130664
11808.96,0.11457
11835.92,0.096192
11863.01,0.081988
11890.22,0.072897
11917.55,0.067633
11945.01,0.064601
11972.6,0.06247
12000.31,0.060602
12028.16,0.059478
12056.13,0.058858
12084.23,0.058078
12112.46,0.057398
12140.83,0.056947
12169.33,0.056574
12197.96,0.056294
12226.73,0.056048
12255.64,0.055961
12284.68,0.05601
12313.86,0.05579
12343.18,0.055119
12372.64,0.054913
12402.24,0.055126
12431.98,0.055272
12461.86,0.055044
12491.89,0.054564
12522.07,0.054411
12552.38,0.054523
12582.85,0.054508
12613.47,0.054323
12644.23,0.054268
12675.15,0.05441
12706.21,0.05469
12737.43,0.054772
12768.81,0.054531
12800.33,0.054133
12832.02,0.053893
12863.86,0.053581
12895.86,0.053072
12928.02,0.052903
12960.34,0.05276
12992.82,0.052483
13025.46,0.052191
13058.27,0.051884
13091.25,0.051426
13124.39,0.050917
13157.7,0.050341
13191.18,0.049781
13224.83,0.049443
13258.66,0.04925
13292.65,0.048692
13326.83,0.048098
13361.17,0.047815
13395.7,0.047392
13430.4,0.046971
13465.29,0.046103
13500.35,0.04546
13535.6,0.045267
13571.03,0.04461
13606.65,0.044017
13642.46,0.043659
13678.46,0.043027
13714.64,0.04248
13751.02,0.042056
13787.59,0.041409
13824.36,0.040891
13861.32,0.040243
13898.49,0.039569
13935.85,0.038964
13973.41,0.038586
14011.17,0.038133
14049.15,0.03729
14087.32,0.036178
14125.71,0.034903
14164.3,0.034261
14203.11,0.033648
14242.13,0.03281
14281.36,0.033012
14320.81,0.033646
14360.49,0.034485
14400.38,0.036513
14440.49,0.039874
14480.82,0.043871
14521.39,0.047752
14562.18,0.05211
14603.2,0.056028
14644.45,0.058529
14685.93,0.060475
14727.66,0.061463
14769.62,0.06126
14811.81,0.060563
14854.25,0.05998
14896.94,0.059779
14939.87,0.05989
14983.05,0.061367
15026.48,0.0643
15070.16,0.067483
15114.1,0.071098
15158.29,0.074665
15202.74,0.076798
15247.46,0.077917
15292.43,0.07854
15337.68,0.078969
15383.19,0.079155
15428.97,0.078969
15475.03,0.078829
15521.36,0.07857
15567.97,0.078666
15614.87,0.079215
15662.04,0.079752
15709.5,0.080031
15757.25,0.080296
15805.29,0.08115
15853.62,0.082291
15902.26,0.083482
15951.19,0.084591
16000.42,0.086212
16049.95,0.088111
16099.8,0.090129
16149.95,0.092808
16200.42,0.095159
16251.21,0.097228
16302.31,0.099958
16353.74,0.102884
16405.49,0.105288
16457.57,0.107091
16509.98,0.109307
16562.73,0.110998
16615.82,0.111766
16669.24,0.113086
16723.02,0.113837
16777.14,0.114242
16831.61,0.115058
16886.43,0.115283
16941.62,0.11531
16997.16,0.115447
17053.08,0.115565
17109.36,0.115242
17166.01,0.114845
17223.04,0.114335
17280.45,0.11404
17338.24,0.114156
17396.43,0.113754
17455.0,0.112732
17513.97,0.111428
17573.34,0.110903
17633.11,0.110161
17693.29,0.109632
17753.89,0.108942
17814.9,0.107966
17876.33,0.106557
17938.18,0.105351
18000.47,0.104839
18063.19,0.103935
18126.35,0.10321
18189.95,0.102418
18254.0,0.101683
18318.5,0.101451
18383.46,0.100701
18448.88,0.099434
18514.77,0.098572
18581.13,0.098364
18647.97,0.097781
18715.29,0.096303
18783.1,0.095615
18851.4,0.095639
18920.2,0.095086
18989.51,0.094107
19059.32,0.092888
19129.65,0.092845
19200.5,0.092509
19271.88,0.091084
19343.79,0.090761
19416.24,0.090079
19489.23,0.089065
19562.77,0.088951
19636.88,0.089398
19711.54,0.089422
19786.78,0.088517
19862.59,0.087524
19938.98,0.087458
20015.96,0.087437
20093.55,0.087074
20171.73,0.086069
20250.53,0.085351
20329.94,0.084947
20409.98,0.084309
20490.65,0.084213
20571.96,0.083931
20653.92,0.083181
20736.54,0.08229
20819.82,0.08247
20903.77,0.083394
20988.4,0.082929
21073.72,0.082745
21159.73,0.082735
21246.46,0.080821
21333.89,0.079642
21422.04,0.080721
21510.93,0.080542
21600.56,0.080723
21690.94,0.080726
21782.08,0.079702
21873.99,0.079313
21966.67,0.080031
22060.15,0.079531
22154.42,0.077948
22249.51,0.078415
22345.41,0.079717
22442.14,0.078923
22539.72,0.078544
22638.14,0.078732
22737.43,0.078245
22837.6,0.077513
22938.65,0.076818
23040.6,0.075228
23143.46,0.074425
23247.24,0.074497
23351.96,0.074446
23457.63,0.074625
23564.25,0.074579
23671.85,0.073645
23780.44,0.071335
23890.02,0.072875
24000.63,0.071892
24112.26,0.069589
24224.93,0.06909
24338.66,0.069804
24453.47,0.069306
24569.36,0.069888
24686.36,0.072463
24804.47,0.069768
24923.73,0.067671
25044.13,0.071628
25165.71,0.067841
25288.46,0.063899
25412.43,0.069845
25537.61,0.074548
25664.04,0.074457
25791.72,0.066888
25920.68,0.05765
