Database of Origin,University of Winnipeg Spectrophotometer Facility
Sample Description,Carbonaceous chondrites - RELAB archive 2. CM chondrites
Date Added,2018-07-23 23:44:50.313418

Data ID,RLA_MET_33_49       
Sample ID,Mighei
Mineral Name,CM Chondrite
Grain Size,<45 um
Viewing Geometry,30/0
Material Class,CM2

Wavelength
305.0,0.019264
310.0,0.019461
315.0,0.019749
320.0,0.020048
325.0,0.020347
330.0,0.020691
335.0,0.020924
340.0,0.021498
345.0,0.022101
350.0,0.022577
355.0,0.022879
360.0,0.023335
365.0,0.023824
370.0,0.024304
375.0,0.024712
380.0,0.025141
385.0,0.025556
390.0,0.025946
395.0,0.026349
400.0,0.026722
405.0,0.027112
410.0,0.027512
415.0,0.02787
420.0,0.028235
425.0,0.028514
430.0,0.028896
435.0,0.029281
440.0,0.029667
445.0,0.030018
450.0,0.030372
455.0,0.030747
460.0,0.031115
465.0,0.031486
470.0,0.031835
475.0,0.032157
480.0,0.032516
485.0,0.032858
490.0,0.033189
495.0,0.033512
500.0,0.033829
505.0,0.034132
510.0,0.034385
515.0,0.034618
520.0,0.034836
525.0,0.03504
530.0,0.035229
535.0,0.035384
540.0,0.035532
545.0,0.035669
550.0,0.035783
555.0,0.035886
560.0,0.035971
565.0,0.036037
570.0,0.036094
575.0,0.036136
580.0,0.036178
585.0,0.0362
590.0,0.036223
595.0,0.036231
600.0,0.03623
605.0,0.036232
610.0,0.03622
615.0,0.036205
620.0,0.036193
625.0,0.03618
630.0,0.036157
635.0,0.036134
640.0,0.036118
645.0,0.036088
650.0,0.036046
655.0,0.036006
660.0,0.035969
665.0,0.035948
670.0,0.03592
675.0,0.035883
680.0,0.035844
685.0,0.035821
690.0,0.035792
695.0,0.035764
700.0,0.035754
705.0,0.035754
710.0,0.035757
715.0,0.035763
720.0,0.035762
725.0,0.035781
730.0,0.035804
735.0,0.035825
740.0,0.035856
745.0,0.035892
750.0,0.035909
755.0,0.035927
760.0,0.035995
765.0,0.036047
770.0,0.036089
775.0,0.036161
780.0,0.036222
785.0,0.036312
790.0,0.036406
795.0,0.03648
800.0,0.036543
805.0,0.036659
810.0,0.036732
815.0,0.036813
820.0,0.036898
825.0,0.03698
830.0,0.037031
835.0,0.037145
840.0,0.037201
845.0,0.037276
850.0,0.037313
855.0,0.037316
860.0,0.037305
865.0,0.03738
870.0,0.0374
875.0,0.037361
880.0,0.037338
885.0,0.037321
890.0,0.037247
895.0,0.0372
900.0,0.037193
905.0,0.037195
910.0,0.037248
915.0,0.037296
920.0,0.037289
925.0,0.037288
930.0,0.037367
935.0,0.037439
940.0,0.03752
945.0,0.037581
950.0,0.037681
955.0,0.037697
960.0,0.03775
965.0,0.037807
970.0,0.037848
975.0,0.037888
980.0,0.037951
985.0,0.03802
990.0,0.038082
995.0,0.038151
1000.0,0.038239
1005.0,0.038286
1010.0,0.038371
1015.0,0.038449
1020.0,0.038532
1025.0,0.038616
1030.0,0.038707
1035.0,0.038784
1040.0,0.038832
1045.0,0.038895
1050.0,0.03895
1055.0,0.038988
1060.0,0.039041
1065.0,0.039089
1070.0,0.039128
1075.0,0.039167
1080.0,0.039211
1085.0,0.039259
1090.0,0.039299
1095.0,0.039354
1100.0,0.039393
1105.0,0.039436
1110.0,0.039487
1115.0,0.039525
1120.0,0.039573
1125.0,0.039631
1130.0,0.039688
1135.0,0.039742
1140.0,0.039798
1145.0,0.039848
1150.0,0.039903
1155.0,0.039982
1160.0,0.040048
1165.0,0.040095
1170.0,0.040158
1175.0,0.04022
1180.0,0.040295
1185.0,0.040342
1190.0,0.040404
1195.0,0.040481
1200.0,0.040542
1205.0,0.040615
1210.0,0.040655
1215.0,0.040718
1220.0,0.040814
1225.0,0.040899
1230.0,0.04096
1235.0,0.041007
1240.0,0.041084
1245.0,0.041153
1250.0,0.041215
1255.0,0.041276
1260.0,0.041342
1265.0,0.041453
1270.0,0.041517
1275.0,0.041584
1280.0,0.04165
1285.0,0.041732
1290.0,0.041828
1295.0,0.041908
1300.0,0.041983
1305.0,0.042051
1310.0,0.042134
1315.0,0.042199
1320.0,0.042233
1325.0,0.042327
1330.0,0.042405
1335.0,0.042497
1340.0,0.042606
1345.0,0.042704
1350.0,0.042799
1355.0,0.042924
1360.0,0.043035
1365.0,0.04312
1370.0,0.043222
1375.0,0.043336
1380.0,0.043406
1385.0,0.043467
1390.0,0.043514
1395.0,0.043561
1400.0,0.043594
1405.0,0.043613
1410.0,0.043614
1415.0,0.043637
1420.0,0.043678
1425.0,0.043711
1430.0,0.043759
1435.0,0.043799
1440.0,0.043866
1445.0,0.043915
1450.0,0.043932
1455.0,0.043994
1460.0,0.044075
1465.0,0.044139
1470.0,0.044192
1475.0,0.044247
1480.0,0.044297
1485.0,0.044346
1490.0,0.044397
1495.0,0.044426
1500.0,0.044516
1505.0,0.04461
1510.0,0.044664
1515.0,0.044726
1520.0,0.044822
1525.0,0.044885
1530.0,0.044993
1535.0,0.045071
1540.0,0.045127
1545.0,0.045203
1550.0,0.04529
1555.0,0.04532
1560.0,0.045372
1565.0,0.045448
1570.0,0.04553
1575.0,0.045591
1580.0,0.045653
1585.0,0.045691
1590.0,0.045774
1595.0,0.045875
1600.0,0.045952
1605.0,0.046011
1610.0,0.046101
1615.0,0.046155
1620.0,0.046192
1625.0,0.04622
1630.0,0.046222
1635.0,0.046279
1640.0,0.046303
1645.0,0.046307
1650.0,0.046298
1655.0,0.046313
1660.0,0.046324
1665.0,0.046344
1670.0,0.046404
1675.0,0.046458
1680.0,0.046509
1685.0,0.046571
1690.0,0.046602
1695.0,0.046661
1700.0,0.046728
1705.0,0.046786
1710.0,0.046844
1715.0,0.046913
1720.0,0.046965
1725.0,0.046984
1730.0,0.047014
1735.0,0.04706
1740.0,0.047107
1745.0,0.047162
1750.0,0.047227
1755.0,0.047272
1760.0,0.047325
1765.0,0.047364
1770.0,0.047414
1775.0,0.047438
1780.0,0.047493
1785.0,0.047531
1790.0,0.047563
1795.0,0.0476
1800.0,0.047623
1805.0,0.047623
1810.0,0.047657
1815.0,0.047683
1820.0,0.047704
1825.0,0.047737
1830.0,0.047775
1835.0,0.047778
1840.0,0.047819
1845.0,0.047862
1850.0,0.047867
1855.0,0.047917
1860.0,0.047988
1865.0,0.04803
1870.0,0.048042
1875.0,0.048104
1880.0,0.048142
1885.0,0.048182
1890.0,0.048211
1895.0,0.048221
1900.0,0.048243
1905.0,0.04831
1910.0,0.048339
1915.0,0.048368
1920.0,0.048404
1925.0,0.048478
1930.0,0.048506
1935.0,0.048553
1940.0,0.048598
1945.0,0.048695
1950.0,0.048775
1955.0,0.048836
1960.0,0.048888
1965.0,0.048952
1970.0,0.049021
1975.0,0.049097
1980.0,0.049165
1985.0,0.049226
1990.0,0.049292
1995.0,0.049381
2000.0,0.049434
2005.0,0.049503
2010.0,0.049575
2015.0,0.049665
2020.0,0.04974
2025.0,0.0498
2030.0,0.049862
2035.0,0.04995
2040.0,0.050052
2045.0,0.050121
2050.0,0.050181
2055.0,0.050266
2060.0,0.05037
2065.0,0.050483
2070.0,0.050577
2075.0,0.050644
2080.0,0.050746
2085.0,0.050801
2090.0,0.05087
2095.0,0.050973
2100.0,0.051059
2105.0,0.051152
2110.0,0.051245
2115.0,0.051308
2120.0,0.051369
2125.0,0.051431
2130.0,0.051527
2135.0,0.051593
2140.0,0.051686
2145.0,0.051757
2150.0,0.051792
2155.0,0.051853
2160.0,0.051885
2165.0,0.051894
2170.0,0.051922
2175.0,0.051931
2180.0,0.051964
2185.0,0.051975
2190.0,0.051983
2195.0,0.052015
2200.0,0.051998
2205.0,0.052025
2210.0,0.052075
2215.0,0.052134
2220.0,0.052208
2225.0,0.052264
2230.0,0.052329
2235.0,0.052369
2240.0,0.052462
2245.0,0.052553
2250.0,0.052612
2255.0,0.052695
2260.0,0.052742
2265.0,0.052767
2270.0,0.052746
2275.0,0.052721
2280.0,0.052708
2285.0,0.052702
2290.0,0.052702
2295.0,0.052687
2300.0,0.052672
2305.0,0.052642
2310.0,0.052658
2315.0,0.05269
2320.0,0.052721
2325.0,0.052807
2330.0,0.052888
2335.0,0.052973
2340.0,0.053034
2345.0,0.0531
2350.0,0.053157
2355.0,0.053221
2360.0,0.053319
2365.0,0.053374
2370.0,0.053426
2375.0,0.053475
2380.0,0.053527
2385.0,0.053595
2390.0,0.053665
2395.0,0.053744
2400.0,0.053804
2405.0,0.05385
2410.0,0.053883
2415.0,0.053914
2420.0,0.053973
2425.0,0.053989
2430.0,0.054031
2435.0,0.054031
2440.0,0.054034
2445.0,0.054077
2450.0,0.054112
2455.0,0.05415
2460.0,0.054192
2465.0,0.054213
2470.0,0.05422
2475.0,0.054272
2480.0,0.054321
2485.0,0.054371
2490.0,0.054431
2495.0,0.054478
2500.0,0.054502
2505.0,0.054598
2510.0,0.05463
2515.0,0.054667
2520.0,0.054737
2525.0,0.054758
2530.0,0.054697
2535.0,0.054717
2540.0,0.054644
2545.0,0.054639
2550.0,0.054645
2555.0,0.054595
2560.0,0.054497
2565.0,0.054401
2570.0,0.054319
2575.0,0.054179
2580.0,0.054102
2585.0,0.054032
2590.0,0.053914
2595.0,0.053865
2600.0,0.053777
