Database of Origin,University of Winnipeg Spectrophotometer Facility
Sample Description,Carbonaceous chondrites - RELAB archive 2. CM chondrites
Other Information,spun laser- irradiated
Date Added,2018-07-23 23:44:50.196399

Data ID,RLA_MET_33_42       
Sample ID,Mighei 4d
Mineral Name,CM Chondrite
Grain Size,75-125 um
Viewing Geometry,30/0
Material Class,CM2

Wavelength
305.0,0.02228
310.0,0.02357
315.0,0.02483
320.0,0.02533
325.0,0.02583
330.0,0.02628
335.0,0.02656
340.0,0.02699
345.0,0.02737
350.0,0.02763
355.0,0.02784
360.0,0.02804
365.0,0.02818
370.0,0.02833
375.0,0.02851
380.0,0.02867
385.0,0.0289
390.0,0.02903
395.0,0.02911
400.0,0.02912
405.0,0.0291
410.0,0.02932
415.0,0.02955
420.0,0.0296
425.0,0.0299
430.0,0.03006
435.0,0.0302
440.0,0.0304
445.0,0.0306
450.0,0.03074
455.0,0.03092
460.0,0.03105
465.0,0.03126
470.0,0.03143
475.0,0.03159
480.0,0.03179
485.0,0.03206
490.0,0.03222
495.0,0.03238
500.0,0.03261
505.0,0.03276
510.0,0.03301
515.0,0.03323
520.0,0.03339
525.0,0.03362
530.0,0.03386
535.0,0.03412
540.0,0.03434
545.0,0.03452
550.0,0.03466
555.0,0.03478
560.0,0.03496
565.0,0.03506
570.0,0.03521
575.0,0.03535
580.0,0.03547
585.0,0.03559
590.0,0.03573
595.0,0.03587
600.0,0.03597
605.0,0.03614
610.0,0.03636
615.0,0.03655
620.0,0.03677
625.0,0.03692
630.0,0.03706
635.0,0.0372
640.0,0.03733
645.0,0.03744
650.0,0.03752
655.0,0.03756
660.0,0.0376
665.0,0.03757
670.0,0.03762
675.0,0.03764
680.0,0.03769
685.0,0.03774
690.0,0.03778
695.0,0.03787
700.0,0.03792
705.0,0.038
710.0,0.03804
715.0,0.03815
720.0,0.03819
725.0,0.03832
730.0,0.03846
735.0,0.03854
740.0,0.03861
745.0,0.03874
750.0,0.03881
755.0,0.03889
760.0,0.03903
765.0,0.03912
770.0,0.03919
775.0,0.03925
780.0,0.03932
785.0,0.03951
790.0,0.03965
795.0,0.03973
800.0,0.03983
805.0,0.03992
810.0,0.03992
815.0,0.03997
820.0,0.04011
825.0,0.04018
830.0,0.04029
835.0,0.04032
840.0,0.04044
845.0,0.04046
850.0,0.04057
855.0,0.04065
860.0,0.04066
865.0,0.04072
870.0,0.04081
875.0,0.04085
880.0,0.04083
885.0,0.04088
890.0,0.04092
895.0,0.0409
900.0,0.04095
905.0,0.04095
910.0,0.04103
915.0,0.04106
920.0,0.04111
925.0,0.04123
930.0,0.04133
935.0,0.04135
940.0,0.04143
945.0,0.04153
950.0,0.0415
955.0,0.0415
960.0,0.04157
965.0,0.04159
970.0,0.04161
975.0,0.04164
980.0,0.04171
985.0,0.04179
990.0,0.04188
995.0,0.04195
1000.0,0.04202
1005.0,0.04211
1010.0,0.0421
1015.0,0.04208
1020.0,0.04205
1025.0,0.04205
1030.0,0.04208
1035.0,0.04223
1040.0,0.04233
1045.0,0.04241
1050.0,0.04256
1055.0,0.04267
1060.0,0.04264
1065.0,0.0427
1070.0,0.0428
1075.0,0.04279
1080.0,0.04284
1085.0,0.04294
1090.0,0.04293
1095.0,0.04293
1100.0,0.04295
1105.0,0.04294
1110.0,0.04297
1115.0,0.04307
1120.0,0.04308
1125.0,0.04317
1130.0,0.04326
1135.0,0.04334
1140.0,0.04334
1145.0,0.04344
1150.0,0.04353
1155.0,0.04354
1160.0,0.04356
1165.0,0.04366
1170.0,0.04376
1175.0,0.04383
1180.0,0.04394
1185.0,0.04404
1190.0,0.04411
1195.0,0.04414
1200.0,0.0442
1205.0,0.04427
1210.0,0.04439
1215.0,0.04448
1220.0,0.04455
1225.0,0.0446
1230.0,0.04465
1235.0,0.04465
1240.0,0.04466
1245.0,0.04472
1250.0,0.04471
1255.0,0.04473
1260.0,0.04479
1265.0,0.04482
1270.0,0.04486
1275.0,0.04495
1280.0,0.04501
1285.0,0.04503
1290.0,0.04515
1295.0,0.04524
1300.0,0.04527
1305.0,0.0453
1310.0,0.04541
1315.0,0.04545
1320.0,0.04548
1325.0,0.04556
1330.0,0.04564
1335.0,0.0457
1340.0,0.04587
1345.0,0.04602
1350.0,0.04615
1355.0,0.04629
1360.0,0.04642
1365.0,0.04643
1370.0,0.04649
1375.0,0.04653
1380.0,0.04658
1385.0,0.0467
1390.0,0.04677
1395.0,0.04679
1400.0,0.04686
1405.0,0.04694
1410.0,0.04693
1415.0,0.04698
1420.0,0.04702
1425.0,0.04707
1430.0,0.04711
1435.0,0.04716
1440.0,0.04724
1445.0,0.04733
1450.0,0.04731
1455.0,0.04733
1460.0,0.04742
1465.0,0.04743
1470.0,0.04746
1475.0,0.04757
1480.0,0.04765
1485.0,0.04765
1490.0,0.04774
1495.0,0.04779
1500.0,0.04784
1505.0,0.04788
1510.0,0.04796
1515.0,0.04796
1520.0,0.04802
1525.0,0.04811
1530.0,0.04813
1535.0,0.04821
1540.0,0.04828
1545.0,0.04832
1550.0,0.04836
1555.0,0.04844
1560.0,0.04847
1565.0,0.04855
1570.0,0.04863
1575.0,0.04866
1580.0,0.04872
1585.0,0.04884
1590.0,0.04895
1595.0,0.049
1600.0,0.04907
1605.0,0.04911
1610.0,0.04916
1615.0,0.04916
1620.0,0.04918
1625.0,0.04918
1630.0,0.04923
1635.0,0.04922
1640.0,0.04926
1645.0,0.04932
1650.0,0.04941
1655.0,0.04948
1660.0,0.04957
1665.0,0.04963
1670.0,0.04965
1675.0,0.0497
1680.0,0.04972
1685.0,0.04972
1690.0,0.04972
1695.0,0.04977
1700.0,0.04983
1705.0,0.04987
1710.0,0.04994
1715.0,0.05
1720.0,0.05013
1725.0,0.0502
1730.0,0.05025
1735.0,0.05032
1740.0,0.05037
1745.0,0.05039
1750.0,0.0504
1755.0,0.05044
1760.0,0.05045
1765.0,0.05045
1770.0,0.05045
1775.0,0.05049
1780.0,0.05055
1785.0,0.05065
1790.0,0.05075
1795.0,0.05078
1800.0,0.05083
1805.0,0.05092
1810.0,0.05092
1815.0,0.05094
1820.0,0.05106
1825.0,0.0511
1830.0,0.05117
1835.0,0.05121
1840.0,0.05125
1845.0,0.05127
1850.0,0.05127
1855.0,0.05127
1860.0,0.0514
1865.0,0.05139
1870.0,0.05138
1875.0,0.05144
1880.0,0.05149
1885.0,0.0514
1890.0,0.05157
1895.0,0.05159
1900.0,0.05157
1905.0,0.05152
1910.0,0.05152
1915.0,0.05144
1920.0,0.05144
1925.0,0.05149
1930.0,0.05157
1935.0,0.05162
1940.0,0.05164
1945.0,0.05167
1950.0,0.05175
1955.0,0.05179
1960.0,0.0519
1965.0,0.05195
1970.0,0.05206
1975.0,0.05207
1980.0,0.05216
1985.0,0.05215
1990.0,0.05214
1995.0,0.05221
2000.0,0.05225
2005.0,0.05218
2010.0,0.05221
2015.0,0.05231
2020.0,0.05232
2025.0,0.05237
2030.0,0.05244
2035.0,0.05244
2040.0,0.05247
2045.0,0.05248
2050.0,0.05251
2055.0,0.05257
2060.0,0.05265
2065.0,0.05272
2070.0,0.05275
2075.0,0.05276
2080.0,0.05282
2085.0,0.05284
2090.0,0.05285
2095.0,0.05286
2100.0,0.05291
2105.0,0.05294
2110.0,0.05296
2115.0,0.05299
2120.0,0.05308
2125.0,0.05307
2130.0,0.05303
2135.0,0.0531
2140.0,0.05316
2145.0,0.05317
2150.0,0.05324
2155.0,0.0533
2160.0,0.05331
2165.0,0.05336
2170.0,0.05343
2175.0,0.05351
2180.0,0.05357
2185.0,0.05366
2190.0,0.05372
2195.0,0.05379
2200.0,0.05384
2205.0,0.05394
2210.0,0.05399
2215.0,0.05399
2220.0,0.05399
2225.0,0.05403
2230.0,0.05402
2235.0,0.05405
2240.0,0.05411
2245.0,0.05414
2250.0,0.05413
2255.0,0.05421
2260.0,0.0542
2265.0,0.0542
2270.0,0.05426
2275.0,0.05434
2280.0,0.05437
2285.0,0.05442
2290.0,0.05447
2295.0,0.05447
2300.0,0.05442
2305.0,0.05438
2310.0,0.05435
2315.0,0.05436
2320.0,0.05434
2325.0,0.05439
2330.0,0.05439
2335.0,0.05442
2340.0,0.05448
2345.0,0.05458
2350.0,0.05459
2355.0,0.05466
2360.0,0.05472
2365.0,0.05476
2370.0,0.05475
2375.0,0.05488
2380.0,0.05491
2385.0,0.05496
2390.0,0.05492
2395.0,0.05496
2400.0,0.05492
2405.0,0.05496
2410.0,0.05506
2415.0,0.05507
2420.0,0.05511
2425.0,0.05515
2430.0,0.05526
2435.0,0.05529
2440.0,0.05535
2445.0,0.05533
2450.0,0.05532
2455.0,0.05525
2460.0,0.05517
2465.0,0.05519
2470.0,0.0553
2475.0,0.05532
2480.0,0.05534
2485.0,0.05538
2490.0,0.05544
2495.0,0.05541
2500.0,0.05547
2505.0,0.05548
2510.0,0.05549
2515.0,0.05549
2520.0,0.05553
2525.0,0.05545
2530.0,0.0554
2535.0,0.05553
2540.0,0.05554
2545.0,0.05541
2550.0,0.05552
2555.0,0.05556
2560.0,0.05549
2565.0,0.05549
2570.0,0.05555
2575.0,0.05572
2580.0,0.05554
2585.0,0.05575
2590.0,0.05551
2595.0,0.05513
2600.0,0.05539
