Database of Origin,University of Winnipeg Spectrophotometer Facility
Sample Description,16.3. Lab heated meteorites - RELAB spectra 16.3.4. Abee enstatite chondrite Most heated in 10-5 H2 for one week RELAB archive
Other Information,Heated 900C
Date Added,2018-07-23 23:37:33.490569

Data ID,RLA_MET_17_7        
Sample ID,Abee
Mineral Name,Abee E Chondrite
Locality,Abee
Grain Size,<125 um
Viewing Geometry,30/0
Resolution,5 nm

Wavelength
305.0,0.060438
310.0,0.061196
315.0,0.061985
320.0,0.063096
325.0,0.064181
330.0,0.064332
335.0,0.064492
340.0,0.06573
345.0,0.065764
350.0,0.0658
355.0,0.065216
360.0,0.065749
365.0,0.06574
370.0,0.065763
375.0,0.065386
380.0,0.065041
385.0,0.065757
390.0,0.065302
395.0,0.065378
400.0,0.065567
405.0,0.066002
410.0,0.065851
415.0,0.065679
420.0,0.065783
425.0,0.065797
430.0,0.06579
435.0,0.065908
440.0,0.065905
445.0,0.065976
450.0,0.065889
455.0,0.065931
460.0,0.066001
465.0,0.066229
470.0,0.066321
475.0,0.066392
480.0,0.066547
485.0,0.066594
490.0,0.066943
495.0,0.066925
500.0,0.067039
505.0,0.067078
510.0,0.067155
515.0,0.067284
520.0,0.067221
525.0,0.067352
530.0,0.067632
535.0,0.067753
540.0,0.067923
545.0,0.067933
550.0,0.068167
555.0,0.068265
560.0,0.068239
565.0,0.068346
570.0,0.068493
575.0,0.06847
580.0,0.068533
585.0,0.068537
590.0,0.068501
595.0,0.068759
600.0,0.068697
605.0,0.068922
610.0,0.069281
615.0,0.069396
620.0,0.06958
625.0,0.069782
630.0,0.069947
635.0,0.07004
640.0,0.07012
645.0,0.070136
650.0,0.070231
655.0,0.070278
660.0,0.070321
665.0,0.070207
670.0,0.069977
675.0,0.070101
680.0,0.070117
685.0,0.070081
690.0,0.070182
695.0,0.070067
700.0,0.070257
705.0,0.070155
710.0,0.070198
715.0,0.070345
720.0,0.07033
725.0,0.070189
730.0,0.070197
735.0,0.070286
740.0,0.069982
745.0,0.07029
750.0,0.070198
755.0,0.070534
760.0,0.071055
765.0,0.070224
770.0,0.070688
775.0,0.070879
780.0,0.070271
785.0,0.070594
790.0,0.070946
795.0,0.070846
800.0,0.071615
805.0,0.070937
810.0,0.070608
815.0,0.070473
820.0,0.070782
825.0,0.070761
830.0,0.070866
835.0,0.070928
840.0,0.071146
845.0,0.071874
850.0,0.071625
855.0,0.072224
860.0,0.071203
865.0,0.072272
870.0,0.072371
875.0,0.072645
880.0,0.07179
885.0,0.072065
890.0,0.071815
895.0,0.072322
900.0,0.072411
905.0,0.073126
910.0,0.073079
915.0,0.072757
920.0,0.072423
925.0,0.072943
930.0,0.073381
935.0,0.073181
940.0,0.072887
945.0,0.073396
950.0,0.072942
955.0,0.073204
960.0,0.073752
965.0,0.073339
970.0,0.073906
975.0,0.07377
980.0,0.074076
985.0,0.074038
990.0,0.074188
995.0,0.074282
1000.0,0.07419
1005.0,0.074646
1010.0,0.074461
1015.0,0.074783
1020.0,0.074494
1025.0,0.074703
1030.0,0.075023
1035.0,0.074873
1040.0,0.074923
1045.0,0.074868
1050.0,0.075039
1055.0,0.075051
1060.0,0.075837
1065.0,0.075819
1070.0,0.07549
1075.0,0.075363
1080.0,0.075672
1085.0,0.075547
1090.0,0.076018
1095.0,0.075962
1100.0,0.075885
1105.0,0.07632
1110.0,0.076045
1115.0,0.076683
1120.0,0.076264
1125.0,0.076242
1130.0,0.076389
1135.0,0.076678
1140.0,0.076778
1145.0,0.076661
1150.0,0.077163
1155.0,0.076919
1160.0,0.077015
1165.0,0.077124
1170.0,0.077451
1175.0,0.077487
1180.0,0.077393
1185.0,0.077649
1190.0,0.077647
1195.0,0.077928
1200.0,0.077774
1205.0,0.07745
1210.0,0.077361
1215.0,0.077308
1220.0,0.077714
1225.0,0.077549
1230.0,0.077575
1235.0,0.078
1240.0,0.077739
1245.0,0.078147
1250.0,0.078097
1255.0,0.077812
1260.0,0.078183
1265.0,0.07808
1270.0,0.078103
1275.0,0.078085
1280.0,0.078105
1285.0,0.078013
1290.0,0.078067
1295.0,0.078195
1300.0,0.078077
1305.0,0.078422
1310.0,0.078215
1315.0,0.078188
1320.0,0.078331
1325.0,0.078589
1330.0,0.078593
1335.0,0.078177
1340.0,0.078545
1345.0,0.078779
1350.0,0.078876
1355.0,0.079314
1360.0,0.07966
1365.0,0.079571
1370.0,0.079364
1375.0,0.079522
1380.0,0.080253
1385.0,0.079597
1390.0,0.079617
1395.0,0.079865
1400.0,0.079633
1405.0,0.079427
1410.0,0.079188
1415.0,0.079306
1420.0,0.079729
1425.0,0.079197
1430.0,0.079461
1435.0,0.079731
1440.0,0.079385
1445.0,0.079633
1450.0,0.079698
1455.0,0.079794
1460.0,0.079975
1465.0,0.079821
1470.0,0.080343
1475.0,0.080104
1480.0,0.080365
1485.0,0.080361
1490.0,0.080038
1495.0,0.080115
1500.0,0.080436
1505.0,0.080245
1510.0,0.080801
1515.0,0.080851
1520.0,0.080728
1525.0,0.080585
1530.0,0.081043
1535.0,0.080851
1540.0,0.080603
1545.0,0.081063
1550.0,0.081371
1555.0,0.081165
1560.0,0.081441
1565.0,0.081414
1570.0,0.081786
1575.0,0.08163
1580.0,0.081924
1585.0,0.081896
1590.0,0.082184
1595.0,0.082383
1600.0,0.082031
1605.0,0.082082
1610.0,0.082463
1615.0,0.082888
1620.0,0.082799
1625.0,0.083043
1630.0,0.082645
1635.0,0.082905
1640.0,0.083379
1645.0,0.082962
1650.0,0.083282
1655.0,0.083078
1660.0,0.083613
1665.0,0.083609
1670.0,0.083187
1675.0,0.083796
1680.0,0.084081
1685.0,0.083741
1690.0,0.083923
1695.0,0.08384
1700.0,0.084049
1705.0,0.0846
1710.0,0.084412
1715.0,0.084313
1720.0,0.08453
1725.0,0.084723
1730.0,0.084891
1735.0,0.084487
1740.0,0.084835
1745.0,0.08483
1750.0,0.084822
1755.0,0.084884
1760.0,0.084851
1765.0,0.084991
1770.0,0.085293
1775.0,0.085167
1780.0,0.085276
1785.0,0.085373
1790.0,0.085144
1795.0,0.085324
1800.0,0.085427
1805.0,0.085602
1810.0,0.08529
1815.0,0.085444
1820.0,0.085366
1825.0,0.085359
1830.0,0.085608
1835.0,0.085418
1840.0,0.085336
1845.0,0.085534
1850.0,0.085945
1855.0,0.085517
1860.0,0.085808
1865.0,0.085849
1870.0,0.085983
1875.0,0.086243
1880.0,0.085953
1885.0,0.086402
1890.0,0.086179
1895.0,0.086348
1900.0,0.086468
1905.0,0.086827
1910.0,0.086987
1915.0,0.086908
1920.0,0.08719
1925.0,0.087068
1930.0,0.08702
1935.0,0.087166
1940.0,0.08731
1945.0,0.087568
1950.0,0.087726
1955.0,0.087574
1960.0,0.087459
1965.0,0.087979
1970.0,0.087659
1975.0,0.087856
1980.0,0.088037
1985.0,0.088008
1990.0,0.088158
1995.0,0.088407
2000.0,0.088432
2005.0,0.088402
2010.0,0.088672
2015.0,0.088947
2020.0,0.088754
2025.0,0.08895
2030.0,0.08895
2035.0,0.08908
2040.0,0.089261
2045.0,0.089402
2050.0,0.089513
2055.0,0.089226
2060.0,0.089491
2065.0,0.089429
2070.0,0.089547
2075.0,0.089309
2080.0,0.089539
2085.0,0.090097
2090.0,0.090224
2095.0,0.089751
2100.0,0.089829
2105.0,0.090261
2110.0,0.090199
2115.0,0.090057
2120.0,0.090218
2125.0,0.090104
2130.0,0.090956
2135.0,0.090466
2140.0,0.090353
2145.0,0.090451
2150.0,0.090321
2155.0,0.090808
2160.0,0.090675
2165.0,0.090615
2170.0,0.090848
2175.0,0.090826
2180.0,0.090981
2185.0,0.091142
2190.0,0.0912
2195.0,0.091048
2200.0,0.091332
2205.0,0.09142
2210.0,0.091558
2215.0,0.091939
2220.0,0.091636
2225.0,0.092248
2230.0,0.091727
2235.0,0.092231
2240.0,0.092346
2245.0,0.092578
2250.0,0.092724
2255.0,0.09283
2260.0,0.09248
2265.0,0.092725
2270.0,0.092837
2275.0,0.092936
2280.0,0.093071
2285.0,0.093211
2290.0,0.093317
2295.0,0.093077
2300.0,0.092654
2305.0,0.094046
2310.0,0.093629
2315.0,0.093472
2320.0,0.093626
2325.0,0.093643
2330.0,0.09367
2335.0,0.09384
2340.0,0.094036
2345.0,0.093862
2350.0,0.094159
2355.0,0.093685
2360.0,0.093647
2365.0,0.093606
2370.0,0.093953
2375.0,0.093977
2380.0,0.093978
2385.0,0.093921
2390.0,0.093778
2395.0,0.094211
2400.0,0.094159
2405.0,0.094295
2410.0,0.094247
2415.0,0.094265
2420.0,0.094489
2425.0,0.093939
2430.0,0.094424
2435.0,0.094284
2440.0,0.094521
2445.0,0.094291
2450.0,0.094656
2455.0,0.09455
2460.0,0.094249
2465.0,0.094889
2470.0,0.094797
2475.0,0.094897
2480.0,0.09488
2485.0,0.095036
2490.0,0.094906
2495.0,0.095037
2500.0,0.094669
2505.0,0.094288
2510.0,0.094753
2515.0,0.094718
2520.0,0.095233
2525.0,0.094877
2530.0,0.095158
2535.0,0.095595
2540.0,0.095241
2545.0,0.095441
2550.0,0.095859
2555.0,0.095475
2560.0,0.095873
2565.0,0.096438
2570.0,0.095747
2575.0,0.095779
2580.0,0.095238
2585.0,0.095354
2590.0,0.094648
2595.0,0.097321
2600.0,0.095526
