Database of Origin,University of Winnipeg Spectrophotometer Facility
Sample Description,Basalts and Igneous Samples - RELAB plus Nicolet (from RELAB)
Date Added,2018-07-23 22:41:37.826310

Data ID,RLA_BAS_3_1         
Sample ID,BAS101C
Mineral Name,Basaltic glass
Locality,Kilauea Caldera
Grain Size,90-250 um
Viewing Geometry,30/0/30
Resolution,5/ 0.6-129 nm
Composition,Basaltic glass

Wavelength
305.0,0.033286
310.0,0.033812
315.0,0.033994
320.0,0.03422
325.0,0.03444
330.0,0.034668
335.0,0.034915
340.0,0.0351
345.0,0.035177
350.0,0.035244
355.0,0.035214
360.0,0.035248
365.0,0.0352
370.0,0.03514
375.0,0.035175
380.0,0.035204
385.0,0.035361
390.0,0.035613
395.0,0.035693
400.0,0.036152
405.0,0.036402
410.0,0.036463
415.0,0.036773
420.0,0.037123
425.0,0.037267
430.0,0.03739
435.0,0.037622
440.0,0.037929
445.0,0.038072
450.0,0.038268
455.0,0.038594
460.0,0.038878
465.0,0.039077
470.0,0.039356
475.0,0.039641
480.0,0.039906
485.0,0.040179
490.0,0.040563
495.0,0.040899
500.0,0.041261
505.0,0.041648
510.0,0.042138
515.0,0.04256
520.0,0.04303
525.0,0.04352
530.0,0.044148
535.0,0.044653
540.0,0.045311
545.0,0.046032
550.0,0.04673
555.0,0.047273
560.0,0.047848
565.0,0.048478
570.0,0.049107
575.0,0.049702
580.0,0.050246
585.0,0.050812
590.0,0.051297
595.0,0.051816
600.0,0.052383
605.0,0.052727
610.0,0.053346
615.0,0.053931
620.0,0.054572
625.0,0.055129
630.0,0.055679
635.0,0.056138
640.0,0.056742
645.0,0.057071
650.0,0.057377
655.0,0.057572
660.0,0.057702
665.0,0.057683
670.0,0.057696
675.0,0.057731
680.0,0.057717
685.0,0.057838
690.0,0.057608
695.0,0.057419
700.0,0.056976
705.0,0.056527
710.0,0.056341
715.0,0.056171
720.0,0.056036
725.0,0.055501
730.0,0.0554
735.0,0.055231
740.0,0.055063
745.0,0.054758
750.0,0.05451
755.0,0.054313
760.0,0.054033
765.0,0.053678
770.0,0.053365
775.0,0.05308
780.0,0.052741
785.0,0.052469
790.0,0.052277
795.0,0.052042
800.0,0.051826
805.0,0.051562
810.0,0.051316
815.0,0.051026
820.0,0.05083
825.0,0.050645
830.0,0.05032
835.0,0.049969
840.0,0.049759
845.0,0.049403
850.0,0.049143
855.0,0.04886
860.0,0.048707
865.0,0.048465
870.0,0.048237
875.0,0.048126
880.0,0.048139
885.0,0.048094
890.0,0.047948
895.0,0.038427
900.0,0.038154
905.0,0.037993
910.0,0.03791
915.0,0.037602
920.0,0.037383
925.0,0.037091
930.0,0.036841
935.0,0.036625
940.0,0.036486
945.0,0.036364
950.0,0.036164
955.0,0.03601
960.0,0.035689
965.0,0.035549
970.0,0.035468
975.0,0.03527
980.0,0.035282
985.0,0.035313
990.0,0.03504
995.0,0.035039
1000.0,0.035069
1005.0,0.034834
1010.0,0.035057
1015.0,0.034978
1020.0,0.034753
1025.0,0.034734
1030.0,0.034764
1035.0,0.03477
1040.0,0.03478
1045.0,0.034825
1050.0,0.034677
1055.0,0.034491
1060.0,0.034489
1065.0,0.03416
1070.0,0.03436
1075.0,0.034441
1080.0,0.034393
1085.0,0.034272
1090.0,0.034116
1095.0,0.034029
1100.0,0.03412
1105.0,0.034213
1110.0,0.034105
1115.0,0.034028
1120.0,0.034038
1125.0,0.033817
1130.0,0.033665
1135.0,0.033676
1140.0,0.033796
1145.0,0.033741
1150.0,0.033808
1155.0,0.033551
1160.0,0.033377
1165.0,0.03345
1170.0,0.033379
1175.0,0.033428
1180.0,0.033536
1185.0,0.033578
1190.0,0.033546
1195.0,0.033459
1200.0,0.0335
1205.0,0.033719
1210.0,0.034117
1215.0,0.034447
1220.0,0.03459
1225.0,0.03475
1230.0,0.034928
1235.0,0.035017
1240.0,0.034996
1245.0,0.035261
1250.0,0.035279
1255.0,0.035523
1260.0,0.035799
1265.0,0.035919
1270.0,0.035941
1275.0,0.03615
1280.0,0.036288
1285.0,0.036398
1290.0,0.03661
1295.0,0.036855
1300.0,0.037108
1305.0,0.037245
1310.0,0.037515
1315.0,0.037786
1320.0,0.037977
1325.0,0.038146
1330.0,0.038518
1335.0,0.03862
1340.0,0.038887
1345.0,0.039271
1350.0,0.039407
1355.0,0.039458
1360.0,0.039797
1365.0,0.039937
1370.0,0.040097
1375.0,0.040349
1380.0,0.040685
1385.0,0.040846
1390.0,0.041105
1395.0,0.041347
1400.0,0.041575
1405.0,0.041899
1410.0,0.042197
1415.0,0.042554
1420.0,0.042819
1425.0,0.043169
1430.0,0.04318
1435.0,0.043488
1440.0,0.043653
1445.0,0.043806
1450.0,0.044064
1455.0,0.044489
1460.0,0.044759
1465.0,0.045004
1470.0,0.045162
1475.0,0.04528
1480.0,0.045371
1485.0,0.045444
1490.0,0.045513
1495.0,0.045841
1500.0,0.046028
1505.0,0.046278
1510.0,0.046519
1515.0,0.046817
1520.0,0.047012
1525.0,0.047262
1530.0,0.047416
1535.0,0.047566
1540.0,0.047531
1545.0,0.047538
1550.0,0.047654
1555.0,0.047809
1560.0,0.047944
1565.0,0.048277
1570.0,0.048424
1575.0,0.048307
1580.0,0.04809
1585.0,0.048085
1590.0,0.048063
1595.0,0.047862
1600.0,0.047786
1605.0,0.047913
1610.0,0.047767
1615.0,0.047588
1620.0,0.047617
1625.0,0.047648
1630.0,0.047587
1635.0,0.047847
1640.0,0.047997
1645.0,0.048053
1650.0,0.048094
1655.0,0.048037
1660.0,0.048122
1665.0,0.047913
1670.0,0.04783
1675.0,0.047679
1680.0,0.047728
1685.0,0.047459
1690.0,0.047371
1695.0,0.047347
1700.0,0.047254
1705.0,0.047603
1710.0,0.047643
1715.0,0.047718
1720.0,0.047704
1725.0,0.047676
1730.0,0.047659
1735.0,0.047648
1740.0,0.047689
1745.0,0.047666
1750.0,0.047569
1755.0,0.047542
1760.0,0.047455
1765.0,0.047412
1770.0,0.047372
1775.0,0.04729
1780.0,0.047194
1785.0,0.04726
1790.0,0.047382
1795.0,0.047407
1800.0,0.047584
1805.0,0.047744
1810.0,0.047805
1815.0,0.047885
1820.0,0.04804
1825.0,0.048006
1830.0,0.048159
1835.0,0.048223
1840.0,0.048029
1845.0,0.047969
1850.0,0.047944
1855.0,0.047803
1860.0,0.047772
1865.0,0.048043
1870.0,0.048088
1875.0,0.048099
1880.0,0.048155
1885.0,0.048438
1890.0,0.048395
1895.0,0.048358
1900.0,0.04849
1905.0,0.048632
1910.0,0.04836
1915.0,0.048341
1920.0,0.048562
1925.0,0.048677
1930.0,0.04889
1935.0,0.049208
1940.0,0.049419
1945.0,0.049472
1950.0,0.049501
1955.0,0.04948
1960.0,0.04947
1965.0,0.04951
1970.0,0.049513
1975.0,0.049715
1980.0,0.049833
1985.0,0.050008
1990.0,0.050384
1995.0,0.050739
2000.0,0.050926
2005.0,0.051087
2010.0,0.051345
2015.0,0.051532
2020.0,0.051721
2025.0,0.051864
2030.0,0.052238
2035.0,0.052456
2040.0,0.052541
2045.0,0.052691
2050.0,0.052998
2055.0,0.053087
2060.0,0.05343
2065.0,0.05363
2070.0,0.053876
2075.0,0.053982
2080.0,0.054172
2085.0,0.054397
2090.0,0.054549
2095.0,0.054737
2100.0,0.054932
2105.0,0.054888
2110.0,0.054842
2115.0,0.055012
2120.0,0.055157
2125.0,0.055416
2130.0,0.055773
2135.0,0.056157
2140.0,0.056358
2145.0,0.056561
2150.0,0.056865
2155.0,0.05695
2160.0,0.057053
2165.0,0.057077
2170.0,0.057201
2175.0,0.057202
2180.0,0.05755
2185.0,0.057678
2190.0,0.058182
2195.0,0.058696
2200.0,0.059081
2205.0,0.059244
2210.0,0.059653
2215.0,0.059971
2220.0,0.060073
2225.0,0.06024
2230.0,0.060588
2235.0,0.060888
2240.0,0.061181
2245.0,0.06163
2250.0,0.061976
2255.0,0.062481
2260.0,0.062752
2265.0,0.063171
2270.0,0.063414
2275.0,0.063833
2280.0,0.064019
2285.0,0.064411
2290.0,0.064817
2295.0,0.065455
2300.0,0.065774
2305.0,0.066259
2310.0,0.066663
2315.0,0.066923
2320.0,0.067025
2325.0,0.067335
2330.0,0.067444
2335.0,0.067576
2340.0,0.067776
2345.0,0.068155
2350.0,0.068264
2355.0,0.068572
2360.0,0.068806
2365.0,0.069105
2370.0,0.069269
2375.0,0.069787
2380.0,0.070199
2385.0,0.07069
2390.0,0.071194
2395.0,0.071461
2400.0,0.071831
2405.0,0.072192
2410.0,0.072301
2415.0,0.072358
2420.0,0.072746
2425.0,0.072952
2430.0,0.073089
2435.0,0.073277
2440.0,0.073697
2445.0,0.073954
2450.0,0.074297
2455.0,0.074724
2460.0,0.075104
2465.0,0.07508
2470.0,0.075252
2475.0,0.075109
2480.0,0.075043
2485.0,0.075173
2490.0,0.075417
2495.0,0.07527
2500.0,0.075557
2502.0,0.075391
2503.2,0.075195
2504.41,0.07539
2505.62,0.075704
2506.83,0.075898
2508.05,0.075771
2509.26,0.075715
2510.48,0.0757
2511.69,0.075735
2512.91,0.07597
2514.13,0.075923
2515.35,0.075918
2516.57,0.076156
2517.79,0.076297
2519.02,0.076654
2520.24,0.076795
2521.47,0.076294
2522.69,0.076053
2523.92,0.076412
2525.15,0.076823
2526.38,0.076922
2527.61,0.076987
2528.85,0.076803
2530.08,0.076626
2531.32,0.076553
2532.55,0.076722
2533.79,0.076967
2535.03,0.076896
2536.27,0.076857
2537.51,0.077369
2538.75,0.077026
2540.0,0.076631
2541.24,0.076875
2542.49,0.077026
2543.74,0.07684
2544.99,0.076897
2546.24,0.077237
2547.49,0.077538
2548.74,0.077616
2549.99,0.077427
2551.25,0.077388
2552.5,0.077557
2553.76,0.077445
2555.02,0.077358
2556.28,0.077339
2557.54,0.077616
2558.8,0.077703
2560.07,0.077498
2561.33,0.077629
2562.6,0.078062
2563.86,0.078175
2565.13,0.078013
2566.4,0.07805
2567.67,0.078376
2568.95,0.07813
2570.22,0.077944
2571.5,0.078166
2572.77,0.078585
2574.05,0.078337
2575.33,0.077982
2576.61,0.077941
2577.89,0.078119
2579.17,0.078534
2580.46,0.078716
2581.74,0.078553
2583.03,0.078396
2584.31,0.078567
2585.6,0.078693
2586.89,0.078949
2588.19,0.078989
2589.48,0.079012
2590.77,0.078855
2592.07,0.07893
2593.36,0.078761
2594.66,0.07861
2595.96,0.078825
2597.26,0.079625
2598.56,0.079559
2599.87,0.079105
2601.17,0.078874
2602.48,0.079087
2603.78,0.079406
2605.09,0.079368
2606.4,0.079227
2607.71,0.079284
2609.03,0.079112
2610.34,0.079375
2611.65,0.080022
2612.97,0.079918
2614.29,0.079839
2615.61,0.079852
2616.93,0.079509
2618.25,0.07922
2619.57,0.079691
2620.9,0.080003
2622.22,0.080391
2623.55,0.08004
2624.88,0.079619
2626.21,0.079726
2627.54,0.07975
2628.87,0.079936
2630.21,0.079977
2631.54,0.080149
2632.88,0.080472
2634.21,0.080176
2635.55,0.079851
2636.89,0.079838
2638.24,0.07967
2639.58,0.079891
2640.92,0.080092
2642.27,0.080013
2643.62,0.080169
2644.97,0.080348
2646.32,0.080215
2647.67,0.080432
2649.02,0.080467
2650.38,0.080214
2651.73,0.080165
2653.09,0.080248
2654.45,0.080248
2655.81,0.080423
2657.17,0.080647
2658.53,0.080921
2659.89,0.080643
2661.26,0.08058
2662.63,0.080725
2664.0,0.080687
2665.36,0.080705
2666.74,0.081029
2668.11,0.081297
2669.48,0.081139
2670.86,0.080832
2672.23,0.080502
2673.61,0.081018
2674.99,0.080841
2676.37,0.0804
2677.76,0.08033
2679.14,0.080677
2680.52,0.080627
2681.91,0.080743
2683.3,0.080477
2684.69,0.080281
2686.08,0.080322
2687.47,0.080383
2688.87,0.080753
2690.26,0.080808
2691.66,0.080496
2693.06,0.080397
2694.46,0.079898
2695.86,0.079955
2697.26,0.080389
2698.66,0.080584
2700.07,0.080301
2701.48,0.079813
2702.89,0.079736
2704.3,0.080067
2705.71,0.079892
2707.12,0.079605
2708.53,0.079393
2709.95,0.079319
2711.37,0.079158
2712.79,0.079142
2714.21,0.079203
2715.63,0.078869
2717.05,0.07853
2718.48,0.078224
2719.9,0.078265
2721.33,0.078174
2722.76,0.07771
2724.19,0.077488
2725.62,0.077281
2727.06,0.077256
2728.49,0.077141
2729.93,0.076621
2731.37,0.076238
2732.81,0.076411
2734.25,0.076181
2735.69,0.075732
2737.14,0.075419
2738.58,0.075063
2740.03,0.074554
2741.48,0.07454
2742.93,0.074597
2744.38,0.074481
2745.83,0.074261
2747.29,0.073822
2748.75,0.073295
2750.2,0.072895
2751.66,0.072487
2753.13,0.072087
2754.59,0.071713
2756.05,0.071518
2757.52,0.071536
2758.99,0.071404
2760.46,0.070943
2761.93,0.070721
2763.4,0.070511
2764.87,0.070368
2766.35,0.070332
2767.82,0.069753
2769.3,0.069496
2770.78,0.069229
2772.26,0.068992
2773.75,0.069042
2775.23,0.068867
2776.72,0.06849
2778.21,0.068071
2779.7,0.067966
2781.19,0.067613
2782.68,0.067359
2784.18,0.067392
2785.67,0.067465
2787.17,0.067327
2788.67,0.066999
2790.17,0.066695
2791.67,0.066475
2793.18,0.0664
2794.68,0.06662
2796.19,0.066545
2797.7,0.066376
2799.21,0.066276
2800.72,0.06608
2802.24,0.065998
2803.75,0.065659
2805.27,0.065604
2806.79,0.065799
2808.31,0.065679
2809.83,0.06558
2811.35,0.065821
2812.88,0.066036
2814.41,0.066176
2815.93,0.066014
2817.46,0.065537
2819.0,0.065449
2820.53,0.065597
2822.07,0.065506
2823.6,0.065699
2825.14,0.065843
2826.68,0.065664
2828.22,0.065655
2829.77,0.065821
2831.31,0.065775
2832.86,0.065602
2834.41,0.065679
2835.96,0.065752
2837.51,0.065603
2839.07,0.065522
2840.62,0.065665
2842.18,0.065878
2843.74,0.066039
2845.3,0.066234
2846.86,0.066168
2848.43,0.06606
2849.99,0.066076
2851.56,0.066309
2853.13,0.066489
2854.7,0.066396
2856.27,0.066398
2857.85,0.066344
2859.42,0.066425
2861.0,0.066481
2862.58,0.066791
2864.16,0.066858
2865.75,0.066587
2867.33,0.066603
2868.92,0.066841
2870.51,0.066994
2872.1,0.066999
2873.69,0.067031
2875.28,0.067301
2876.88,0.067377
2878.48,0.067249
2880.07,0.067525
2881.68,0.067697
2883.28,0.067503
2884.88,0.067479
2886.49,0.06762
2888.1,0.067899
2889.71,0.068001
2891.32,0.06775
2892.93,0.067885
2894.55,0.067981
2896.16,0.06811
2897.78,0.06833
2899.4,0.068323
2901.03,0.068164
2902.65,0.068131
2904.28,0.068074
2905.91,0.068282
2907.53,0.068613
2909.17,0.06871
2910.8,0.068559
2912.44,0.068522
2914.07,0.068567
2915.71,0.068746
2917.35,0.068985
2918.99,0.069053
2920.64,0.069124
2922.29,0.069057
2923.93,0.069118
2925.58,0.069295
2927.24,0.06933
2928.89,0.069214
2930.55,0.069192
2932.2,0.069385
2933.86,0.069518
2935.52,0.06942
2937.19,0.069569
2938.85,0.069821
2940.52,0.069989
2942.19,0.07011
2943.86,0.070124
2945.53,0.069951
2947.21,0.070192
2948.88,0.070519
2950.56,0.070465
2952.24,0.0703
2953.92,0.070299
2955.61,0.070414
2957.29,0.070749
2958.98,0.071048
2960.67,0.070982
2962.36,0.070851
2964.06,0.070908
2965.75,0.07119
2967.45,0.071378
2969.15,0.071418
2970.85,0.071445
2972.55,0.071512
2974.26,0.071583
2975.97,0.071706
2977.68,0.071728
2979.39,0.071768
2981.1,0.07199
2982.82,0.072012
2984.53,0.071978
2986.25,0.072008
2987.97,0.072197
2989.7,0.072287
2991.42,0.072308
2993.15,0.072431
2994.88,0.072732
2996.61,0.072718
2998.34,0.072611
3000.08,0.072604
3001.82,0.072927
3003.55,0.072972
3005.3,0.07279
3007.04,0.072721
3008.78,0.072831
3010.53,0.073076
3012.28,0.073359
3014.03,0.073623
3015.79,0.073615
3017.54,0.07345
3019.3,0.073553
3021.06,0.073813
3022.82,0.073748
3024.58,0.073824
3026.35,0.073931
3028.12,0.073896
3029.89,0.074225
3031.66,0.074514
3033.43,0.074502
3035.21,0.074335
3036.99,0.074408
3038.77,0.074597
3040.55,0.074691
3042.33,0.074672
3044.12,0.074651
3045.91,0.074779
3047.7,0.075008
3049.49,0.074996
3051.29,0.074877
3053.08,0.074933
3054.88,0.075489
3056.68,0.075741
3058.49,0.075499
3060.29,0.075448
3062.1,0.075605
3063.91,0.075737
3065.72,0.075812
3067.54,0.075858
3069.35,0.076076
3071.17,0.076265
3072.99,0.076136
3074.81,0.07608
3076.64,0.07618
3078.46,0.076373
3080.29,0.076478
3082.13,0.076528
3083.96,0.076595
3085.79,0.076722
3087.63,0.076806
3089.47,0.076858
3091.31,0.076892
3093.16,0.076971
3095.01,0.076968
3096.85,0.077031
3098.71,0.077356
3100.56,0.077568
3102.41,0.077371
3104.27,0.077227
3106.13,0.077589
3107.99,0.077793
3109.86,0.077837
3111.73,0.077911
3113.59,0.077993
3115.47,0.077992
3117.34,0.078007
3119.21,0.078114
3121.09,0.078216
3122.97,0.078306
3124.86,0.078423
3126.74,0.078392
3128.63,0.07845
3130.52,0.07851
3132.41,0.078616
3134.3,0.078697
3136.2,0.078891
3138.1,0.079071
3140.0,0.079048
3141.9,0.07916
3143.81,0.079426
3145.71,0.079419
3147.62,0.079399
3149.54,0.079532
3151.45,0.0797
3153.37,0.079676
3155.29,0.079706
3157.21,0.079884
3159.13,0.080018
3161.06,0.080006
3162.99,0.080071
3164.92,0.080297
3166.85,0.080404
3168.79,0.080278
3170.72,0.080217
3172.67,0.08035
3174.61,0.080564
3176.55,0.080742
3178.5,0.080998
3180.45,0.081107
3182.4,0.081037
3184.36,0.081075
3186.32,0.081151
3188.27,0.081085
3190.24,0.081348
3192.2,0.081674
3194.17,0.081732
3196.14,0.081683
3198.11,0.081867
3200.08,0.081946
3202.06,0.081945
3204.04,0.081962
3206.02,0.082082
3208.0,0.082173
3209.99,0.082194
3211.98,0.082179
3213.97,0.082347
3215.96,0.0825
3217.96,0.082619
3219.96,0.082812
3221.96,0.082982
3223.96,0.08292
3225.97,0.083079
3227.98,0.083263
3229.99,0.08333
3232.0,0.083297
3234.02,0.083298
3236.04,0.083367
3238.06,0.083471
3240.08,0.083478
3242.11,0.08359
3244.14,0.083764
3246.17,0.083858
3248.2,0.083877
3250.24,0.083879
3252.28,0.083951
3254.32,0.084148
3256.37,0.084349
3258.41,0.084549
3260.46,0.084512
3262.51,0.084446
3264.57,0.084562
3266.63,0.084726
3268.69,0.084954
3270.75,0.085046
3272.81,0.08502
3274.88,0.085057
3276.95,0.085081
3279.02,0.085088
3281.1,0.085162
3283.18,0.085247
3285.26,0.085486
3287.34,0.085508
3289.43,0.085413
3291.51,0.085517
3293.61,0.085762
3295.7,0.085948
3297.8,0.085924
3299.89,0.085891
3302.0,0.085977
3304.1,0.08625
3306.21,0.086345
3308.32,0.08621
3310.43,0.086305
3312.55,0.086612
3314.66,0.08675
3316.78,0.086704
3318.91,0.086707
3321.03,0.086801
3323.16,0.086899
3325.29,0.086969
3327.43,0.086919
3329.57,0.086938
3331.71,0.086981
3333.85,0.087261
3335.99,0.087364
3338.14,0.087357
3340.29,0.087336
3342.45,0.08744
3344.6,0.087658
3346.76,0.087789
3348.92,0.087828
3351.09,0.087958
3353.26,0.087975
3355.43,0.088005
3357.6,0.08811
3359.78,0.088172
3361.96,0.088287
3364.14,0.088344
3366.32,0.088428
3368.51,0.088538
3370.7,0.088731
3372.89,0.0889
3375.09,0.088948
3377.29,0.088852
3379.49,0.08868
3381.69,0.088926
3383.9,0.089205
3386.11,0.089297
3388.32,0.089415
3390.54,0.089558
3392.76,0.089633
3394.98,0.089652
3397.21,0.089602
3399.43,0.089748
3401.66,0.089779
3403.9,0.089741
3406.13,0.089779
3408.37,0.089971
3410.61,0.090011
3412.86,0.090108
3415.11,0.090336
3417.36,0.090517
3419.61,0.090597
3421.87,0.0906
3424.13,0.090705
3426.39,0.090842
3428.66,0.0909
3430.93,0.090959
3433.2,0.09096
3435.48,0.090873
3437.76,0.090855
3440.04,0.090995
3442.32,0.091168
3444.61,0.091146
3446.9,0.091014
3449.19,0.091139
3451.49,0.091301
3453.79,0.091528
3456.09,0.091697
3458.4,0.091631
3460.7,0.09157
3463.02,0.091669
3465.33,0.091776
3467.65,0.091904
3469.97,0.09201
3472.29,0.092035
3474.62,0.092044
3476.95,0.092128
3479.29,0.092168
3481.62,0.092316
3483.96,0.092422
3486.3,0.092475
3488.65,0.092574
3491.0,0.092562
3493.35,0.09258
3495.71,0.092639
3498.07,0.092728
3500.43,0.092924
3502.79,0.093071
3505.16,0.093191
3507.53,0.093194
3509.91,0.093148
3512.29,0.0933
3514.67,0.093379
3517.05,0.093373
3519.44,0.093475
3521.83,0.093498
3524.22,0.09348
3526.62,0.093534
3529.02,0.093643
3531.43,0.093558
3533.83,0.093499
3536.24,0.093714
3538.66,0.094006
3541.08,0.094131
3543.5,0.09414
3545.92,0.09423
3548.35,0.094243
3550.78,0.094231
3553.21,0.094296
3555.65,0.094327
3558.09,0.094521
3560.53,0.094684
3562.98,0.094643
3565.43,0.094641
3567.88,0.094585
3570.34,0.094721
3572.8,0.094928
3575.27,0.094997
3577.73,0.094909
3580.2,0.094783
3582.68,0.094858
3585.16,0.095102
3587.64,0.095193
3590.12,0.095299
3592.61,0.09535
3595.1,0.095324
3597.6,0.095449
3600.09,0.095555
3602.6,0.095574
3605.1,0.095526
3607.61,0.095446
3610.12,0.095593
3612.64,0.09587
3615.16,0.095954
3617.68,0.096073
3620.21,0.096137
3622.74,0.096226
3625.27,0.096306
3627.81,0.096352
3630.35,0.096372
3632.89,0.09647
3635.44,0.096463
3637.99,0.096432
3640.54,0.096455
3643.1,0.096543
3645.66,0.096696
3648.23,0.096835
3650.8,0.096761
3653.37,0.09679
3655.95,0.097003
3658.53,0.097141
3661.11,0.097131
3663.7,0.097136
3666.29,0.097222
3668.89,0.097276
3671.48,0.097485
3674.09,0.097508
3676.69,0.097369
3679.3,0.097372
3681.91,0.097427
3684.53,0.097538
3687.15,0.09758
3689.78,0.097661
3692.4,0.097764
3695.04,0.097805
3697.67,0.09785
3700.31,0.097987
3702.95,0.098107
3705.6,0.098106
3708.25,0.098117
3710.91,0.098187
3713.56,0.098207
3716.23,0.098318
3718.89,0.098433
3721.56,0.098452
3724.23,0.098562
3726.91,0.098775
3729.59,0.098801
3732.28,0.098805
3734.97,0.098784
3737.66,0.098778
3740.36,0.098918
3743.06,0.099025
3745.76,0.099156
3748.47,0.099217
3751.18,0.099136
3753.9,0.099224
3756.62,0.099416
3759.34,0.099538
3762.07,0.099438
3764.8,0.099585
3767.54,0.099703
3770.28,0.099766
3773.02,0.099773
3775.77,0.099831
3778.52,0.099944
3781.28,0.099969
3784.04,0.099976
3786.8,0.10006
3789.57,0.100165
3792.34,0.100271
3795.12,0.10016
3797.9,0.10024
3800.69,0.100371
3803.47,0.100353
3806.27,0.100397
3809.06,0.100574
3811.86,0.100601
3814.67,0.100585
3817.48,0.100632
3820.29,0.100674
3823.11,0.100712
3825.93,0.100811
3828.76,0.100829
3831.59,0.100878
3834.42,0.100996
3837.26,0.101074
3840.1,0.101092
3842.95,0.101196
3845.8,0.101353
3848.65,0.101429
3851.51,0.101397
3854.38,0.101338
3857.24,0.101294
3860.12,0.101438
3862.99,0.101581
3865.87,0.101634
3868.76,0.101599
3871.65,0.101566
3874.54,0.101659
3877.44,0.101823
3880.34,0.101804
3883.25,0.10176
3886.16,0.101819
3889.07,0.101971
3891.99,0.102073
3894.92,0.101999
3897.85,0.102015
3900.78,0.102107
3903.72,0.102153
3906.66,0.102172
3909.6,0.102158
3912.55,0.102325
3915.51,0.102378
3918.47,0.102419
3921.43,0.102573
3924.4,0.102659
3927.37,0.102526
3930.35,0.102479
3933.33,0.102625
3936.32,0.102666
3939.31,0.10256
3942.31,0.102576
3945.31,0.102741
3948.31,0.102853
3951.32,0.102847
3954.34,0.10296
3957.35,0.103047
3960.38,0.102938
3963.41,0.103025
3966.44,0.103108
3969.48,0.103061
3972.52,0.103145
3975.56,0.103211
3978.61,0.103285
3981.67,0.103421
3984.73,0.103403
3987.8,0.103342
3990.87,0.103508
3993.94,0.103536
3997.02,0.103495
4000.1,0.103557
4003.19,0.103597
4006.29,0.103609
4009.39,0.103691
4012.49,0.103746
4015.6,0.103791
4018.71,0.10379
4021.83,0.103722
4024.95,0.103777
4028.08,0.103858
4031.21,0.103923
4034.35,0.103966
4037.49,0.103975
4040.64,0.104091
4043.79,0.104131
4046.94,0.104078
4050.11,0.104018
4053.27,0.104026
4056.44,0.103935
4059.62,0.103968
4062.8,0.104128
4065.99,0.10421
4069.18,0.104179
4072.38,0.10425
4075.58,0.104262
4078.78,0.104316
4082.0,0.10433
4085.21,0.10428
4088.43,0.104338
4091.66,0.104355
4094.89,0.104312
4098.13,0.104313
4101.37,0.104306
4104.62,0.104392
4107.87,0.104438
4111.13,0.104487
4114.39,0.10456
4117.66,0.1045
4120.93,0.104506
4124.21,0.10455
4127.5,0.104495
4130.78,0.104452
4134.08,0.104557
4137.38,0.104657
4140.68,0.10465
4143.99,0.104605
4147.31,0.104598
4150.63,0.104644
4153.95,0.104673
4157.29,0.104696
4160.62,0.10473
4163.96,0.104762
4167.31,0.104773
4170.66,0.104786
4174.02,0.104795
4177.39,0.104738
4180.75,0.104717
4184.13,0.104833
4187.51,0.104878
4190.89,0.104851
4194.28,0.104821
4197.68,0.104923
4201.08,0.104982
4204.49,0.105001
4207.9,0.104963
4211.32,0.104942
4214.74,0.10501
4218.17,0.105122
4221.61,0.105278
4225.05,0.1054
4228.5,0.105298
4231.95,0.105169
4235.4,0.105144
4238.87,0.105318
4242.34,0.105348
4245.81,0.105304
4249.29,0.105356
4252.78,0.105295
4256.27,0.105186
4259.77,0.105013
4263.27,0.104882
4266.78,0.105011
4270.29,0.105048
4273.81,0.105064
4277.34,0.10504
4280.87,0.104998
4284.41,0.105083
4287.95,0.105209
4291.5,0.10514
4295.06,0.105007
4298.62,0.105017
4302.19,0.104937
4305.76,0.104812
4309.34,0.10477
4312.92,0.104749
4316.52,0.104723
4320.11,0.104636
4323.72,0.104542
4327.32,0.104469
4330.94,0.104527
4334.56,0.1045
4338.19,0.10448
4341.82,0.104458
4345.46,0.104374
4349.11,0.104209
4352.76,0.104113
4356.42,0.104029
4360.08,0.103942
4363.75,0.10399
4367.43,0.10402
4371.11,0.103847
4374.8,0.103774
4378.49,0.103766
4382.19,0.103688
4385.9,0.103601
4389.61,0.103503
4393.33,0.103491
4397.06,0.103465
4400.79,0.103369
4404.53,0.103327
4408.28,0.1032
4412.03,0.103066
4415.79,0.10302
4419.55,0.103009
4423.32,0.10298
4427.1,0.102926
4430.88,0.102795
4434.67,0.102688
4438.47,0.102627
4442.27,0.102573
4446.08,0.1024
4449.9,0.102301
4453.72,0.102236
4457.55,0.102073
4461.39,0.101991
4465.23,0.101985
4469.08,0.101807
4472.94,0.101593
4476.8,0.101486
4480.67,0.101422
4484.55,0.101408
4488.43,0.101317
4492.32,0.10102
4496.21,0.100825
4500.12,0.100824
4504.03,0.100844
4507.94,0.1006
4511.87,0.100394
4515.8,0.100259
4519.73,0.100059
4523.68,0.099843
4527.63,0.099631
4531.59,0.099501
4535.55,0.099474
4539.52,0.099312
4543.5,0.099058
4547.49,0.098909
4551.48,0.098765
4555.48,0.098575
4559.49,0.098454
4563.5,0.098293
4567.52,0.098051
4571.55,0.097847
4575.58,0.097697
4579.62,0.097472
4583.67,0.097187
4587.73,0.096912
4591.79,0.096777
4595.86,0.096676
4599.94,0.09653
4604.03,0.096265
4608.12,0.096034
4612.22,0.095708
4616.33,0.095468
4620.44,0.095317
4624.56,0.095132
4628.69,0.094896
4632.83,0.094643
4636.97,0.094462
4641.12,0.094273
4645.28,0.093962
4649.45,0.093722
4653.62,0.093518
4657.8,0.093147
4661.99,0.092888
4666.19,0.092779
4670.39,0.092551
4674.6,0.09224
4678.82,0.091963
4683.05,0.09169
4687.28,0.091397
4691.52,0.091225
4695.77,0.090955
4700.03,0.090663
4704.3,0.090405
4708.57,0.090184
4712.85,0.089964
4717.14,0.089719
4721.43,0.089393
4725.74,0.089022
4730.05,0.088736
4734.37,0.088571
4738.7,0.088359
4743.03,0.088041
4747.38,0.087728
4751.73,0.087426
4756.09,0.087074
4760.45,0.086817
4764.83,0.086513
4769.21,0.086296
4773.6,0.086038
4778.0,0.085735
4782.41,0.08543
4786.83,0.08509
4791.25,0.084869
4795.68,0.084634
4800.13,0.084279
4804.57,0.084006
4809.03,0.083702
4813.5,0.08334
4817.97,0.083125
4822.45,0.082904
4826.94,0.082555
4831.44,0.082274
4835.95,0.082061
4840.46,0.081733
4844.99,0.081372
4849.52,0.081137
4854.06,0.080877
4858.61,0.080564
4863.17,0.080256
4867.73,0.079976
4872.31,0.079657
4876.89,0.079401
4881.48,0.079063
4886.08,0.078756
4890.69,0.078489
4895.31,0.078189
4899.94,0.077816
4904.57,0.077529
4909.22,0.077183
4913.87,0.076833
4918.53,0.076594
4923.21,0.076265
4927.88,0.075843
4932.57,0.075533
4937.27,0.075278
4941.98,0.074919
4946.69,0.074548
4951.42,0.074253
4956.15,0.07389
4960.89,0.073505
4965.65,0.073172
4970.41,0.072781
4975.18,0.072431
4979.96,0.072104
4984.75,0.071818
4989.54,0.071462
4994.35,0.071044
4999.17,0.070675
5003.99,0.070319
5008.83,0.070009
5013.67,0.069734
5018.52,0.069376
5023.39,0.069006
5028.26,0.068641
5033.14,0.068277
5038.03,0.067948
5042.93,0.067559
5047.84,0.067176
5052.76,0.066843
5057.69,0.066485
5062.63,0.066148
5067.58,0.065786
5072.54,0.06544
5077.51,0.065159
5082.49,0.064823
5087.47,0.064433
5092.47,0.064129
5097.48,0.063872
5102.5,0.063593
5107.52,0.063261
5112.56,0.062923
5117.61,0.062592
5122.66,0.062249
5127.73,0.061931
5132.81,0.061646
5137.89,0.061382
5142.99,0.061131
5148.1,0.060865
5153.22,0.060546
5158.34,0.060314
5163.48,0.060125
5168.63,0.059875
5173.79,0.05953
5178.96,0.059231
5184.13,0.058991
5189.32,0.058753
5194.52,0.058511
5199.73,0.058277
5204.95,0.058046
5210.19,0.057834
5215.43,0.057577
5220.68,0.057464
5225.94,0.057348
5231.22,0.057081
5236.5,0.056754
5241.79,0.056518
5247.1,0.056357
5252.42,0.056237
5257.74,0.056108
5263.08,0.055946
5268.43,0.055731
5273.79,0.055523
5279.16,0.05543
5284.54,0.055316
5289.93,0.055136
5295.34,0.054931
5300.75,0.054804
5306.18,0.054721
5311.61,0.054584
5317.06,0.054438
5322.52,0.054218
5327.99,0.053964
5333.47,0.053806
5338.96,0.053714
5344.47,0.053528
5349.98,0.053346
5355.51,0.053187
5361.05,0.05312
5366.6,0.053093
5372.16,0.053011
5377.73,0.052884
5383.32,0.052753
5388.91,0.052608
5394.52,0.052508
5400.14,0.052401
5405.77,0.052291
5411.41,0.052184
5417.07,0.052051
5422.74,0.051964
5428.41,0.05188
5434.1,0.051764
5439.81,0.051701
5445.52,0.051631
5451.25,0.051435
5456.98,0.051307
5462.73,0.051255
5468.5,0.051172
5474.27,0.051071
5480.06,0.050985
5485.86,0.050897
5491.67,0.050799
5497.49,0.050709
5503.33,0.050642
5509.18,0.050571
5515.04,0.05047
5520.91,0.050345
5526.8,0.050257
5532.69,0.050202
5538.61,0.050089
5544.53,0.049982
5550.47,0.04997
5556.41,0.049929
5562.38,0.049961
5568.35,0.049907
5574.34,0.049762
5580.34,0.049606
5586.35,0.049591
5592.38,0.049602
5598.42,0.049499
5604.47,0.049423
5610.54,0.049352
5616.61,0.049218
5622.71,0.049186
5628.81,0.049227
5634.93,0.04926
5641.06,0.049108
5647.21,0.04898
5653.36,0.049105
5659.54,0.049068
5665.72,0.048949
5671.92,0.04881
5678.13,0.04874
5684.36,0.048746
5690.6,0.048712
5696.85,0.048705
5703.12,0.048703
5709.4,0.048676
5715.69,0.048709
5722.0,0.048778
5728.33,0.048782
5734.66,0.048776
5741.01,0.048802
5747.38,0.048838
5753.76,0.048808
5760.15,0.048733
5766.56,0.048669
5772.98,0.048711
5779.41,0.048689
5785.86,0.048543
5792.33,0.048495
5798.81,0.048418
5805.3,0.048401
5811.81,0.048319
5818.33,0.048127
5824.87,0.047987
5831.42,0.048072
5837.99,0.048043
5844.57,0.047964
5851.17,0.047925
5857.78,0.047914
5864.41,0.047909
5871.05,0.047836
5877.7,0.047759
5884.38,0.047694
5891.06,0.047764
5897.76,0.047666
5904.48,0.047617
5911.21,0.047646
5917.96,0.047579
5924.73,0.047552
5931.5,0.047504
5938.3,0.04744
5945.11,0.047488
5951.93,0.047521
5958.78,0.047352
5965.63,0.047226
5972.51,0.047141
5979.39,0.047217
5986.3,0.047208
5993.22,0.047162
6000.16,0.047126
6007.11,0.04706
6014.08,0.046984
6021.06,0.046942
6028.06,0.04695
6035.08,0.046975
6042.12,0.046931
6049.17,0.046774
6056.23,0.046675
6063.32,0.046719
6070.42,0.046509
6077.53,0.046452
6084.67,0.046459
6091.82,0.046354
6098.98,0.046316
6106.17,0.046272
6113.37,0.046064
6120.58,0.045932
6127.82,0.045955
6135.07,0.045893
6142.34,0.045767
6149.63,0.045665
6156.93,0.04557
6164.25,0.045553
6171.59,0.045581
6178.94,0.045444
6186.32,0.045278
6193.71,0.045249
6201.12,0.045234
6208.54,0.045175
6215.99,0.045085
6223.45,0.044945
6230.93,0.044891
6238.43,0.044817
6245.95,0.044777
6253.48,0.044765
6261.03,0.044614
6268.6,0.044536
6276.19,0.044514
6283.8,0.044443
6291.43,0.044372
6299.07,0.04428
6306.73,0.044188
6314.42,0.044154
6322.12,0.044055
6329.83,0.043917
6337.57,0.043847
6345.33,0.04376
6353.11,0.043735
6360.9,0.043691
6368.72,0.043636
6376.55,0.043621
6384.4,0.043532
6392.27,0.043466
6400.17,0.043422
6408.08,0.043352
6416.01,0.043204
6423.96,0.043209
6431.93,0.043184
6439.92,0.043072
6447.93,0.043104
6455.96,0.043085
6464.01,0.042999
6472.08,0.042914
6480.17,0.042876
6488.28,0.042768
6496.41,0.042645
6504.56,0.042545
6512.73,0.042483
6520.92,0.042417
6529.14,0.04232
6537.37,0.042238
6545.63,0.04204
6553.9,0.041929
6562.2,0.041808
6570.51,0.041628
6578.85,0.041527
6587.21,0.041555
6595.59,0.041443
6603.99,0.041366
6612.42,0.041325
6620.86,0.041238
6629.33,0.041168
6637.82,0.041026
6646.33,0.040848
6654.86,0.040852
6663.41,0.040757
6671.99,0.04063
6680.59,0.040549
6689.21,0.04051
6697.85,0.040454
6706.51,0.040305
6715.2,0.040163
6723.91,0.040021
6732.64,0.039976
6741.4,0.039913
6750.18,0.039813
6758.98,0.039673
6767.8,0.039476
6776.65,0.039377
6785.52,0.039312
6794.41,0.039198
6803.33,0.039043
6812.27,0.038912
6821.23,0.038809
6830.22,0.038606
6839.23,0.038482
6848.26,0.038399
6857.32,0.038205
6866.4,0.037959
6875.51,0.037919
6884.64,0.037872
6893.8,0.037634
6902.98,0.037465
6912.18,0.037342
6921.41,0.037209
6930.66,0.037075
6939.94,0.03696
6949.24,0.036752
6958.57,0.03656
6967.92,0.036367
6977.3,0.036182
6986.7,0.036049
6996.13,0.035901
7005.59,0.035659
7015.07,0.035496
7024.57,0.035339
7034.1,0.035249
7043.66,0.035041
7053.24,0.034727
7062.85,0.034576
7072.49,0.034477
7082.15,0.034304
7091.84,0.034141
7101.55,0.033936
7111.3,0.033779
7121.06,0.033584
7130.86,0.033377
7140.68,0.033183
7150.53,0.033038
7160.41,0.032803
7170.31,0.032559
7180.24,0.032366
7190.2,0.032162
7200.19,0.03191
7210.2,0.031654
7220.24,0.031394
7230.31,0.031196
7240.41,0.031021
7250.54,0.030839
7260.69,0.030598
7270.88,0.030307
7281.09,0.030016
7291.33,0.029778
7301.6,0.029541
7311.9,0.02938
7322.22,0.029131
7332.58,0.028849
7342.97,0.028513
7353.38,0.028239
7363.83,0.027933
7374.3,0.027637
7384.81,0.027341
7395.34,0.027096
7405.91,0.026841
7416.5,0.026501
7427.13,0.026219
7437.78,0.025979
7448.47,0.025573
7459.19,0.025259
7469.94,0.024999
7480.71,0.02468
7491.52,0.024344
7502.37,0.02396
7513.24,0.023642
7524.14,0.023281
7535.08,0.022913
7546.05,0.02257
7557.05,0.022187
7568.08,0.021816
7579.14,0.021452
7590.24,0.021105
7601.37,0.020725
7612.53,0.020352
7623.73,0.019956
7634.96,0.019615
7646.22,0.019233
7657.51,0.018846
7668.84,0.018456
7680.2,0.01808
7691.59,0.017742
7703.02,0.017375
7714.49,0.017034
7725.98,0.016709
7737.51,0.016303
7749.08,0.015898
7760.68,0.015516
7772.32,0.015141
7783.99,0.014767
7795.69,0.014359
7807.43,0.013905
7819.21,0.013485
7831.02,0.013046
7842.87,0.012627
7854.75,0.012192
7866.67,0.011797
7878.62,0.011395
7890.62,0.010961
7902.64,0.010544
7914.71,0.010093
7926.81,0.009578
7938.95,0.009135
7951.13,0.00864
7963.34,0.008146
7975.59,0.007729
7987.88,0.007349
8000.21,0.006944
8012.57,0.006501
8024.98,0.005984
8037.42,0.005527
8049.9,0.005138
8062.42,0.004724
8074.98,0.004289
8087.57,0.003996
8100.21,0.003758
8112.89,0.003691
8125.6,0.003747
8138.36,0.003918
8151.16,0.004298
8163.99,0.004952
8176.87,0.005813
8189.79,0.007067
8202.75,0.008647
8215.74,0.010606
8228.79,0.01277
8241.87,0.015091
8254.99,0.017608
8268.16,0.020234
8281.37,0.022846
8294.62,0.025506
8307.91,0.028174
8321.24,0.030692
8334.62,0.033055
8348.04,0.035262
8361.51,0.037361
8375.02,0.039509
8388.57,0.041478
8402.16,0.043241
8415.8,0.044875
8429.49,0.046453
8443.22,0.048029
8456.99,0.049451
8470.81,0.050718
8484.67,0.051922
8498.58,0.05304
8512.54,0.05421
8526.54,0.055321
8540.58,0.056282
8554.68,0.057265
8568.82,0.058262
8583.0,0.059157
8597.24,0.060027
8611.52,0.06093
8625.85,0.061767
8640.22,0.062558
8654.65,0.063443
8669.12,0.064241
8683.64,0.064972
8698.21,0.065646
8712.83,0.066335
8727.5,0.067052
8742.22,0.067844
8756.98,0.068646
8771.8,0.069373
8786.67,0.070128
8801.59,0.070885
8816.56,0.071691
8831.58,0.072431
8846.65,0.073191
8861.77,0.073916
8876.94,0.07468
8892.17,0.075476
8907.45,0.076152
8922.78,0.076882
8938.16,0.077779
8953.6,0.078622
8969.09,0.079499
8984.64,0.080191
9000.23,0.080901
9015.89,0.081764
9031.59,0.082634
9047.36,0.083362
9063.17,0.084118
9079.04,0.084938
9094.97,0.085686
9110.96,0.086345
9127.0,0.08711
9143.09,0.087946
9159.25,0.088705
9175.46,0.089365
9191.73,0.090112
9208.05,0.090871
9224.44,0.091642
9240.88,0.092396
9257.38,0.093071
9273.94,0.093664
9290.56,0.09424
9307.24,0.094853
9323.98,0.09547
9340.78,0.096035
9357.64,0.096633
9374.57,0.09713
9391.55,0.097613
9408.59,0.098092
9425.7,0.098613
9442.87,0.098983
9460.1,0.09932
9477.39,0.099644
9494.75,0.099965
9512.17,0.100316
9529.66,0.100614
9547.21,0.100833
9564.82,0.10104
9582.5,0.101196
9600.25,0.101339
9618.06,0.101324
9635.94,0.101305
9653.88,0.10133
9671.89,0.101303
9689.97,0.10128
9708.12,0.101346
9726.33,0.101346
9744.61,0.101373
9762.97,0.101248
9781.39,0.101065
9799.88,0.100889
9818.44,0.100759
9837.07,0.100646
9855.77,0.100415
9874.54,0.100091
9893.39,0.099918
9912.3,0.099639
9931.29,0.099302
9950.35,0.098914
9969.49,0.098685
9988.7,0.098395
10007.98,0.098089
10027.34,0.097624
10046.77,0.097266
10066.28,0.097012
10085.87,0.096674
10105.53,0.096195
10125.26,0.095698
10145.08,0.095313
10164.97,0.094967
10184.94,0.094472
10204.99,0.093999
10225.12,0.093507
10245.33,0.093104
10265.61,0.092731
10285.98,0.092295
10306.43,0.091776
10326.96,0.091413
10347.57,0.091087
10368.27,0.090648
10389.05,0.090212
10409.91,0.089891
10430.85,0.08951
10451.88,0.089212
10473.0,0.088859
10494.2,0.088512
10515.49,0.088238
10536.86,0.087937
10558.32,0.087645
10579.87,0.087355
10601.5,0.086962
10623.23,0.086607
10645.04,0.086283
10666.94,0.085893
10688.94,0.085447
10711.02,0.085072
10733.2,0.084624
10755.47,0.084196
10777.83,0.083749
10800.28,0.083323
10822.83,0.082883
10845.47,0.082627
10868.21,0.082304
10891.04,0.081809
10913.97,0.081318
10936.99,0.080911
10960.12,0.08049
10983.34,0.080081
11006.66,0.07961
11030.07,0.079097
11053.59,0.078605
11077.21,0.078123
11100.93,0.077615
11124.75,0.077149
11148.68,0.076639
11172.7,0.076092
11196.84,0.075593
11221.07,0.075141
11245.41,0.074555
11269.86,0.074026
11294.41,0.073493
11319.07,0.072931
11343.84,0.072417
11368.72,0.07186
11393.7,0.071194
11418.8,0.070697
11444.01,0.070058
11469.33,0.069355
11494.76,0.068762
11520.3,0.068126
11545.96,0.067474
11571.73,0.066862
11597.62,0.066254
11623.62,0.065685
11649.74,0.065027
11675.98,0.064507
11702.34,0.06398
11728.81,0.063408
11755.41,0.062684
11782.13,0.061974
11808.96,0.061357
11835.92,0.060776
11863.01,0.060218
11890.22,0.059616
11917.55,0.058891
11945.01,0.05822
11972.6,0.057774
12000.31,0.057352
12028.16,0.056869
12056.13,0.056344
12084.23,0.055876
12112.46,0.055415
12140.83,0.054921
12169.33,0.054442
12197.96,0.05397
12226.73,0.053536
12255.64,0.05291
12284.68,0.052371
12313.86,0.051975
12343.18,0.051618
12372.64,0.051253
12402.24,0.050816
12431.98,0.050469
12461.86,0.050158
12491.89,0.049828
12522.06,0.049465
12552.38,0.049238
12582.85,0.049164
12613.47,0.04901
12644.23,0.048936
12675.15,0.048942
12706.21,0.048836
12737.43,0.0488
12768.8,0.048755
12800.33,0.048661
12832.02,0.048727
12863.86,0.048787
12895.86,0.048875
12928.02,0.048894
12960.34,0.048735
12992.82,0.048681
13025.46,0.048746
13058.27,0.048825
13091.25,0.048802
13124.39,0.048822
13157.7,0.048865
13191.18,0.048841
13224.83,0.048816
13258.66,0.048931
13292.65,0.049064
13326.83,0.049198
13361.17,0.049307
13395.7,0.049261
13430.4,0.04929
13465.29,0.049419
13500.35,0.049499
13535.6,0.049527
13571.03,0.049609
13606.65,0.049722
13642.46,0.049821
13678.46,0.049894
13714.64,0.050002
13751.02,0.05004
13787.59,0.049874
13824.36,0.049826
13861.32,0.050023
13898.48,0.049992
13935.85,0.049818
13973.41,0.049861
14011.17,0.049932
14049.15,0.049791
14087.32,0.049587
14125.71,0.049703
14164.3,0.049484
14203.11,0.04918
14242.13,0.048937
14281.36,0.048637
14320.81,0.048416
14360.48,0.04811
14400.38,0.047869
14440.49,0.047881
14480.82,0.047738
14521.39,0.047493
14562.18,0.047347
14603.2,0.047264
14644.45,0.047237
14685.93,0.047234
14727.66,0.047158
14769.62,0.047124
14811.81,0.047296
14854.25,0.047402
14896.94,0.047473
14939.87,0.047497
14983.05,0.04761
15026.48,0.047883
15070.16,0.047976
15114.1,0.047756
15158.29,0.047628
15202.74,0.047642
15247.46,0.047634
15292.43,0.047602
15337.68,0.047546
15383.19,0.047396
15428.97,0.047164
15475.03,0.047045
15521.36,0.046869
15567.97,0.046687
15614.86,0.046655
15662.04,0.046528
15709.5,0.046245
15757.25,0.045956
15805.29,0.045914
15853.62,0.045651
15902.25,0.045331
15951.18,0.04522
16000.42,0.045328
16049.95,0.04545
16099.8,0.045292
16149.95,0.044972
16200.42,0.044666
16251.21,0.044838
16302.31,0.045079
16353.74,0.045177
16405.49,0.045091
16457.57,0.045092
16509.98,0.045188
16562.73,0.045087
16615.82,0.045182
16669.24,0.044895
16723.02,0.044675
16777.13,0.044855
16831.61,0.045032
16886.43,0.045134
16941.62,0.045165
16997.16,0.045338
17053.07,0.045719
17109.36,0.045941
17166.01,0.046567
17223.04,0.047205
17280.45,0.047696
17338.24,0.048258
17396.43,0.048669
17455.0,0.048934
17513.97,0.049266
17573.34,0.049869
17633.11,0.05071
17693.29,0.051369
17753.89,0.052118
17814.9,0.052737
17876.33,0.052975
17938.18,0.053621
18000.47,0.054445
18063.19,0.055075
18126.35,0.055921
18189.95,0.056966
18254.0,0.057807
18318.5,0.058638
18383.46,0.059726
18448.88,0.060409
18514.77,0.060863
18581.13,0.061868
18647.97,0.063066
18715.29,0.063796
18783.1,0.064626
18851.4,0.06557
18920.2,0.0666
18989.51,0.067448
19059.32,0.06817
19129.65,0.069189
19200.5,0.070045
19271.88,0.070817
19343.79,0.071683
19416.23,0.072726
19489.23,0.073574
19562.77,0.07446
19636.88,0.07563
19711.54,0.076434
19786.77,0.077469
19862.59,0.078718
19938.98,0.080177
20015.96,0.081783
20093.54,0.083113
20171.73,0.084322
20250.53,0.085722
20329.94,0.087059
20409.98,0.088028
20490.65,0.088879
20571.96,0.089679
20653.92,0.090864
20736.54,0.092168
20819.82,0.092711
20903.77,0.092772
20988.4,0.093047
21073.72,0.093497
21159.73,0.094031
21246.46,0.094349
21333.89,0.094425
21422.04,0.094814
21510.93,0.095346
21600.56,0.095801
21690.94,0.095592
21782.08,0.095491
21873.99,0.096068
21966.67,0.096152
22060.15,0.096254
22154.42,0.097045
22249.51,0.096746
22345.41,0.096278
22442.14,0.095446
22539.72,0.094887
22638.14,0.094747
22737.43,0.094222
22837.6,0.093201
22938.65,0.091928
23040.6,0.091086
23143.46,0.090404
23247.24,0.089687
23351.96,0.089196
23457.62,0.088081
23564.25,0.08692
23671.85,0.08649
23780.44,0.086104
23890.02,0.085413
24000.63,0.084961
24112.26,0.084128
24224.93,0.084052
24338.66,0.08347
24453.47,0.081756
24569.36,0.082566
24686.36,0.083659
24804.47,0.081964
24923.72,0.08203
25044.13,0.082307
25165.7,0.082404
25288.46,0.081543
25412.43,0.081997
25537.61,0.085314
25664.03,0.085828
25791.71,0.083876
25920.67,0.082764
