Database of Origin,University of Winnipeg Spectrophotometer Facility
Sample Description,Carbonaceous chondrites - RELAB archive 2. CM chondrites
Date Added,2018-07-23 23:44:49.585285

Data ID,RLA_MET_33_16       
Sample ID,EET83250/7
Mineral Name,CM Chondrite
Grain Size,<125 um
Viewing Geometry,30/0
Material Class,CM2

Wavelength
305.0,0.019786
310.0,0.019989
315.0,0.021403
320.0,0.021981
325.0,0.022542
330.0,0.022628
335.0,0.023212
340.0,0.023274
345.0,0.023553
350.0,0.023967
355.0,0.024743
360.0,0.025313
365.0,0.025827
370.0,0.026533
375.0,0.027088
380.0,0.027506
385.0,0.028012
390.0,0.02848
395.0,0.029154
400.0,0.029527
405.0,0.029673
410.0,0.030562
415.0,0.031256
420.0,0.031613
425.0,0.032001
430.0,0.032193
435.0,0.032451
440.0,0.0329
445.0,0.033167
450.0,0.033424
455.0,0.033671
460.0,0.03396
465.0,0.034239
470.0,0.034679
475.0,0.035015
480.0,0.035314
485.0,0.03569
490.0,0.035958
495.0,0.036205
500.0,0.036547
505.0,0.036908
510.0,0.037219
515.0,0.037633
520.0,0.03788
525.0,0.037928
530.0,0.03809
535.0,0.038337
540.0,0.038579
545.0,0.038715
550.0,0.038965
555.0,0.039144
560.0,0.039227
565.0,0.039286
570.0,0.039284
575.0,0.039262
580.0,0.039188
585.0,0.039077
590.0,0.039099
595.0,0.038924
600.0,0.038819
605.0,0.038734
610.0,0.038589
615.0,0.0385
620.0,0.038398
625.0,0.038345
630.0,0.038265
635.0,0.038116
640.0,0.037939
645.0,0.03784
650.0,0.037738
655.0,0.03758
660.0,0.037505
665.0,0.037481
670.0,0.037351
675.0,0.037329
680.0,0.037341
685.0,0.037301
690.0,0.037368
695.0,0.037292
700.0,0.037258
705.0,0.037292
710.0,0.037324
715.0,0.037388
720.0,0.037334
725.0,0.037408
730.0,0.037438
735.0,0.03752
740.0,0.037577
745.0,0.037779
750.0,0.037795
755.0,0.037902
760.0,0.037824
765.0,0.037765
770.0,0.037808
775.0,0.037727
780.0,0.037346
785.0,0.037348
790.0,0.037651
795.0,0.037708
800.0,0.037969
805.0,0.038142
810.0,0.038208
815.0,0.038337
820.0,0.038108
825.0,0.038371
830.0,0.038416
835.0,0.03847
840.0,0.038783
845.0,0.038379
850.0,0.038505
855.0,0.038642
860.0,0.038788
865.0,0.03861
870.0,0.038764
875.0,0.038731
880.0,0.038798
885.0,0.038928
890.0,0.038833
895.0,0.038574
900.0,0.03864
905.0,0.038704
910.0,0.039005
915.0,0.038938
920.0,0.038878
925.0,0.039043
930.0,0.038806
935.0,0.039062
940.0,0.039186
945.0,0.038897
950.0,0.039256
955.0,0.039182
960.0,0.039279
965.0,0.039408
970.0,0.039657
975.0,0.039767
980.0,0.039791
985.0,0.039821
990.0,0.039712
995.0,0.039837
1000.0,0.039865
1005.0,0.039935
1010.0,0.03989
1015.0,0.039951
1020.0,0.039843
1025.0,0.039956
1030.0,0.040054
1035.0,0.039995
1040.0,0.039906
1045.0,0.039974
1050.0,0.039868
1055.0,0.039955
1060.0,0.039786
1065.0,0.039822
1070.0,0.039698
1075.0,0.03972
1080.0,0.039844
1085.0,0.039995
1090.0,0.039847
1095.0,0.040047
1100.0,0.040086
1105.0,0.04013
1110.0,0.040177
1115.0,0.040135
1120.0,0.040108
1125.0,0.040189
1130.0,0.040375
1135.0,0.040329
1140.0,0.040472
1145.0,0.040634
1150.0,0.040488
1155.0,0.040829
1160.0,0.040686
1165.0,0.040876
1170.0,0.040953
1175.0,0.041033
1180.0,0.041152
1185.0,0.041064
1190.0,0.041224
1195.0,0.041277
1200.0,0.041326
1205.0,0.04138
1210.0,0.041507
1215.0,0.041523
1220.0,0.04152
1225.0,0.041502
1230.0,0.04151
1235.0,0.041747
1240.0,0.041621
1245.0,0.041774
1250.0,0.041728
1255.0,0.041691
1260.0,0.0418
1265.0,0.041897
1270.0,0.041933
1275.0,0.042125
1280.0,0.041964
1285.0,0.042083
1290.0,0.042043
1295.0,0.042084
1300.0,0.042148
1305.0,0.042112
1310.0,0.042375
1315.0,0.042256
1320.0,0.042257
1325.0,0.042449
1330.0,0.042443
1335.0,0.042485
1340.0,0.04256
1345.0,0.042691
1350.0,0.042716
1355.0,0.042621
1360.0,0.042626
1365.0,0.042655
1370.0,0.042833
1375.0,0.043092
1380.0,0.043119
1385.0,0.043407
1390.0,0.042909
1395.0,0.043362
1400.0,0.04352
1405.0,0.043441
1410.0,0.043546
1415.0,0.043618
1420.0,0.043453
1425.0,0.043558
1430.0,0.04357
1435.0,0.043692
1440.0,0.043776
1445.0,0.043729
1450.0,0.043641
1455.0,0.043872
1460.0,0.043978
1465.0,0.043926
1470.0,0.044099
1475.0,0.044158
1480.0,0.044145
1485.0,0.044167
1490.0,0.044264
1495.0,0.044436
1500.0,0.044489
1505.0,0.044597
1510.0,0.044699
1515.0,0.044796
1520.0,0.044844
1525.0,0.044891
1530.0,0.045043
1535.0,0.045256
1540.0,0.045365
1545.0,0.045269
1550.0,0.045413
1555.0,0.045567
1560.0,0.045629
1565.0,0.045669
1570.0,0.045494
1575.0,0.045354
1580.0,0.045524
1585.0,0.045593
1590.0,0.045708
1595.0,0.045639
1600.0,0.045763
1605.0,0.045657
1610.0,0.045634
1615.0,0.045754
1620.0,0.04583
1625.0,0.04575
1630.0,0.045977
1635.0,0.046187
1640.0,0.046266
1645.0,0.046453
1650.0,0.046272
1655.0,0.046542
1660.0,0.046298
1665.0,0.046706
1670.0,0.046677
1675.0,0.046864
1680.0,0.046827
1685.0,0.047178
1690.0,0.047397
1695.0,0.047334
1700.0,0.047482
1705.0,0.047693
1710.0,0.047698
1715.0,0.04778
1720.0,0.047859
1725.0,0.047972
1730.0,0.047924
1735.0,0.047886
1740.0,0.048076
1745.0,0.048034
1750.0,0.048111
1755.0,0.048222
1760.0,0.048179
1765.0,0.048259
1770.0,0.048273
1775.0,0.048375
1780.0,0.048621
1785.0,0.048725
1790.0,0.048662
1795.0,0.048707
1800.0,0.048885
1805.0,0.048872
1810.0,0.049026
1815.0,0.049054
1820.0,0.049206
1825.0,0.04919
1830.0,0.049314
1835.0,0.049321
1840.0,0.04933
1845.0,0.049373
1850.0,0.049302
1855.0,0.04957
1860.0,0.049564
1865.0,0.049555
1870.0,0.04969
1875.0,0.049669
1880.0,0.049891
1885.0,0.050044
1890.0,0.049943
1895.0,0.050079
1900.0,0.050121
1905.0,0.050071
1910.0,0.050061
1915.0,0.04984
1920.0,0.049803
1925.0,0.050231
1930.0,0.050289
1935.0,0.050154
1940.0,0.050249
1945.0,0.050329
1950.0,0.050338
1955.0,0.050483
1960.0,0.050612
1965.0,0.050578
1970.0,0.050621
1975.0,0.050594
1980.0,0.050723
1985.0,0.050605
1990.0,0.050598
1995.0,0.050719
2000.0,0.050671
2005.0,0.050798
2010.0,0.050779
2015.0,0.05081
2020.0,0.050902
2025.0,0.050845
2030.0,0.050953
2035.0,0.050847
2040.0,0.050819
2045.0,0.050957
2050.0,0.050907
2055.0,0.050998
2060.0,0.051003
2065.0,0.050975
2070.0,0.051041
2075.0,0.051149
2080.0,0.0511
2085.0,0.051054
2090.0,0.051256
2095.0,0.051345
2100.0,0.051343
2105.0,0.051433
2110.0,0.051381
2115.0,0.051493
2120.0,0.051446
2125.0,0.051534
2130.0,0.051606
2135.0,0.0516
2140.0,0.051925
2145.0,0.051775
2150.0,0.051914
2155.0,0.051964
2160.0,0.051901
2165.0,0.052117
2170.0,0.052047
2175.0,0.052277
2180.0,0.052051
2185.0,0.052176
2190.0,0.052225
2195.0,0.052344
2200.0,0.052388
2205.0,0.052416
2210.0,0.052492
2215.0,0.052602
2220.0,0.052643
2225.0,0.052685
2230.0,0.052719
2235.0,0.052855
2240.0,0.052909
2245.0,0.052896
2250.0,0.052729
2255.0,0.052877
2260.0,0.052929
2265.0,0.053156
2270.0,0.053149
2275.0,0.052962
2280.0,0.052853
2285.0,0.052912
2290.0,0.052715
2295.0,0.052539
2300.0,0.052492
2305.0,0.052429
2310.0,0.052319
2315.0,0.052137
2320.0,0.051925
2325.0,0.052121
2330.0,0.052059
2335.0,0.051953
2340.0,0.051916
2345.0,0.051885
2350.0,0.052042
2355.0,0.052113
2360.0,0.052326
2365.0,0.052355
2370.0,0.052532
2375.0,0.052561
2380.0,0.05258
2385.0,0.052655
2390.0,0.052476
2395.0,0.052823
2400.0,0.052948
2405.0,0.05309
2410.0,0.053116
2415.0,0.052983
2420.0,0.052998
2425.0,0.052685
2430.0,0.052536
2435.0,0.052515
2440.0,0.05245
2445.0,0.052431
2450.0,0.052528
2455.0,0.052543
2460.0,0.052314
2465.0,0.052465
2470.0,0.052416
2475.0,0.052502
2480.0,0.052523
2485.0,0.052636
2490.0,0.052649
2495.0,0.052623
2500.0,0.052586
2505.0,0.052747
2510.0,0.052833
2515.0,0.05294
2520.0,0.053046
2525.0,0.053094
2530.0,0.053145
2535.0,0.0534
2540.0,0.053413
2545.0,0.053616
2550.0,0.053767
2555.0,0.053749
2560.0,0.053566
2565.0,0.053916
2570.0,0.054056
2575.0,0.054185
2580.0,0.053955
2585.0,0.053686
2590.0,0.053793
2595.0,0.053342
2600.0,0.053267
