Database of Origin,University of Winnipeg Spectrophotometer Facility
Sample Description,Carbonaceous chondrites - RELAB archive 7. Ungrouped chondrites and ATCCs
Other Information,spun c1mp115
Date Added,2018-07-23 23:45:03.803507

Data ID,RLA_MET_38_23       
Sample ID,EET96029/14
Mineral Name,Carbonaceous Chondrite
Grain Size,<125 um
Viewing Geometry,30/0
Material Class,CM2

Wavelength
305.0,0.02155
310.0,0.02002
315.0,0.02023
320.0,0.02081
325.0,0.02069
330.0,0.02103
335.0,0.02048
340.0,0.02097
345.0,0.02127
350.0,0.02184
355.0,0.02226
360.0,0.02277
365.0,0.02332
370.0,0.02372
375.0,0.02406
380.0,0.02452
385.0,0.02496
390.0,0.02549
395.0,0.02596
400.0,0.02576
405.0,0.02583
410.0,0.0262
415.0,0.02645
420.0,0.02673
425.0,0.02705
430.0,0.02746
435.0,0.02769
440.0,0.02801
445.0,0.02816
450.0,0.02838
455.0,0.02859
460.0,0.02885
465.0,0.02907
470.0,0.02929
475.0,0.0295
480.0,0.02971
485.0,0.03
490.0,0.03032
495.0,0.03053
500.0,0.03085
505.0,0.03108
510.0,0.03132
515.0,0.03156
520.0,0.03188
525.0,0.03214
530.0,0.03245
535.0,0.03275
540.0,0.03303
545.0,0.03321
550.0,0.03333
555.0,0.0335
560.0,0.03368
565.0,0.03387
570.0,0.03405
575.0,0.03423
580.0,0.03438
585.0,0.03456
590.0,0.03472
595.0,0.03489
600.0,0.03501
605.0,0.03517
610.0,0.03536
615.0,0.03552
620.0,0.03569
625.0,0.03584
630.0,0.036
635.0,0.03607
640.0,0.03616
645.0,0.03629
650.0,0.03637
655.0,0.03639
660.0,0.03643
665.0,0.03647
670.0,0.03653
675.0,0.0366
680.0,0.03657
685.0,0.03661
690.0,0.03663
695.0,0.03663
700.0,0.03666
705.0,0.03663
710.0,0.03661
715.0,0.0367
720.0,0.0367
725.0,0.0368
730.0,0.03683
735.0,0.03684
740.0,0.03688
745.0,0.03693
750.0,0.03694
755.0,0.03691
760.0,0.03692
765.0,0.037
770.0,0.03702
775.0,0.03705
780.0,0.03702
785.0,0.03701
790.0,0.03699
795.0,0.03702
800.0,0.03724
805.0,0.03717
810.0,0.03727
815.0,0.0372
820.0,0.03721
825.0,0.03727
830.0,0.03723
835.0,0.0372
840.0,0.03719
845.0,0.03723
850.0,0.03722
855.0,0.03718
860.0,0.03713
865.0,0.03712
870.0,0.03704
875.0,0.03701
880.0,0.03693
885.0,0.03693
890.0,0.03695
895.0,0.03696
900.0,0.03698
905.0,0.037
910.0,0.03702
915.0,0.037
920.0,0.037
925.0,0.03702
930.0,0.03699
935.0,0.03697
940.0,0.0369
945.0,0.03688
950.0,0.03684
955.0,0.03689
960.0,0.03684
965.0,0.03689
970.0,0.03691
975.0,0.03692
980.0,0.03692
985.0,0.03699
990.0,0.03699
995.0,0.03698
1000.0,0.03699
1005.0,0.03699
1010.0,0.037
1015.0,0.03701
1020.0,0.03702
1025.0,0.03708
1030.0,0.03713
1035.0,0.03715
1040.0,0.0372
1045.0,0.03722
1050.0,0.03719
1055.0,0.03721
1060.0,0.03723
1065.0,0.03722
1070.0,0.03728
1075.0,0.03733
1080.0,0.03731
1085.0,0.03731
1090.0,0.03731
1095.0,0.03732
1100.0,0.03731
1105.0,0.03732
1110.0,0.03733
1115.0,0.03737
1120.0,0.03738
1125.0,0.03741
1130.0,0.03743
1135.0,0.03746
1140.0,0.03746
1145.0,0.03753
1150.0,0.03759
1155.0,0.03767
1160.0,0.03764
1165.0,0.03773
1170.0,0.03771
1175.0,0.03775
1180.0,0.03779
1185.0,0.03799
1190.0,0.03802
1195.0,0.03812
1200.0,0.0382
1205.0,0.03828
1210.0,0.03823
1215.0,0.03824
1220.0,0.0382
1225.0,0.03808
1230.0,0.03801
1235.0,0.03801
1240.0,0.03803
1245.0,0.03814
1250.0,0.03826
1255.0,0.03836
1260.0,0.03843
1265.0,0.03853
1270.0,0.03849
1275.0,0.03857
1280.0,0.03858
1285.0,0.03863
1290.0,0.03864
1295.0,0.03872
1300.0,0.03873
1305.0,0.03877
1310.0,0.03882
1315.0,0.03889
1320.0,0.03895
1325.0,0.03896
1330.0,0.03895
1335.0,0.03901
1340.0,0.03906
1345.0,0.03913
1350.0,0.0392
1355.0,0.03933
1360.0,0.03939
1365.0,0.03943
1370.0,0.03945
1375.0,0.03947
1380.0,0.03948
1385.0,0.03958
1390.0,0.03962
1395.0,0.03967
1400.0,0.03973
1405.0,0.03983
1410.0,0.0399
1415.0,0.04004
1420.0,0.04009
1425.0,0.04018
1430.0,0.04028
1435.0,0.04035
1440.0,0.04043
1445.0,0.04049
1450.0,0.04052
1455.0,0.04055
1460.0,0.04058
1465.0,0.04052
1470.0,0.04062
1475.0,0.04066
1480.0,0.04069
1485.0,0.04076
1490.0,0.04086
1495.0,0.04092
1500.0,0.041
1505.0,0.04111
1510.0,0.04124
1515.0,0.04137
1520.0,0.04142
1525.0,0.04151
1530.0,0.04154
1535.0,0.04152
1540.0,0.04151
1545.0,0.0416
1550.0,0.04165
1555.0,0.04178
1560.0,0.04189
1565.0,0.04201
1570.0,0.04206
1575.0,0.04206
1580.0,0.04203
1585.0,0.04212
1590.0,0.04218
1595.0,0.04231
1600.0,0.0425
1605.0,0.04266
1610.0,0.04273
1615.0,0.04284
1620.0,0.04286
1625.0,0.04289
1630.0,0.04292
1635.0,0.04296
1640.0,0.04294
1645.0,0.04305
1650.0,0.04314
1655.0,0.04324
1660.0,0.04334
1665.0,0.04352
1670.0,0.04357
1675.0,0.04366
1680.0,0.04379
1685.0,0.04391
1690.0,0.04396
1695.0,0.04405
1700.0,0.04406
1705.0,0.04414
1710.0,0.04418
1715.0,0.04425
1720.0,0.04425
1725.0,0.04432
1730.0,0.04436
1735.0,0.04443
1740.0,0.0445
1745.0,0.04457
1750.0,0.04464
1755.0,0.04486
1760.0,0.04488
1765.0,0.04478
1770.0,0.04487
1775.0,0.04491
1780.0,0.04491
1785.0,0.04504
1790.0,0.0452
1795.0,0.04526
1800.0,0.04532
1805.0,0.04541
1810.0,0.04548
1815.0,0.04551
1820.0,0.04554
1825.0,0.04565
1830.0,0.04571
1835.0,0.04579
1840.0,0.04586
1845.0,0.04597
1850.0,0.04604
1855.0,0.04604
1860.0,0.04603
1865.0,0.04612
1870.0,0.04612
1875.0,0.04611
1880.0,0.04611
1885.0,0.04611
1890.0,0.04607
1895.0,0.04615
1900.0,0.04618
1905.0,0.04628
1910.0,0.04636
1915.0,0.04646
1920.0,0.04648
1925.0,0.04652
1930.0,0.04644
1935.0,0.04643
1940.0,0.04641
1945.0,0.04651
1950.0,0.04652
1955.0,0.04654
1960.0,0.04665
1965.0,0.04681
1970.0,0.04681
1975.0,0.04687
1980.0,0.04692
1985.0,0.04694
1990.0,0.04694
1995.0,0.04695
2000.0,0.04703
2005.0,0.04721
2010.0,0.04728
2015.0,0.04741
2020.0,0.04745
2025.0,0.04753
2030.0,0.04756
2035.0,0.04768
2040.0,0.04779
2045.0,0.04786
2050.0,0.04789
2055.0,0.04803
2060.0,0.04809
2065.0,0.04816
2070.0,0.04828
2075.0,0.0483
2080.0,0.04822
2085.0,0.04822
2090.0,0.04823
2095.0,0.04825
2100.0,0.04841
2105.0,0.04856
2110.0,0.04863
2115.0,0.04867
2120.0,0.04875
2125.0,0.04878
2130.0,0.04874
2135.0,0.0488
2140.0,0.0488
2145.0,0.04888
2150.0,0.04891
2155.0,0.04898
2160.0,0.0491
2165.0,0.0491
2170.0,0.04921
2175.0,0.04927
2180.0,0.04928
2185.0,0.04924
2190.0,0.04932
2195.0,0.04933
2200.0,0.04927
2205.0,0.04935
2210.0,0.04936
2215.0,0.04943
2220.0,0.04945
2225.0,0.04942
2230.0,0.04932
2235.0,0.04929
2240.0,0.04932
2245.0,0.04941
2250.0,0.04945
2255.0,0.04956
2260.0,0.04967
2265.0,0.04965
2270.0,0.04966
2275.0,0.04964
2280.0,0.04965
2285.0,0.04971
2290.0,0.04972
2295.0,0.04974
2300.0,0.04968
2305.0,0.04966
2310.0,0.04967
2315.0,0.04978
2320.0,0.04986
2325.0,0.04989
2330.0,0.04996
2335.0,0.04999
2340.0,0.05008
2345.0,0.05004
2350.0,0.0501
2355.0,0.05007
2360.0,0.05005
2365.0,0.04992
2370.0,0.04997
2375.0,0.04999
2380.0,0.04992
2385.0,0.05012
2390.0,0.05007
2395.0,0.0501
2400.0,0.05012
2405.0,0.0502
2410.0,0.05025
2415.0,0.05028
2420.0,0.05034
2425.0,0.05035
2430.0,0.05037
2435.0,0.05035
2440.0,0.05036
2445.0,0.05038
2450.0,0.05031
2455.0,0.05022
2460.0,0.05022
2465.0,0.05026
2470.0,0.05029
2475.0,0.05033
2480.0,0.05046
2485.0,0.0503
2490.0,0.05024
2495.0,0.05032
2500.0,0.05015
2505.0,0.05019
2510.0,0.05022
2515.0,0.05023
2520.0,0.05027
2525.0,0.05024
2530.0,0.05029
2535.0,0.05034
2540.0,0.05033
2545.0,0.05038
2550.0,0.05046
2555.0,0.05049
2560.0,0.05042
2565.0,0.05049
2570.0,0.05046
2575.0,0.05051
2580.0,0.05056
2585.0,0.05074
2590.0,0.05079
2595.0,0.05084
2600.0,0.05097
