Database of Origin,University of Winnipeg Spectrophotometer Facility
Sample Description,16.3. Lab heated meteorites - RELAB spectra 16.3.4. Abee enstatite chondrite Most heated in 10-5 H2 for one week RELAB archive
Other Information,Heated 35mt N2 heated in N2 at 35 mT
Date Added,2018-07-23 23:37:33.521611

Data ID,RLA_MET_17_9        
Sample ID,Abee
Mineral Name,Abee E Chondrite
Locality,Abee
Grain Size,<125 um
Viewing Geometry,30/0
Resolution,5 nm

Wavelength
305.0,0.059151
310.0,0.061099
315.0,0.058808
320.0,0.059194
325.0,0.059186
330.0,0.059221
335.0,0.059228
340.0,0.060292
345.0,0.06055
350.0,0.059926
355.0,0.060239
360.0,0.060067
365.0,0.060153
370.0,0.059685
375.0,0.059776
380.0,0.060087
385.0,0.059758
390.0,0.060189
395.0,0.060072
400.0,0.060331
405.0,0.060818
410.0,0.060194
415.0,0.06016
420.0,0.060506
425.0,0.060608
430.0,0.060601
435.0,0.060662
440.0,0.060701
445.0,0.060881
450.0,0.060846
455.0,0.060949
460.0,0.061077
465.0,0.061178
470.0,0.061401
475.0,0.0616
480.0,0.061981
485.0,0.062104
490.0,0.06223
495.0,0.062368
500.0,0.062603
505.0,0.062787
510.0,0.062998
515.0,0.063054
520.0,0.063079
525.0,0.063263
530.0,0.063519
535.0,0.063721
540.0,0.064017
545.0,0.064157
550.0,0.064285
555.0,0.064365
560.0,0.064603
565.0,0.064743
570.0,0.064738
575.0,0.064946
580.0,0.064956
585.0,0.065078
590.0,0.065229
595.0,0.065366
600.0,0.065435
605.0,0.065553
610.0,0.06574
615.0,0.066006
620.0,0.066187
625.0,0.066279
630.0,0.066456
635.0,0.066665
640.0,0.066757
645.0,0.066791
650.0,0.066796
655.0,0.066877
660.0,0.066783
665.0,0.066831
670.0,0.066918
675.0,0.066873
680.0,0.066832
685.0,0.066875
690.0,0.067148
695.0,0.067031
700.0,0.067181
705.0,0.06711
710.0,0.067158
715.0,0.067273
720.0,0.067398
725.0,0.067446
730.0,0.067318
735.0,0.06728
740.0,0.067293
745.0,0.067392
750.0,0.067579
755.0,0.067882
760.0,0.067624
765.0,0.067451
770.0,0.067751
775.0,0.067333
780.0,0.067721
785.0,0.067965
790.0,0.068011
795.0,0.06777
800.0,0.068044
805.0,0.067774
810.0,0.067941
815.0,0.068259
820.0,0.068614
825.0,0.068338
830.0,0.068083
835.0,0.067928
840.0,0.069215
845.0,0.06934
850.0,0.068966
855.0,0.068653
860.0,0.068174
865.0,0.068545
870.0,0.068575
875.0,0.068922
880.0,0.067524
885.0,0.069073
890.0,0.068283
895.0,0.069594
900.0,0.069453
905.0,0.069423
910.0,0.069264
915.0,0.069874
920.0,0.069796
925.0,0.070173
930.0,0.070005
935.0,0.070038
940.0,0.070541
945.0,0.069596
950.0,0.070407
955.0,0.070838
960.0,0.07034
965.0,0.070646
970.0,0.070482
975.0,0.070649
980.0,0.070395
985.0,0.070661
990.0,0.070887
995.0,0.070672
1000.0,0.070637
1005.0,0.070672
1010.0,0.070416
1015.0,0.070574
1020.0,0.07067
1025.0,0.070719
1030.0,0.070829
1035.0,0.071072
1040.0,0.070848
1045.0,0.07101
1050.0,0.071221
1055.0,0.071313
1060.0,0.071186
1065.0,0.071254
1070.0,0.071092
1075.0,0.071191
1080.0,0.070987
1085.0,0.070619
1090.0,0.071144
1095.0,0.070959
1100.0,0.071384
1105.0,0.071503
1110.0,0.071482
1115.0,0.071199
1120.0,0.071552
1125.0,0.071603
1130.0,0.071025
1135.0,0.071406
1140.0,0.07141
1145.0,0.071233
1150.0,0.071417
1155.0,0.071384
1160.0,0.071209
1165.0,0.071422
1170.0,0.07142
1175.0,0.071566
1180.0,0.071816
1185.0,0.07183
1190.0,0.071772
1195.0,0.071645
1200.0,0.071461
1205.0,0.072005
1210.0,0.07223
1215.0,0.072169
1220.0,0.072105
1225.0,0.071957
1230.0,0.071604
1235.0,0.071613
1240.0,0.071459
1245.0,0.071389
1250.0,0.071882
1255.0,0.071326
1260.0,0.07159
1265.0,0.071553
1270.0,0.071941
1275.0,0.071487
1280.0,0.071878
1285.0,0.071797
1290.0,0.07167
1295.0,0.071682
1300.0,0.071671
1305.0,0.071771
1310.0,0.071813
1315.0,0.071604
1320.0,0.071997
1325.0,0.071812
1330.0,0.071802
1335.0,0.071953
1340.0,0.071652
1345.0,0.071848
1350.0,0.07217
1355.0,0.072082
1360.0,0.072604
1365.0,0.072926
1370.0,0.072749
1375.0,0.072555
1380.0,0.073147
1385.0,0.073052
1390.0,0.072973
1395.0,0.073106
1400.0,0.073506
1405.0,0.073542
1410.0,0.073282
1415.0,0.072885
1420.0,0.073174
1425.0,0.07278
1430.0,0.072817
1435.0,0.072856
1440.0,0.073292
1445.0,0.072773
1450.0,0.072891
1455.0,0.072922
1460.0,0.073062
1465.0,0.072805
1470.0,0.07342
1475.0,0.073028
1480.0,0.073109
1485.0,0.072957
1490.0,0.072921
1495.0,0.073523
1500.0,0.072884
1505.0,0.072717
1510.0,0.073015
1515.0,0.072905
1520.0,0.072754
1525.0,0.0732
1530.0,0.072887
1535.0,0.073158
1540.0,0.07297
1545.0,0.073247
1550.0,0.073254
1555.0,0.07378
1560.0,0.073246
1565.0,0.073326
1570.0,0.073484
1575.0,0.073123
1580.0,0.073497
1585.0,0.07353
1590.0,0.074132
1595.0,0.073586
1600.0,0.073588
1605.0,0.073607
1610.0,0.073669
1615.0,0.073673
1620.0,0.073687
1625.0,0.073158
1630.0,0.073826
1635.0,0.073525
1640.0,0.073496
1645.0,0.073623
1650.0,0.073799
1655.0,0.074182
1660.0,0.073413
1665.0,0.073609
1670.0,0.073546
1675.0,0.073708
1680.0,0.07371
1685.0,0.073358
1690.0,0.073595
1695.0,0.074095
1700.0,0.073921
1705.0,0.073804
1710.0,0.073954
1715.0,0.074123
1720.0,0.074337
1725.0,0.073762
1730.0,0.074237
1735.0,0.074095
1740.0,0.074183
1745.0,0.073804
1750.0,0.074072
1755.0,0.074006
1760.0,0.074015
1765.0,0.073912
1770.0,0.074162
1775.0,0.074211
1780.0,0.073995
1785.0,0.074095
1790.0,0.074148
1795.0,0.074275
1800.0,0.074258
1805.0,0.074315
1810.0,0.07421
1815.0,0.074234
1820.0,0.07445
1825.0,0.074518
1830.0,0.074616
1835.0,0.07464
1840.0,0.074331
1845.0,0.074422
1850.0,0.074332
1855.0,0.07449
1860.0,0.074684
1865.0,0.07466
1870.0,0.074603
1875.0,0.074628
1880.0,0.074652
1885.0,0.074538
1890.0,0.074686
1895.0,0.074964
1900.0,0.074951
1905.0,0.074939
1910.0,0.074697
1915.0,0.074797
1920.0,0.074804
1925.0,0.074872
1930.0,0.074905
1935.0,0.074628
1940.0,0.075142
1945.0,0.074996
1950.0,0.074913
1955.0,0.074747
1960.0,0.074928
1965.0,0.074846
1970.0,0.075052
1975.0,0.074836
1980.0,0.075156
1985.0,0.074946
1990.0,0.075248
1995.0,0.075109
2000.0,0.075383
2005.0,0.075326
2010.0,0.075324
2015.0,0.075268
2020.0,0.075318
2025.0,0.075472
2030.0,0.075326
2035.0,0.075253
2040.0,0.075157
2045.0,0.075285
2050.0,0.075172
2055.0,0.075134
2060.0,0.075213
2065.0,0.075396
2070.0,0.075127
2075.0,0.075414
2080.0,0.075315
2085.0,0.07528
2090.0,0.075316
2095.0,0.075644
2100.0,0.07533
2105.0,0.075384
2110.0,0.075494
2115.0,0.075454
2120.0,0.075334
2125.0,0.075435
2130.0,0.075367
2135.0,0.075575
2140.0,0.075291
2145.0,0.075289
2150.0,0.07512
2155.0,0.07527
2160.0,0.075268
2165.0,0.075032
2170.0,0.074882
2175.0,0.075146
2180.0,0.075015
2185.0,0.075255
2190.0,0.075576
2195.0,0.075442
2200.0,0.075704
2205.0,0.075618
2210.0,0.07558
2215.0,0.075843
2220.0,0.075502
2225.0,0.075819
2230.0,0.075677
2235.0,0.075573
2240.0,0.075468
2245.0,0.075575
2250.0,0.075534
2255.0,0.075632
2260.0,0.075418
2265.0,0.075981
2270.0,0.075352
2275.0,0.075926
2280.0,0.075847
2285.0,0.075919
2290.0,0.075882
2295.0,0.075955
2300.0,0.076416
2305.0,0.076393
2310.0,0.076087
2315.0,0.076288
2320.0,0.076576
2325.0,0.076228
2330.0,0.076319
2335.0,0.076308
2340.0,0.076277
2345.0,0.075996
2350.0,0.076291
2355.0,0.076195
2360.0,0.076287
2365.0,0.07623
2370.0,0.076046
2375.0,0.076044
2380.0,0.076243
2385.0,0.076085
2390.0,0.076373
2395.0,0.076286
2400.0,0.076252
2405.0,0.076101
2410.0,0.075813
2415.0,0.076395
2420.0,0.076078
2425.0,0.076136
2430.0,0.076739
2435.0,0.076781
2440.0,0.076248
2445.0,0.07643
2450.0,0.076562
2455.0,0.076659
2460.0,0.076389
2465.0,0.076563
2470.0,0.076659
2475.0,0.076518
2480.0,0.076738
2485.0,0.076623
2490.0,0.076259
2495.0,0.076584
2500.0,0.076324
2505.0,0.076616
2510.0,0.076667
2515.0,0.077041
2520.0,0.076868
2525.0,0.076711
2530.0,0.077074
2535.0,0.076824
2540.0,0.076955
2545.0,0.076692
2550.0,0.076587
2555.0,0.076344
2560.0,0.077223
2565.0,0.07712
2570.0,0.076682
2575.0,0.076669
2580.0,0.077017
2585.0,0.076643
2590.0,0.076798
2595.0,0.076978
2600.0,0.077319
