Database of Origin,University of Winnipeg Spectrophotometer Facility
Sample Description,16.3. Lab heated meteorites - RELAB spectra 16.3.4. Abee enstatite chondrite Most heated in 10-5 H2 for one week RELAB archive
Other Information,Unheated
Date Added,2018-07-23 23:37:33.389741

Data ID,RLA_MET_17_1        
Sample ID,Abee
Mineral Name,Abee E Chondrite
Locality,Abee
Grain Size,<125 um
Viewing Geometry,30/0
Resolution,5 nm

Wavelength
305.0,0.057245
310.0,0.059286
315.0,0.05918
320.0,0.05841
325.0,0.060104
330.0,0.060031
335.0,0.060513
340.0,0.061112
345.0,0.061156
350.0,0.061915
355.0,0.062326
360.0,0.062238
365.0,0.062303
370.0,0.06256
375.0,0.06281
380.0,0.063191
385.0,0.063102
390.0,0.06349
395.0,0.064242
400.0,0.064203
405.0,0.065038
410.0,0.064888
415.0,0.065013
420.0,0.065558
425.0,0.06573
430.0,0.065837
435.0,0.06617
440.0,0.066507
445.0,0.06683
450.0,0.067035
455.0,0.067288
460.0,0.067666
465.0,0.067857
470.0,0.068088
475.0,0.068317
480.0,0.068686
485.0,0.069117
490.0,0.069211
495.0,0.069423
500.0,0.069672
505.0,0.069876
510.0,0.070199
515.0,0.070325
520.0,0.070588
525.0,0.071006
530.0,0.071328
535.0,0.071473
540.0,0.071789
545.0,0.072
550.0,0.072301
555.0,0.07247
560.0,0.072572
565.0,0.072751
570.0,0.072913
575.0,0.073118
580.0,0.073233
585.0,0.073376
590.0,0.073435
595.0,0.073659
600.0,0.073761
605.0,0.073865
610.0,0.074226
615.0,0.074272
620.0,0.074554
625.0,0.074717
630.0,0.074943
635.0,0.074971
640.0,0.075195
645.0,0.075403
650.0,0.075556
655.0,0.075636
660.0,0.075948
665.0,0.07604
670.0,0.076048
675.0,0.076051
680.0,0.076193
685.0,0.07623
690.0,0.076405
695.0,0.076538
700.0,0.076538
705.0,0.076773
710.0,0.076864
715.0,0.076907
720.0,0.077106
725.0,0.077031
730.0,0.07699
735.0,0.077097
740.0,0.07726
745.0,0.077453
750.0,0.077456
755.0,0.077478
760.0,0.077311
765.0,0.077682
770.0,0.077574
775.0,0.078007
780.0,0.077746
785.0,0.078001
790.0,0.078177
795.0,0.078675
800.0,0.07848
805.0,0.077989
810.0,0.078686
815.0,0.078642
820.0,0.078605
825.0,0.079371
830.0,0.079694
835.0,0.079486
840.0,0.079544
845.0,0.078916
850.0,0.07928
855.0,0.078988
860.0,0.080326
865.0,0.079493
870.0,0.078471
875.0,0.078832
880.0,0.080547
885.0,0.079182
890.0,0.079465
895.0,0.080732
900.0,0.079393
905.0,0.080224
910.0,0.080556
915.0,0.079472
920.0,0.080142
925.0,0.080063
930.0,0.08054
935.0,0.080279
940.0,0.081046
945.0,0.080156
950.0,0.080958
955.0,0.081002
960.0,0.080737
965.0,0.080752
970.0,0.081243
975.0,0.080853
980.0,0.081248
985.0,0.081445
990.0,0.081252
995.0,0.0811
1000.0,0.081297
1005.0,0.081489
1010.0,0.081712
1015.0,0.081537
1020.0,0.081746
1025.0,0.082046
1030.0,0.082144
1035.0,0.082231
1040.0,0.082515
1045.0,0.082439
1050.0,0.082367
1055.0,0.082793
1060.0,0.082271
1065.0,0.082227
1070.0,0.082376
1075.0,0.082372
1080.0,0.082228
1085.0,0.082655
1090.0,0.082658
1095.0,0.082705
1100.0,0.083317
1105.0,0.082912
1110.0,0.083276
1115.0,0.083146
1120.0,0.083319
1125.0,0.083268
1130.0,0.083589
1135.0,0.083746
1140.0,0.083674
1145.0,0.084171
1150.0,0.084019
1155.0,0.084228
1160.0,0.084242
1165.0,0.08447
1170.0,0.084456
1175.0,0.084352
1180.0,0.084753
1185.0,0.084678
1190.0,0.085117
1195.0,0.08485
1200.0,0.084881
1205.0,0.084794
1210.0,0.085455
1215.0,0.085549
1220.0,0.085912
1225.0,0.085
1230.0,0.085333
1235.0,0.085207
1240.0,0.085281
1245.0,0.085063
1250.0,0.085057
1255.0,0.085415
1260.0,0.085532
1265.0,0.085609
1270.0,0.085843
1275.0,0.085586
1280.0,0.085833
1285.0,0.085587
1290.0,0.085686
1295.0,0.085978
1300.0,0.085944
1305.0,0.085887
1310.0,0.085979
1315.0,0.085819
1320.0,0.085895
1325.0,0.086178
1330.0,0.086249
1335.0,0.086313
1340.0,0.086344
1345.0,0.086287
1350.0,0.08607
1355.0,0.086337
1360.0,0.086208
1365.0,0.086604
1370.0,0.086942
1375.0,0.08637
1380.0,0.086874
1385.0,0.087618
1390.0,0.087773
1395.0,0.087546
1400.0,0.087791
1405.0,0.087588
1410.0,0.08794
1415.0,0.087664
1420.0,0.088258
1425.0,0.087742
1430.0,0.08813
1435.0,0.088247
1440.0,0.088047
1445.0,0.088623
1450.0,0.088833
1455.0,0.088636
1460.0,0.088734
1465.0,0.08892
1470.0,0.088772
1475.0,0.088954
1480.0,0.089167
1485.0,0.089129
1490.0,0.089097
1495.0,0.089555
1500.0,0.089758
1505.0,0.089817
1510.0,0.089828
1515.0,0.089767
1520.0,0.089685
1525.0,0.089833
1530.0,0.090103
1535.0,0.090709
1540.0,0.090979
1545.0,0.090677
1550.0,0.090691
1555.0,0.091007
1560.0,0.090411
1565.0,0.090884
1570.0,0.091104
1575.0,0.091439
1580.0,0.091592
1585.0,0.091732
1590.0,0.091532
1595.0,0.091545
1600.0,0.092062
1605.0,0.091671
1610.0,0.091936
1615.0,0.092085
1620.0,0.092027
1625.0,0.09226
1630.0,0.092172
1635.0,0.092345
1640.0,0.092929
1645.0,0.092498
1650.0,0.093076
1655.0,0.092857
1660.0,0.093142
1665.0,0.092394
1670.0,0.09304
1675.0,0.092998
1680.0,0.092989
1685.0,0.093066
1690.0,0.093395
1695.0,0.093188
1700.0,0.09343
1705.0,0.093821
1710.0,0.093517
1715.0,0.093629
1720.0,0.093844
1725.0,0.093998
1730.0,0.094061
1735.0,0.093833
1740.0,0.093884
1745.0,0.094057
1750.0,0.094271
1755.0,0.094059
1760.0,0.094139
1765.0,0.094188
1770.0,0.094311
1775.0,0.094693
1780.0,0.09473
1785.0,0.094802
1790.0,0.094899
1795.0,0.095105
1800.0,0.095009
1805.0,0.094759
1810.0,0.094975
1815.0,0.09537
1820.0,0.095262
1825.0,0.095348
1830.0,0.095381
1835.0,0.095402
1840.0,0.095265
1845.0,0.095213
1850.0,0.095071
1855.0,0.09554
1860.0,0.095689
1865.0,0.095578
1870.0,0.095601
1875.0,0.095189
1880.0,0.095762
1885.0,0.095528
1890.0,0.095998
1895.0,0.09608
1900.0,0.09634
1905.0,0.095945
1910.0,0.095929
1915.0,0.095724
1920.0,0.095973
1925.0,0.096041
1930.0,0.09624
1935.0,0.096247
1940.0,0.096425
1945.0,0.096367
1950.0,0.09684
1955.0,0.096582
1960.0,0.096666
1965.0,0.096652
1970.0,0.096481
1975.0,0.096649
1980.0,0.096859
1985.0,0.096828
1990.0,0.096811
1995.0,0.096858
2000.0,0.097076
2005.0,0.096974
2010.0,0.097197
2015.0,0.097308
2020.0,0.097401
2025.0,0.097394
2030.0,0.097549
2035.0,0.097706
2040.0,0.097457
2045.0,0.09758
2050.0,0.097709
2055.0,0.097532
2060.0,0.097926
2065.0,0.097756
2070.0,0.097792
2075.0,0.098185
2080.0,0.09834
2085.0,0.098248
2090.0,0.098074
2095.0,0.098146
2100.0,0.098173
2105.0,0.098164
2110.0,0.098129
2115.0,0.09824
2120.0,0.098507
2125.0,0.098471
2130.0,0.098577
2135.0,0.098184
2140.0,0.098542
2145.0,0.098386
2150.0,0.098611
2155.0,0.098649
2160.0,0.098539
2165.0,0.098458
2170.0,0.098545
2175.0,0.09877
2180.0,0.098934
2185.0,0.098939
2190.0,0.098971
2195.0,0.099227
2200.0,0.098962
2205.0,0.098669
2210.0,0.099061
2215.0,0.099245
2220.0,0.099314
2225.0,0.099565
2230.0,0.099683
2235.0,0.099514
2240.0,0.099603
2245.0,0.099735
2250.0,0.099876
2255.0,0.09989
2260.0,0.100069
2265.0,0.100114
2270.0,0.100348
2275.0,0.100445
2280.0,0.100337
2285.0,0.100602
2290.0,0.100531
2295.0,0.10058
2300.0,0.100744
2305.0,0.100877
2310.0,0.100651
2315.0,0.100786
2320.0,0.100834
2325.0,0.100778
2330.0,0.100875
2335.0,0.100797
2340.0,0.101065
2345.0,0.100967
2350.0,0.100853
2355.0,0.101034
2360.0,0.101219
2365.0,0.101005
2370.0,0.101211
2375.0,0.10091
2380.0,0.10121
2385.0,0.101309
2390.0,0.101583
2395.0,0.101119
2400.0,0.101511
2405.0,0.101387
2410.0,0.101374
2415.0,0.101066
2420.0,0.101245
2425.0,0.101403
2430.0,0.10146
2435.0,0.101456
2440.0,0.101451
2445.0,0.101584
2450.0,0.101475
2455.0,0.101447
2460.0,0.101519
2465.0,0.101595
2470.0,0.10179
2475.0,0.101528
2480.0,0.101614
2485.0,0.101677
2490.0,0.101526
2495.0,0.101656
2500.0,0.101944
2505.0,0.101814
2510.0,0.101963
2515.0,0.102206
2520.0,0.10217
2525.0,0.102119
2530.0,0.102415
2535.0,0.102386
2540.0,0.10251
2545.0,0.10354
2550.0,0.102826
2555.0,0.103503
2560.0,0.103449
2565.0,0.102964
2570.0,0.10288
2575.0,0.102723
2580.0,0.10394
2585.0,0.103287
2590.0,0.10343
2595.0,0.103113
2600.0,0.10376
