Database of Origin,University of Winnipeg Spectrophotometer Facility
Sample Description,Merged RELAB + Nicolet data for hydroxides. See Master Hydroxides on HOSERLab website for additional info.
Date Added,2016-11-29 18:11:56.311362

Data ID,RLA_HYD_08          
Sample ID,OOH004
Mineral Name,Gibbsite
Grain Size,45-90
Viewing Geometry,"30/0,30"
Resolution,5/0.6-129
Material Class,Hydroxide

Wavelength
320.0,0.422405
325.0,0.435087
330.0,0.445556
335.0,0.454648
340.0,0.462628
345.0,0.46935
350.0,0.474853
355.0,0.482484
360.0,0.485863
365.0,0.491198
370.0,0.495539
375.0,0.501897
380.0,0.506301
385.0,0.512909
390.0,0.518426
395.0,0.525211
400.0,0.528321
405.0,0.535875
410.0,0.537978
415.0,0.543747
420.0,0.547967
425.0,0.556162
430.0,0.562991
435.0,0.571283
440.0,0.578345
445.0,0.58523
450.0,0.590187
455.0,0.597131
460.0,0.597003
465.0,0.602445
470.0,0.604008
475.0,0.608366
480.0,0.610801
485.0,0.616611
490.0,0.619487
495.0,0.624285
500.0,0.62857
505.0,0.633684
510.0,0.637929
515.0,0.643808
520.0,0.650624
525.0,0.655014
530.0,0.660881
535.0,0.666111
540.0,0.670411
545.0,0.677742
550.0,0.682015
555.0,0.689081
560.0,0.693576
565.0,0.700294
570.0,0.702121
575.0,0.708433
580.0,0.710837
585.0,0.714567
590.0,0.716227
595.0,0.720062
600.0,0.719634
605.0,0.721664
610.0,0.723926
615.0,0.725552
620.0,0.725356
625.0,0.7277
630.0,0.728407
635.0,0.731142
640.0,0.731373
645.0,0.733819
650.0,0.733687
655.0,0.737302
660.0,0.737364
665.0,0.740077
670.0,0.740858
675.0,0.743878
680.0,0.745587
685.0,0.747063
690.0,0.749716
695.0,0.750847
700.0,0.751834
705.0,0.752359
710.0,0.753869
715.0,0.755867
720.0,0.754805
725.0,0.757069
730.0,0.757896
735.0,0.759812
740.0,0.759858
745.0,0.760842
750.0,0.76085
755.0,0.762877
760.0,0.761975
765.0,0.765032
770.0,0.765408
775.0,0.76622
780.0,0.767859
785.0,0.768459
790.0,0.769721
795.0,0.77033
800.0,0.771675
805.0,0.772467
810.0,0.773242
815.0,0.772634
820.0,0.772963
825.0,0.773399
830.0,0.774459
835.0,0.774981
840.0,0.775731
845.0,0.775529
850.0,0.776501
855.0,0.776888
860.0,0.777613
865.0,0.77752
870.0,0.77826
875.0,0.778602
880.0,0.779747
885.0,0.780346
890.0,0.77993
895.0,0.780784
900.0,0.78096
905.0,0.781445
910.0,0.78101
915.0,0.781902
920.0,0.781048
925.0,0.781322
930.0,0.781187
935.0,0.782305
940.0,0.781072
945.0,0.78072
950.0,0.778072
955.0,0.775724
960.0,0.772966
965.0,0.770164
970.0,0.767498
975.0,0.766517
980.0,0.769464
985.0,0.770724
990.0,0.768197
995.0,0.762246
1000.0,0.760286
1005.0,0.772212
1010.0,0.781016
1015.0,0.785512
1020.0,0.78889
1025.0,0.791788
1030.0,0.793044
1035.0,0.795034
1040.0,0.795399
1045.0,0.79729
1050.0,0.797692
1055.0,0.798266
1060.0,0.798556
1065.0,0.798867
1070.0,0.800387
1075.0,0.799602
1080.0,0.800916
1085.0,0.800715
1090.0,0.801764
1095.0,0.801466
1100.0,0.801739
1105.0,0.801373
1110.0,0.801707
1115.0,0.801781
1120.0,0.801969
1125.0,0.801326
1130.0,0.800956
1135.0,0.800997
1140.0,0.800799
1145.0,0.800332
1150.0,0.79958
1155.0,0.799567
1160.0,0.798877
1165.0,0.798161
1170.0,0.797714
1175.0,0.797621
1180.0,0.797644
1185.0,0.797208
1190.0,0.797206
1195.0,0.796767
1200.0,0.797047
1205.0,0.795585
1210.0,0.79644
1215.0,0.795018
1220.0,0.793331
1225.0,0.791429
1230.0,0.788018
1235.0,0.784826
1240.0,0.779826
1245.0,0.774698
1250.0,0.767897
1255.0,0.759346
1260.0,0.750237
1265.0,0.739699
1270.0,0.72741
1275.0,0.722363
1280.0,0.723129
1285.0,0.724628
1290.0,0.722552
1295.0,0.719133
1300.0,0.712409
1305.0,0.70572
1310.0,0.702848
1315.0,0.702509
1320.0,0.701745
1325.0,0.703378
1330.0,0.706594
1335.0,0.708269
1340.0,0.707031
1345.0,0.707317
1350.0,0.70726
1355.0,0.705687
1360.0,0.700927
1365.0,0.692805
1370.0,0.679721
1375.0,0.662392
1380.0,0.64042
1385.0,0.615539
1390.0,0.58311
1395.0,0.523359
1400.0,0.448101
1405.0,0.47736
1410.0,0.459623
1415.0,0.406064
1420.0,0.377214
1425.0,0.395985
1430.0,0.392608
1435.0,0.355117
1440.0,0.337377
1445.0,0.335322
1450.0,0.306886
1455.0,0.313329
1460.0,0.332366
1465.0,0.356957
1470.0,0.414416
1475.0,0.45522
1480.0,0.47939
1485.0,0.49515
1490.0,0.504286
1495.0,0.507888
1500.0,0.503073
1505.0,0.494367
1510.0,0.480432
1515.0,0.465554
1520.0,0.454913
1525.0,0.455916
1530.0,0.459336
1535.0,0.459619
1540.0,0.454984
1545.0,0.448575
1550.0,0.444176
1555.0,0.447744
1560.0,0.459161
1565.0,0.475497
1570.0,0.490119
1575.0,0.503144
1580.0,0.513438
1585.0,0.523427
1590.0,0.533036
1595.0,0.542011
1600.0,0.551114
1605.0,0.559139
1610.0,0.567018
1615.0,0.574304
1620.0,0.580885
1625.0,0.585926
1630.0,0.590668
1635.0,0.595219
1640.0,0.598611
1645.0,0.60147
1650.0,0.604531
1655.0,0.606717
1660.0,0.609461
1665.0,0.611143
1670.0,0.612198
1675.0,0.613438
1680.0,0.614797
1685.0,0.615284
1690.0,0.616147
1695.0,0.616074
1700.0,0.616754
1705.0,0.617558
1710.0,0.617385
1715.0,0.617329
1720.0,0.616641
1725.0,0.61589
1730.0,0.614736
1735.0,0.614134
1740.0,0.611744
1745.0,0.610478
1750.0,0.608142
1755.0,0.605927
1760.0,0.602547
1765.0,0.599496
1770.0,0.594494
1775.0,0.587844
1780.0,0.57928
1785.0,0.572629
1790.0,0.56554
1795.0,0.560738
1800.0,0.556752
1805.0,0.55353
1810.0,0.548728
1815.0,0.544023
1820.0,0.536279
1825.0,0.53062
1830.0,0.527309
1835.0,0.525497
1840.0,0.524688
1845.0,0.523112
1850.0,0.519186
1855.0,0.516588
1860.0,0.515479
1865.0,0.513991
1870.0,0.511138
1875.0,0.506872
1880.0,0.49967
1885.0,0.492546
1890.0,0.482515
1895.0,0.473522
1900.0,0.463487
1905.0,0.453702
1910.0,0.445158
1915.0,0.438076
1920.0,0.430623
1925.0,0.425582
1930.0,0.421045
1935.0,0.418291
1940.0,0.415732
1945.0,0.41506
1950.0,0.41281
1955.0,0.411414
1960.0,0.409791
1965.0,0.410057
1970.0,0.408237
1975.0,0.408636
1980.0,0.407782
1985.0,0.406634
1990.0,0.406768
1995.0,0.406839
2000.0,0.405658
2005.0,0.406227
2010.0,0.405325
2015.0,0.404235
2020.0,0.403064
2025.0,0.403377
2030.0,0.401938
2035.0,0.402567
2040.0,0.401551
2045.0,0.401901
2050.0,0.400289
2055.0,0.399822
2060.0,0.398264
2065.0,0.397953
2070.0,0.396138
2075.0,0.395941
2080.0,0.394756
2085.0,0.393447
2090.0,0.392608
2095.0,0.39457
2100.0,0.392678
2105.0,0.391979
2110.0,0.390387
2115.0,0.386779
2120.0,0.381095
2125.0,0.37363
2130.0,0.366116
2135.0,0.359833
2140.0,0.353107
2145.0,0.346679
2150.0,0.336886
2155.0,0.323724
2160.0,0.306874
2165.0,0.291988
2170.0,0.276451
2175.0,0.264792
2180.0,0.25178
2185.0,0.242497
2190.0,0.23608
2195.0,0.228885
2200.0,0.215382
2205.0,0.201964
2210.0,0.191094
2215.0,0.186257
2220.0,0.180988
2225.0,0.173875
2230.0,0.163878
2235.0,0.153246
2240.0,0.139275
2245.0,0.122338
2250.0,0.102467
2255.0,0.090846
2260.0,0.084084
2265.0,0.076623
2270.0,0.070099
2275.0,0.073227
2280.0,0.083284
2285.0,0.095146
2290.0,0.102604
2295.0,0.109607
2300.0,0.114074
2305.0,0.115949
2310.0,0.115559
2315.0,0.116012
2320.0,0.116846
2325.0,0.120461
2330.0,0.124109
2335.0,0.127574
2340.0,0.127719
2345.0,0.126562
2350.0,0.121634
2355.0,0.118499
2360.0,0.117605
2365.0,0.118221
2370.0,0.117674
2375.0,0.118727
2380.0,0.118892
2385.0,0.120628
2390.0,0.12093
2395.0,0.120781
2400.0,0.120767
2405.0,0.121315
2410.0,0.12187
2415.0,0.125268
2420.0,0.126662
2425.0,0.128783
2430.0,0.129019
2435.0,0.131753
2440.0,0.13323
2445.0,0.13626
2450.0,0.138496
2455.0,0.13995
2460.0,0.140429
2465.0,0.141373
2470.0,0.139539
2475.0,0.138732
2480.0,0.135494
2485.0,0.132489
2490.0,0.129074
2495.0,0.126541
2500.0,0.124329
2502.0,0.124059
2503.2,0.124028
2504.41,0.123789
2505.62,0.124165
2506.83,0.124137
2508.05,0.123693
2509.26,0.123336
2510.48,0.12251
2511.69,0.122311
2512.91,0.122367
2514.13,0.122089
2515.35,0.121803
2516.57,0.121757
2517.79,0.121396
2519.02,0.120817
2520.24,0.120616
2521.47,0.120691
2522.69,0.120573
2523.92,0.119648
2525.15,0.119409
2526.38,0.119804
2527.61,0.119636
2528.85,0.11926
2530.08,0.119096
2531.32,0.118448
2532.55,0.118032
2533.79,0.117506
2535.03,0.11663
2536.27,0.115837
2537.51,0.11551
2538.75,0.114478
2540.0,0.112729
2541.24,0.111617
2542.49,0.110572
2543.74,0.108738
2544.99,0.107057
2546.24,0.105606
2547.49,0.104632
2548.74,0.103565
2549.99,0.102264
2551.25,0.101324
2552.5,0.100532
2553.76,0.099804
2555.02,0.099276
2556.28,0.098727
2557.54,0.098242
2558.8,0.097493
2560.07,0.096253
2561.33,0.095386
2562.6,0.09486
2563.86,0.094078
2565.13,0.093284
2566.4,0.092802
2567.67,0.092291
2568.95,0.091436
2570.22,0.090287
2571.5,0.089668
2572.77,0.089382
2574.05,0.089046
2575.33,0.088349
2576.61,0.088
2577.89,0.087782
2579.17,0.087167
2580.46,0.086464
2581.74,0.086383
2583.03,0.085997
2584.31,0.085428
2585.6,0.085017
2586.89,0.084016
2588.19,0.083041
2589.48,0.082221
2590.77,0.081611
2592.07,0.081371
2593.36,0.081151
2594.66,0.080394
2595.96,0.079931
2597.26,0.079905
2598.56,0.080048
2599.87,0.080346
2601.17,0.079765
2602.48,0.078999
2603.78,0.078939
2605.09,0.078981
2606.4,0.078475
2607.71,0.077989
2609.03,0.078013
2610.34,0.078024
2611.66,0.077655
2612.97,0.077325
2614.29,0.07706
2615.61,0.077021
2616.93,0.076904
2618.25,0.076825
2619.57,0.076774
2620.9,0.076465
2622.22,0.076375
2623.55,0.076321
2624.88,0.075843
2626.21,0.075458
2627.54,0.075342
2628.87,0.074724
2630.21,0.074355
2631.54,0.073808
2632.88,0.073072
2634.21,0.072663
2635.55,0.072263
2636.89,0.071394
2638.24,0.070816
2639.58,0.070548
2640.92,0.070144
2642.27,0.069843
2643.62,0.069171
2644.97,0.068448
2646.32,0.06803
2647.67,0.067279
2649.02,0.066672
2650.38,0.066195
2651.73,0.06528
2653.09,0.064285
2654.45,0.063316
2655.81,0.062309
2657.17,0.061537
2658.53,0.061017
2659.89,0.060325
2661.26,0.059565
2662.63,0.059242
2664.0,0.058525
2665.36,0.057451
2666.74,0.05656
2668.11,0.055651
2669.48,0.054772
2670.86,0.05404
2672.23,0.053057
2673.61,0.052227
2674.99,0.051624
2676.37,0.050939
2677.76,0.049951
2679.14,0.048727
2680.52,0.047386
2681.91,0.046204
2683.3,0.045214
2684.69,0.04394
2686.08,0.042316
2687.47,0.041124
2688.87,0.040054
2690.26,0.038967
2691.66,0.037782
2693.06,0.036267
2694.46,0.034968
2695.86,0.033888
2697.26,0.032396
2698.66,0.031171
2700.07,0.030211
2701.48,0.029417
2702.89,0.028688
2704.3,0.027837
2705.71,0.026771
2707.12,0.026046
2708.53,0.02538
2709.95,0.025015
2711.37,0.024422
2712.79,0.023685
2714.21,0.023282
2715.63,0.022641
2717.05,0.021874
2718.48,0.02121
2719.9,0.020567
2721.33,0.019776
2722.76,0.018534
2724.19,0.017788
2725.62,0.017935
2727.06,0.017847
2728.49,0.017495
2729.93,0.017125
2731.37,0.016613
2732.81,0.015791
2734.25,0.014889
2735.69,0.014467
2737.14,0.014187
2738.58,0.013866
2740.03,0.01356
2741.48,0.012879
2742.93,0.012103
2744.38,0.011702
2745.83,0.011452
2747.29,0.011242
2748.75,0.011011
2750.2,0.010634
2751.66,0.010166
2753.13,0.010092
2754.59,0.010068
2756.05,0.009845
2757.52,0.009746
2758.99,0.009988
2760.46,0.010338
2761.93,0.010822
2763.4,0.011181
2764.87,0.011428
2766.35,0.011946
2767.82,0.012355
2769.3,0.012459
2770.78,0.012865
2772.26,0.013235
2773.75,0.013063
2775.23,0.013136
2776.72,0.013138
2778.21,0.012874
2779.7,0.013024
2781.19,0.013089
2782.68,0.012796
2784.18,0.012561
2785.67,0.012664
2787.17,0.012826
2788.67,0.012312
2790.17,0.011973
2791.67,0.012052
2793.18,0.011927
2794.68,0.01148
2796.19,0.011363
2797.7,0.011387
2799.21,0.011092
2800.72,0.010615
2802.24,0.010441
2803.75,0.010218
2805.27,0.009984
2806.79,0.009788
2808.31,0.009663
2809.83,0.009338
2811.35,0.008811
2812.88,0.008524
2814.41,0.008417
2815.93,0.008014
2817.46,0.007733
2819.0,0.007615
2820.53,0.007587
2822.07,0.00769
2823.6,0.007654
2825.14,0.007976
2826.68,0.008875
2828.22,0.009615
2829.77,0.010674
2831.31,0.011789
2832.86,0.013053
2834.41,0.014454
2835.96,0.015539
2837.51,0.016466
2839.07,0.016893
2840.62,0.017214
2842.18,0.017748
2843.74,0.018418
2845.3,0.018845
2846.86,0.018896
2848.43,0.019237
2849.99,0.019826
2851.56,0.020245
2853.13,0.020504
2854.7,0.020583
2856.27,0.020898
2857.85,0.021508
2859.42,0.021928
2861.0,0.022238
2862.58,0.02252
2864.16,0.022946
2865.75,0.023181
2867.33,0.02355
2868.92,0.023982
2870.51,0.024149
2872.1,0.024177
2873.69,0.024256
2875.28,0.024383
2876.88,0.024541
2878.48,0.024689
2880.07,0.024871
2881.68,0.025029
2883.28,0.02503
2884.88,0.024727
2886.49,0.024972
2888.1,0.025189
2889.71,0.025076
2891.32,0.02495
2892.93,0.024983
2894.55,0.024765
2896.16,0.024504
2897.78,0.024319
2899.4,0.024182
2901.03,0.024117
2902.65,0.024026
2904.28,0.023812
2905.91,0.023693
2907.54,0.023499
2909.17,0.023368
2910.8,0.023333
2912.44,0.02318
2914.07,0.023122
2915.71,0.022873
2917.35,0.022876
2918.99,0.022809
2920.64,0.022514
2922.29,0.022422
2923.93,0.022341
2925.58,0.021971
2927.24,0.021751
2928.89,0.021582
2930.55,0.021532
2932.2,0.021433
2933.86,0.021199
2935.52,0.021236
2937.19,0.021217
2938.85,0.021195
2940.52,0.021155
2942.19,0.021139
2943.86,0.021108
2945.53,0.021069
2947.21,0.021288
2948.88,0.021419
2950.56,0.021346
2952.24,0.021456
2953.92,0.021714
2955.61,0.021874
2957.29,0.021926
2958.98,0.021997
2960.67,0.022056
2962.36,0.022192
2964.06,0.022298
2965.75,0.022221
2967.45,0.022167
2969.15,0.022462
2970.85,0.022609
2972.55,0.022737
2974.26,0.023097
2975.97,0.023146
2977.68,0.022864
2979.39,0.022694
2981.1,0.022928
2982.82,0.023146
2984.53,0.023261
2986.25,0.023145
2987.97,0.023077
2989.7,0.023302
2991.42,0.023349
2993.15,0.023314
2994.88,0.023317
2996.61,0.023083
2998.34,0.022972
3000.08,0.023098
3001.82,0.023319
3003.55,0.023469
3005.3,0.023416
3007.04,0.023372
3008.78,0.023452
3010.53,0.023561
3012.28,0.023551
3014.03,0.023553
3015.79,0.023491
3017.54,0.023628
3019.3,0.023692
3021.06,0.023368
3022.82,0.023338
3024.58,0.02361
3026.35,0.0235
3028.12,0.023259
3029.89,0.023292
3031.66,0.02358
3033.43,0.023632
3035.21,0.023501
3036.99,0.023465
3038.77,0.023484
3040.55,0.02348
3042.33,0.023668
3044.12,0.023605
3045.91,0.023531
3047.7,0.023481
3049.49,0.023447
3051.29,0.023446
3053.08,0.023453
3054.88,0.023276
3056.68,0.02319
3058.49,0.023207
3060.29,0.023307
3062.1,0.02329
3063.91,0.023316
3065.72,0.023182
3067.54,0.023076
3069.35,0.023143
3071.17,0.023535
3072.99,0.02382
3074.81,0.02356
3076.64,0.023443
3078.47,0.02344
3080.29,0.023465
3082.13,0.023518
3083.96,0.02356
3085.79,0.023775
3087.63,0.02399
3089.47,0.023787
3091.31,0.02344
3093.16,0.023292
3095.01,0.023542
3096.85,0.0236
3098.71,0.023295
3100.56,0.02331
3102.41,0.023391
3104.27,0.023321
3106.13,0.02328
3107.99,0.023398
3109.86,0.023637
3111.73,0.024025
3113.59,0.023972
3115.47,0.023645
3117.34,0.023716
3119.21,0.023658
3121.09,0.023617
3122.97,0.023982
3124.86,0.024206
3126.74,0.024115
3128.63,0.023977
3130.52,0.023952
3132.41,0.024183
3134.3,0.024232
3136.2,0.024062
3138.1,0.024169
3140.0,0.024127
3141.9,0.024166
3143.81,0.024238
3145.71,0.024147
3147.62,0.024154
3149.54,0.02428
3151.45,0.02425
3153.37,0.02428
3155.29,0.024292
3157.21,0.024236
3159.13,0.024169
3161.06,0.024222
3162.99,0.024297
3164.92,0.024468
3166.85,0.024263
3168.79,0.024225
3170.72,0.024464
3172.67,0.024596
3174.61,0.024402
3176.55,0.024248
3178.5,0.024337
3180.45,0.024542
3182.4,0.024674
3184.36,0.024597
3186.32,0.024536
3188.27,0.024574
3190.24,0.024693
3192.2,0.024794
3194.17,0.024582
3196.14,0.024523
3198.11,0.024576
3200.08,0.024651
3202.06,0.024878
3204.04,0.025074
3206.02,0.025019
3208.0,0.02474
3209.99,0.024691
3211.98,0.024868
3213.97,0.024883
3215.96,0.024687
3217.96,0.024601
3219.96,0.024776
3221.96,0.024901
3223.96,0.024882
3225.97,0.024854
3227.98,0.024978
3229.99,0.025073
3232.0,0.025134
3234.02,0.025302
3236.04,0.025289
3238.06,0.025164
3240.08,0.025129
3242.11,0.025134
3244.14,0.025144
3246.17,0.025121
3248.2,0.02524
3250.24,0.025268
3252.28,0.025256
3254.32,0.025316
3256.37,0.025369
3258.41,0.025427
3260.46,0.025414
3262.51,0.025319
3264.57,0.025355
3266.63,0.025585
3268.69,0.025576
3270.75,0.025457
3272.81,0.025463
3274.88,0.025343
3276.95,0.025471
3279.02,0.025577
3281.1,0.025488
3283.18,0.025584
3285.26,0.025827
3287.34,0.025854
3289.43,0.0257
3291.51,0.025698
3293.61,0.025805
3295.7,0.025812
3297.8,0.025674
3299.9,0.025622
3302.0,0.025621
3304.1,0.025631
3306.21,0.025761
3308.32,0.025693
3310.43,0.025664
3312.55,0.025588
3314.66,0.02575
3316.79,0.025819
3318.91,0.025734
3321.03,0.025683
3323.16,0.025837
3325.29,0.025989
3327.43,0.025852
3329.57,0.025735
3331.71,0.025681
3333.85,0.025661
3335.99,0.025641
3338.14,0.025696
3340.29,0.025922
3342.45,0.026169
3344.6,0.026179
3346.76,0.026163
3348.92,0.02607
3351.09,0.026112
3353.26,0.02626
3355.43,0.026122
3357.6,0.026131
3359.78,0.026282
3361.96,0.026346
3364.14,0.02639
3366.32,0.026367
3368.51,0.026371
3370.7,0.02645
3372.89,0.026482
3375.09,0.026531
3377.29,0.02669
3379.49,0.027002
3381.69,0.027131
3383.9,0.026885
3386.11,0.026689
3388.32,0.026614
3390.54,0.026594
3392.76,0.026861
3394.98,0.02698
3397.21,0.026971
3399.43,0.027093
3401.66,0.027312
3403.9,0.027271
3406.13,0.027188
3408.37,0.027318
3410.61,0.027482
3412.86,0.027478
3415.11,0.027564
3417.36,0.027674
3419.61,0.027853
3421.87,0.027996
3424.13,0.027966
3426.39,0.028
3428.66,0.028118
3430.93,0.028098
3433.2,0.028245
3435.48,0.028176
3437.76,0.028028
3440.04,0.028181
3442.32,0.028338
3444.61,0.028434
3446.9,0.028441
3449.19,0.028517
3451.49,0.028722
3453.79,0.028905
3456.09,0.028914
3458.4,0.028832
3460.7,0.02893
3463.02,0.029122
3465.33,0.029181
3467.65,0.029032
3469.97,0.029146
3472.29,0.029335
3474.62,0.029462
3476.95,0.02955
3479.29,0.029455
3481.62,0.029485
3483.96,0.029825
3486.3,0.029929
3488.65,0.029917
3491.0,0.029843
3493.35,0.029817
3495.71,0.029893
3498.07,0.030085
3500.43,0.030224
3502.79,0.030233
3505.16,0.030329
3507.53,0.030379
3509.91,0.030517
3512.29,0.030794
3514.67,0.030861
3517.05,0.030804
3519.44,0.030769
3521.83,0.030696
3524.23,0.030853
3526.62,0.031166
3529.02,0.031376
3531.43,0.031545
3533.83,0.031619
3536.24,0.031588
3538.66,0.031567
3541.08,0.031725
3543.5,0.031887
3545.92,0.032066
3548.35,0.032207
3550.78,0.032372
3553.21,0.032627
3555.65,0.032716
3558.09,0.032853
3560.53,0.032967
3562.98,0.032962
3565.43,0.033003
3567.88,0.0331
3570.34,0.033274
3572.8,0.033431
3575.27,0.033627
3577.73,0.033938
3580.2,0.034165
3582.68,0.034186
3585.16,0.034286
3587.64,0.034416
3590.12,0.03442
3592.61,0.034466
3595.1,0.034622
3597.6,0.034807
3600.09,0.035066
3602.6,0.035207
3605.1,0.03534
3607.61,0.035434
3610.12,0.035643
3612.64,0.035928
3615.16,0.035987
3617.68,0.035957
3620.21,0.036081
3622.74,0.036217
3625.27,0.036306
3627.81,0.036436
3630.35,0.036732
3632.89,0.037048
3635.44,0.037251
3637.99,0.037402
3640.54,0.037414
3643.1,0.037552
3645.66,0.03773
3648.23,0.037891
3650.8,0.038187
3653.37,0.038288
3655.95,0.038286
3658.53,0.038438
3661.11,0.038492
3663.7,0.038559
3666.29,0.038717
3668.89,0.038935
3671.48,0.039155
3674.09,0.039329
3676.69,0.039544
3679.3,0.039772
3681.91,0.039939
3684.53,0.04
3687.15,0.039991
3689.78,0.040113
3692.4,0.040185
3695.04,0.04036
3697.67,0.040693
3700.31,0.040722
3702.95,0.040643
3705.6,0.040755
3708.25,0.041051
3710.91,0.041243
3713.56,0.04137
3716.23,0.041629
3718.89,0.041788
3721.56,0.041833
3724.23,0.041948
3726.91,0.042133
3729.59,0.042373
3732.28,0.042522
3734.97,0.042598
3737.66,0.042606
3740.36,0.042639
3743.06,0.042654
3745.76,0.042751
3748.47,0.042991
3751.18,0.043111
3753.9,0.043197
3756.62,0.043395
3759.34,0.043438
3762.07,0.043432
3764.8,0.043524
3767.54,0.043709
3770.28,0.043855
3773.02,0.043945
3775.77,0.044088
3778.52,0.044176
3781.28,0.044193
3784.04,0.044469
3786.8,0.04469
3789.57,0.04476
3792.34,0.044771
3795.12,0.04472
3797.9,0.044779
3800.69,0.04497
3803.47,0.045246
3806.27,0.045389
3809.06,0.045503
3811.86,0.045641
3814.67,0.045653
3817.48,0.045686
3820.29,0.045835
3823.11,0.045903
3825.93,0.046027
3828.76,0.046037
3831.59,0.046037
3834.42,0.04601
3837.26,0.045925
3840.1,0.045974
3842.95,0.046065
3845.8,0.046253
3848.65,0.046447
3851.51,0.046745
3854.38,0.047084
3857.24,0.047339
3860.12,0.047524
3862.99,0.047786
3865.87,0.047903
3868.76,0.047879
3871.65,0.048094
3874.54,0.048383
3877.44,0.048411
3880.34,0.048463
3883.25,0.04864
3886.16,0.048856
3889.07,0.049033
3891.99,0.049146
3894.92,0.049182
3897.85,0.04935
3900.78,0.049425
3903.72,0.049375
3906.66,0.049382
3909.6,0.049415
3912.55,0.049529
3915.51,0.049653
3918.47,0.049797
3921.43,0.049835
3924.4,0.049807
3927.38,0.049818
3930.35,0.049896
3933.33,0.050043
3936.32,0.0501
3939.31,0.050162
3942.31,0.050232
3945.31,0.050252
3948.31,0.05029
3951.32,0.050307
3954.34,0.050376
3957.35,0.050388
3960.38,0.050421
3963.41,0.050445
3966.44,0.050488
3969.48,0.050509
3972.52,0.050562
3975.56,0.050602
3978.61,0.050677
3981.67,0.050681
3984.73,0.050652
3987.8,0.050713
3990.87,0.050801
3993.94,0.05107
3997.02,0.051251
4000.1,0.051209
4003.19,0.051253
4006.29,0.051399
4009.39,0.051355
4012.49,0.05127
4015.6,0.051456
4018.71,0.051707
4021.83,0.051723
4024.95,0.051623
4028.08,0.051687
4031.21,0.051726
4034.35,0.051849
4037.49,0.051949
4040.64,0.052001
4043.79,0.052104
4046.94,0.05214
4050.11,0.052117
4053.27,0.0522
4056.44,0.05228
4059.62,0.052339
4062.8,0.052372
4065.99,0.052267
4069.18,0.052331
4072.38,0.052531
4075.58,0.052574
4078.78,0.052435
4082.0,0.052388
4085.21,0.052497
4088.43,0.052636
4091.66,0.052582
4094.89,0.052568
4098.13,0.052625
4101.37,0.052848
4104.62,0.052843
4107.87,0.052793
4111.13,0.052874
4114.39,0.052941
4117.66,0.053063
4120.93,0.053244
4124.21,0.053321
4127.5,0.053284
4130.79,0.053272
4134.08,0.053401
4137.38,0.053445
4140.68,0.053379
4143.99,0.053425
4147.31,0.053661
4150.63,0.05373
4153.95,0.053618
4157.29,0.05357
4160.62,0.05367
4163.96,0.053806
4167.31,0.053905
4170.66,0.054011
4174.02,0.054045
4177.39,0.05409
4180.75,0.054151
4184.13,0.054134
4187.51,0.054074
4190.89,0.054088
4194.28,0.054157
4197.68,0.054188
4201.08,0.054316
4204.49,0.05451
4207.9,0.054535
4211.32,0.054554
4214.74,0.0546
4218.17,0.054614
4221.61,0.054516
4225.05,0.05447
4228.5,0.054459
4231.95,0.054206
4235.4,0.054091
4238.87,0.053972
4242.34,0.053716
4245.81,0.05333
4249.29,0.052746
4252.78,0.051672
4256.27,0.050037
4259.77,0.048164
4263.27,0.045986
4266.78,0.044062
4270.29,0.043483
4273.81,0.044653
4277.34,0.046961
4280.87,0.049212
4284.41,0.050954
4287.95,0.052102
4291.5,0.053055
4295.06,0.053736
4298.62,0.054153
4302.19,0.05444
4305.76,0.054654
4309.34,0.054867
4312.92,0.055201
4316.52,0.055415
4320.11,0.055468
4323.72,0.055487
4327.32,0.05561
4330.94,0.055748
4334.56,0.055825
4338.19,0.055978
4341.82,0.056029
4345.46,0.055864
4349.11,0.055786
4352.76,0.055841
4356.42,0.055887
4360.08,0.055884
4363.75,0.05584
4367.43,0.055818
4371.11,0.055787
4374.8,0.055724
4378.49,0.055752
4382.19,0.055758
4385.9,0.0557
4389.61,0.055644
4393.33,0.055516
4397.06,0.055397
4400.79,0.055355
4404.53,0.055323
4408.28,0.055308
4412.03,0.055303
4415.79,0.055228
4419.55,0.055071
4423.32,0.054906
4427.1,0.054851
4430.88,0.054787
4434.68,0.054675
4438.47,0.054649
4442.28,0.054662
4446.08,0.054563
4449.9,0.054446
4453.72,0.054279
4457.55,0.054093
4461.39,0.053888
4465.23,0.053648
4469.08,0.053495
4472.94,0.05341
4476.8,0.053255
4480.67,0.053071
4484.55,0.052909
4488.43,0.052773
4492.32,0.052592
4496.21,0.052398
4500.12,0.052132
4504.03,0.05191
4507.94,0.051708
4511.87,0.051468
4515.8,0.05125
4519.73,0.051041
4523.68,0.050807
4527.63,0.050537
4531.59,0.050317
4535.55,0.050049
4539.52,0.049739
4543.5,0.049468
4547.49,0.0492
4551.48,0.048838
4555.48,0.048543
4559.49,0.048256
4563.5,0.047826
4567.52,0.047395
4571.55,0.047046
4575.58,0.046718
4579.63,0.046298
4583.67,0.045888
4587.73,0.045444
4591.79,0.04485
4595.86,0.044309
4599.94,0.043806
4604.03,0.043266
4608.12,0.042805
4612.22,0.042373
4616.33,0.04192
4620.44,0.041456
4624.56,0.040982
4628.69,0.040425
4632.83,0.039968
4636.97,0.03973
4641.12,0.039525
4645.28,0.039245
4649.45,0.038953
4653.62,0.038765
4657.8,0.038662
4661.99,0.038508
4666.19,0.038265
4670.39,0.03805
4674.6,0.037951
4678.82,0.037754
4683.05,0.037551
4687.28,0.037412
4691.52,0.037217
4695.77,0.036969
4700.03,0.036665
4704.3,0.036334
4708.57,0.036094
4712.85,0.035917
4717.14,0.035678
4721.43,0.035405
4725.74,0.035193
4730.05,0.034975
4734.37,0.034739
4738.7,0.034543
4743.03,0.034371
4747.38,0.034226
4751.73,0.034063
4756.09,0.033791
4760.45,0.033533
4764.83,0.033408
4769.21,0.033318
4773.6,0.033144
4778.0,0.032986
4782.41,0.032906
4786.83,0.032775
4791.25,0.03264
4795.68,0.032668
4800.13,0.03254
4804.57,0.032365
4809.03,0.03233
4813.5,0.032287
4817.97,0.032125
4822.45,0.032033
4826.94,0.032009
4831.44,0.031901
4835.95,0.031776
4840.46,0.031694
4844.99,0.031627
4849.52,0.031505
4854.06,0.03134
4858.61,0.031252
4863.17,0.031129
4867.73,0.031032
4872.31,0.031034
4876.89,0.030906
4881.48,0.030625
4886.08,0.030488
4890.69,0.030574
4895.31,0.030518
4899.94,0.030348
4904.57,0.030273
4909.22,0.030101
4913.87,0.029981
4918.53,0.029941
4923.21,0.029784
4927.88,0.02957
4932.57,0.029468
4937.27,0.029307
4941.98,0.029227
4946.69,0.029224
4951.42,0.029029
4956.15,0.028746
4960.9,0.028523
4965.65,0.0284
4970.41,0.02825
4975.18,0.028105
4979.96,0.028022
4984.75,0.02799
4989.54,0.027932
4994.35,0.027852
4999.17,0.027868
5003.99,0.027973
5008.83,0.02801
5013.67,0.02808
5018.52,0.028238
5023.39,0.028247
5028.26,0.028256
5033.14,0.028379
5038.03,0.028484
5042.93,0.028599
5047.84,0.028713
5052.76,0.02889
5057.69,0.029075
5062.63,0.029253
5067.58,0.029373
5072.54,0.029556
5077.51,0.029637
5082.49,0.029599
5087.47,0.029608
5092.47,0.029734
5097.48,0.029937
5102.5,0.030096
5107.52,0.030181
5112.56,0.030248
5117.61,0.030256
5122.66,0.030214
5127.73,0.030299
5132.81,0.030453
5137.89,0.030546
5142.99,0.030598
5148.1,0.030642
5153.22,0.03066
5158.34,0.030681
5163.48,0.030773
5168.63,0.030838
5173.79,0.030926
5178.96,0.031061
5184.13,0.031095
5189.32,0.031077
5194.52,0.031135
5199.73,0.031169
5204.96,0.031205
5210.19,0.031186
5215.43,0.031133
5220.68,0.030999
5225.94,0.030896
5231.22,0.030902
5236.5,0.030926
5241.79,0.030896
5247.1,0.030858
5252.42,0.030786
5257.74,0.030699
5263.08,0.030626
5268.43,0.03051
5273.79,0.03038
5279.16,0.030342
5284.54,0.030272
5289.93,0.030228
5295.34,0.030173
5300.75,0.030028
5306.18,0.030065
5311.61,0.030066
5317.06,0.030052
5322.52,0.029995
5327.99,0.029918
5333.47,0.029915
5338.96,0.029825
5344.47,0.029801
5349.98,0.029816
5355.51,0.029838
5361.05,0.0298
5366.6,0.029727
5372.16,0.029721
5377.73,0.02968
5383.32,0.029672
5388.91,0.029665
5394.52,0.029608
5400.14,0.029514
5405.77,0.029499
5411.41,0.029524
5417.07,0.029487
5422.74,0.029342
5428.41,0.029179
5434.1,0.029074
5439.81,0.029041
5445.52,0.02895
5451.25,0.028939
5456.98,0.028812
5462.73,0.02862
5468.5,0.028535
5474.27,0.028428
5480.06,0.028256
5485.86,0.028124
5491.67,0.028023
5497.49,0.027924
5503.33,0.027763
5509.18,0.027649
5515.04,0.027518
5520.91,0.027334
5526.8,0.02717
5532.69,0.027051
5538.61,0.026988
5544.53,0.026937
5550.47,0.026942
5556.41,0.02689
5562.38,0.026869
5568.35,0.026939
5574.34,0.026865
5580.34,0.026747
5586.35,0.026788
5592.38,0.026764
5598.42,0.026673
5604.47,0.026752
5610.54,0.026704
5616.61,0.02664
5622.71,0.026641
5628.81,0.026615
5634.93,0.026562
5641.06,0.026515
5647.21,0.026373
5653.36,0.026144
5659.54,0.026169
5665.72,0.026245
5671.92,0.026172
5678.13,0.026057
5684.36,0.026009
5690.6,0.025979
5696.85,0.025881
5703.12,0.025741
5709.4,0.025645
5715.69,0.025491
5722.0,0.025303
5728.33,0.025222
5734.66,0.025105
5741.01,0.024968
5747.38,0.024892
5753.76,0.024833
5760.15,0.024651
5766.56,0.024502
5772.98,0.024297
5779.41,0.024205
5785.86,0.02409
5792.33,0.023987
5798.81,0.023808
5805.3,0.023494
5811.81,0.02338
5818.33,0.02333
5824.87,0.023252
5831.42,0.022985
5837.99,0.022754
5844.57,0.022648
5851.17,0.022476
5857.78,0.022294
5864.41,0.022068
5871.05,0.021845
5877.7,0.021682
5884.38,0.021629
5891.06,0.021318
5897.76,0.021254
5904.48,0.021219
5911.21,0.02109
5917.96,0.02095
5924.73,0.020797
5931.5,0.02063
5938.3,0.020419
5945.11,0.020227
5951.93,0.020191
5958.78,0.020141
5965.63,0.020078
5972.51,0.020065
5979.39,0.019907
5986.3,0.019747
5993.22,0.019614
6000.16,0.019576
6007.11,0.019452
6014.08,0.019374
6021.06,0.01933
6028.06,0.019223
6035.08,0.01923
6042.12,0.019261
6049.17,0.019205
6056.23,0.019023
6063.32,0.018864
6070.42,0.018915
6077.53,0.01881
6084.67,0.018706
6091.82,0.018773
6098.98,0.018824
6106.17,0.018686
6113.37,0.018724
6120.58,0.018782
6127.82,0.018653
6135.07,0.018634
6142.34,0.018708
6149.63,0.018754
6156.93,0.018768
6164.25,0.018785
6171.59,0.018724
6178.95,0.018774
6186.32,0.018798
6193.71,0.018866
6201.12,0.018987
6208.54,0.018904
6215.99,0.018851
6223.45,0.019011
6230.93,0.019123
6238.43,0.019071
6245.95,0.01903
6253.48,0.019041
6261.03,0.019033
6268.6,0.019073
6276.19,0.019142
6283.8,0.019055
6291.43,0.018969
6299.07,0.018964
6306.73,0.018825
6314.42,0.018834
6322.12,0.018894
6329.84,0.0188
6337.57,0.018787
6345.33,0.018729
6353.11,0.018512
6360.9,0.018502
6368.72,0.01865
6376.55,0.018621
6384.4,0.018433
6392.27,0.018373
6400.17,0.018367
6408.08,0.018331
6416.01,0.018334
6423.96,0.01834
6431.93,0.018252
6439.92,0.018185
6447.93,0.018071
6455.96,0.018011
6464.01,0.017988
6472.08,0.018002
6480.17,0.017928
6488.28,0.017922
6496.41,0.017916
6504.56,0.017854
6512.73,0.017952
6520.92,0.018078
6529.14,0.018088
6537.37,0.018111
6545.63,0.018273
6553.9,0.018426
6562.2,0.018519
6570.51,0.018659
6578.85,0.018773
6587.21,0.018838
6595.59,0.018996
6603.99,0.019051
6612.42,0.01908
6620.86,0.019117
6629.33,0.019115
6637.82,0.019324
6646.33,0.019371
6654.86,0.019224
6663.41,0.01932
6671.99,0.019462
6680.59,0.01949
6689.21,0.019332
6697.85,0.019262
6706.51,0.019288
6715.2,0.019322
6723.91,0.019393
6732.64,0.019303
6741.4,0.019212
6750.18,0.019179
6758.98,0.019047
6767.8,0.018884
6776.65,0.018801
6785.52,0.018839
6794.41,0.018786
6803.33,0.018688
6812.27,0.018699
6821.23,0.018666
6830.22,0.018597
6839.23,0.018509
6848.26,0.018488
6857.32,0.018501
6866.4,0.018506
6875.51,0.018495
6884.64,0.018552
6893.8,0.018606
6902.98,0.018552
6912.18,0.018458
6921.41,0.018481
6930.66,0.018563
6939.94,0.018586
6949.24,0.018548
6958.57,0.018497
6967.92,0.018462
6977.3,0.018401
6986.7,0.018517
6996.13,0.018575
7005.59,0.018579
7015.07,0.018657
7024.57,0.018723
7034.1,0.018679
7043.66,0.018772
7053.25,0.01886
7062.85,0.018883
7072.49,0.018985
7082.15,0.019087
7091.84,0.01917
7101.55,0.019284
7111.3,0.019273
7121.06,0.01925
7130.86,0.019312
7140.68,0.019345
7150.53,0.019345
7160.41,0.019299
7170.31,0.019232
7180.24,0.019135
7190.2,0.018976
7200.19,0.018947
7210.2,0.019
7220.24,0.018945
7230.31,0.018927
7240.41,0.018952
7250.54,0.018992
7260.69,0.018939
7270.88,0.018886
7281.09,0.018921
7291.33,0.018949
7301.6,0.018999
7311.9,0.018976
7322.22,0.018878
7332.58,0.018904
7342.97,0.018998
7353.38,0.019113
7363.83,0.019201
7374.3,0.019254
7384.81,0.019348
7395.34,0.019459
7405.91,0.019573
7416.5,0.019699
7427.13,0.019792
7437.78,0.019828
7448.47,0.019909
7459.19,0.020047
7469.94,0.020092
7480.71,0.020122
7491.52,0.020228
7502.37,0.020377
7513.24,0.020526
7524.14,0.020633
7535.08,0.020702
7546.05,0.020712
7557.05,0.020848
7568.08,0.020986
7579.15,0.021086
7590.24,0.021148
7601.37,0.021148
7612.53,0.021155
7623.73,0.021222
7634.96,0.021313
7646.22,0.021298
7657.51,0.021245
7668.84,0.021273
7680.2,0.021332
7691.59,0.02131
7703.02,0.021268
7714.49,0.021242
7725.98,0.021167
7737.52,0.021203
7749.08,0.021202
7760.68,0.021091
7772.32,0.021053
7783.99,0.021023
7795.69,0.020891
7807.43,0.020778
7819.21,0.020718
7831.02,0.020688
7842.87,0.020508
7854.75,0.020317
7866.67,0.020299
7878.62,0.020275
7890.62,0.020171
7902.64,0.020169
7914.71,0.020174
7926.81,0.019976
7938.95,0.019754
7951.13,0.019657
7963.34,0.019635
7975.59,0.01948
7987.88,0.019218
8000.21,0.019108
8012.57,0.019012
8024.98,0.0188
8037.42,0.018771
8049.9,0.018636
8062.42,0.018461
8074.98,0.018337
8087.57,0.018196
8100.21,0.018049
8112.89,0.017938
8125.6,0.01781
8138.36,0.017674
8151.16,0.017526
8163.99,0.017457
8176.87,0.017279
8189.79,0.017021
8202.75,0.016804
8215.75,0.016709
8228.79,0.01655
8241.87,0.016303
8254.99,0.016082
8268.16,0.015804
8281.37,0.01557
8294.62,0.015427
8307.91,0.015105
8321.24,0.014859
8334.62,0.014802
8348.04,0.014659
8361.51,0.014426
8375.02,0.014227
8388.57,0.013968
8402.16,0.013821
8415.8,0.013612
8429.49,0.013334
8443.22,0.013145
8456.99,0.012861
8470.81,0.012513
8484.67,0.012379
8498.58,0.012221
8512.54,0.012056
8526.54,0.0118
8540.58,0.01157
8554.68,0.011364
8568.82,0.011207
8583.0,0.011059
8597.24,0.010872
8611.52,0.010708
8625.85,0.010563
8640.23,0.010458
8654.65,0.010253
8669.12,0.010021
8683.64,0.010082
8698.21,0.010207
8712.83,0.010125
8727.5,0.009983
8742.22,0.010008
8756.99,0.010119
8771.8,0.010272
8786.67,0.010507
8801.59,0.010813
8816.56,0.011064
8831.58,0.011357
8846.65,0.01185
8861.77,0.012343
8876.94,0.012923
8892.17,0.013599
8907.45,0.014531
8922.78,0.015537
8938.16,0.016577
8953.6,0.017902
8969.09,0.019553
8984.64,0.021282
9000.23,0.023139
9015.89,0.025501
9031.59,0.027949
9047.36,0.0305
9063.17,0.033432
9079.05,0.036539
9094.97,0.039569
9110.96,0.042437
9127.0,0.045273
9143.1,0.047918
9159.25,0.050614
9175.46,0.053587
9191.73,0.056932
9208.06,0.060741
9224.44,0.064846
9240.88,0.068905
9257.38,0.072777
9273.94,0.076393
9290.56,0.079861
9307.24,0.083188
9323.98,0.08619
9340.78,0.088607
9357.64,0.090607
9374.57,0.092218
9391.55,0.093593
9408.59,0.094518
9425.7,0.095085
9442.87,0.095264
9460.1,0.095067
9477.4,0.09449
9494.75,0.093723
9512.17,0.09272
9529.66,0.091773
9547.21,0.090754
9564.83,0.089621
9582.5,0.088446
9600.25,0.087298
9618.06,0.085727
9635.94,0.084174
9653.88,0.082459
9671.89,0.0806
9689.97,0.078755
9708.12,0.076852
9726.33,0.074551
9744.62,0.072243
9762.97,0.070036
9781.39,0.067763
9799.88,0.065361
9818.44,0.062933
9837.07,0.060388
9855.77,0.057836
9874.54,0.055316
9893.39,0.052752
9912.3,0.050062
9931.29,0.047635
9950.36,0.045408
9969.49,0.04315
9988.7,0.040851
10007.98,0.038598
10027.34,0.036724
10046.77,0.035189
10066.28,0.033579
10085.87,0.032218
10105.53,0.031103
10125.26,0.030064
10145.08,0.029145
10164.97,0.028396
10184.94,0.027721
10204.99,0.027473
10225.12,0.027377
10245.33,0.027302
10265.61,0.027454
10285.98,0.027769
10306.43,0.027997
10326.96,0.028136
10347.57,0.028014
10368.27,0.02767
10389.05,0.027414
10409.91,0.027083
10430.86,0.026418
10451.88,0.025669
10473.0,0.025073
10494.2,0.024452
10515.49,0.02377
10536.86,0.023202
10558.32,0.0227
10579.87,0.022236
10601.5,0.021825
10623.23,0.021464
10645.04,0.021128
10666.94,0.020989
10688.94,0.020733
10711.02,0.020462
10733.2,0.02004
10755.47,0.019703
10777.83,0.019499
10800.28,0.019148
10822.83,0.018792
10845.47,0.018597
10868.21,0.018689
10891.04,0.018864
10913.97,0.018799
10936.99,0.018772
10960.12,0.018934
10983.34,0.01903
11006.66,0.018778
11030.07,0.018376
11053.59,0.018095
11077.21,0.017705
11100.93,0.017369
11124.75,0.017174
11148.68,0.017068
11172.71,0.017024
11196.84,0.016887
11221.07,0.016979
11245.41,0.017284
11269.86,0.017712
11294.41,0.018201
11319.07,0.018689
11343.84,0.019494
11368.72,0.020381
11393.7,0.021057
11418.8,0.022016
11444.01,0.023158
11469.33,0.024453
11494.76,0.025834
11520.3,0.027143
11545.96,0.028431
11571.73,0.029704
11597.62,0.030715
11623.62,0.031752
11649.74,0.032905
11675.98,0.034126
11702.34,0.035193
11728.81,0.036012
11755.41,0.036954
11782.13,0.038046
11808.96,0.038856
11835.92,0.039613
11863.01,0.040224
11890.22,0.04088
11917.55,0.041588
11945.01,0.042123
11972.6,0.042404
12000.31,0.042728
12028.16,0.043026
12056.13,0.043279
12084.23,0.043729
12112.46,0.04434
12140.83,0.044836
12169.33,0.045378
12197.96,0.046197
12226.73,0.047444
12255.64,0.048906
12284.68,0.050387
12313.86,0.051876
12343.18,0.053475
12372.64,0.05489
12402.24,0.056091
12431.98,0.057118
12461.86,0.058046
12491.89,0.058616
12522.07,0.058896
12552.38,0.059201
12582.85,0.05934
12613.47,0.059341
12644.23,0.059335
12675.15,0.05926
12706.21,0.059071
12737.43,0.058921
12768.81,0.058603
12800.33,0.058285
12832.02,0.058098
12863.86,0.057957
12895.86,0.057872
12928.02,0.057637
12960.34,0.057482
12992.82,0.057481
13025.46,0.057416
13058.27,0.057144
13091.25,0.057086
13124.39,0.05718
13157.7,0.057203
13191.18,0.057112
13224.83,0.056807
13258.66,0.056256
13292.65,0.055691
13326.83,0.055333
13361.17,0.054981
13395.7,0.054562
13430.4,0.054015
13465.29,0.05347
13500.35,0.052874
13535.6,0.052099
13571.03,0.051417
13606.65,0.050762
13642.46,0.050204
13678.46,0.049632
13714.64,0.048838
13751.02,0.048406
13787.59,0.04804
13824.36,0.047455
13861.32,0.046912
13898.49,0.046366
13935.85,0.045667
13973.41,0.045074
14011.17,0.044576
14049.15,0.044379
14087.32,0.044579
14125.71,0.044465
14164.3,0.043876
14203.11,0.04367
14242.13,0.043761
14281.36,0.04363
14320.81,0.04343
14360.49,0.043406
14400.38,0.043548
14440.49,0.043727
14480.82,0.043908
14521.39,0.043983
14562.18,0.044343
14603.2,0.045198
14644.45,0.046239
14685.93,0.047516
14727.66,0.048844
14769.62,0.050193
14811.81,0.051586
14854.25,0.052907
14896.94,0.05408
14939.87,0.055185
14983.05,0.055772
15026.48,0.056011
15070.16,0.056114
15114.1,0.056142
15158.29,0.055951
15202.74,0.055279
15247.46,0.054676
15292.43,0.054066
15337.68,0.053236
15383.19,0.052813
15428.97,0.052678
15475.03,0.052119
15521.36,0.051831
15567.97,0.052046
15614.87,0.05233
15662.04,0.052877
15709.5,0.053604
15757.25,0.054358
15805.29,0.055234
15853.62,0.056086
15902.26,0.056943
15951.19,0.057786
16000.42,0.058638
16049.95,0.059022
16099.8,0.05927
16149.95,0.059926
16200.42,0.060627
16251.21,0.061013
16302.31,0.061484
16353.74,0.062418
16405.49,0.063319
16457.57,0.064541
16509.98,0.066394
16562.73,0.068669
16615.82,0.071305
16669.24,0.073794
16723.02,0.075822
16777.14,0.077836
16831.61,0.079874
16886.43,0.081593
16941.62,0.082783
16997.16,0.083737
17053.08,0.084741
17109.36,0.085529
17166.01,0.086553
17223.04,0.087581
17280.45,0.088203
17338.24,0.089324
17396.43,0.090684
17455.0,0.092021
17513.97,0.093752
17573.34,0.095817
17633.11,0.097852
17693.29,0.099497
17753.89,0.101008
17814.9,0.10244
17876.33,0.102899
17938.18,0.102273
18000.47,0.100392
18063.19,0.09762
18126.35,0.094483
18189.95,0.092002
18254.0,0.089859
18318.5,0.088257
18383.46,0.087648
18448.88,0.088049
18514.77,0.089096
18581.13,0.089747
18647.97,0.090543
18715.29,0.091745
18783.1,0.092859
18851.4,0.09375
18920.2,0.093904
18989.51,0.093874
19059.32,0.093898
19129.65,0.093501
19200.5,0.09334
19271.88,0.093768
19343.79,0.094483
19416.24,0.094656
19489.23,0.094429
19562.77,0.093657
19636.88,0.092926
19711.54,0.092464
19786.78,0.09212
19862.59,0.092211
19938.98,0.093325
20015.96,0.09379
20093.55,0.093647
20171.73,0.092688
20250.53,0.091204
20329.94,0.08981
20409.98,0.088817
20490.65,0.087652
20571.96,0.086094
20653.92,0.084792
20736.54,0.084448
20819.82,0.084081
20903.77,0.083357
20988.4,0.082586
21073.72,0.081277
21159.73,0.080072
21246.46,0.07901
21333.89,0.076664
21422.04,0.07437
21510.93,0.072525
21600.56,0.070947
21690.94,0.069202
21782.08,0.06818
21873.99,0.067735
21966.67,0.068649
22060.15,0.070776
22154.42,0.072454
22249.51,0.073363
22345.41,0.073868
22442.14,0.073707
22539.72,0.072637
22638.14,0.07151
22737.43,0.070267
22837.6,0.068202
22938.65,0.06534
23040.6,0.063311
23143.46,0.062647
23247.24,0.06158
23351.96,0.060412
23457.63,0.06017
23564.25,0.061145
23671.85,0.064182
23780.44,0.066133
23890.02,0.065953
24000.63,0.066405
24112.26,0.067168
24224.93,0.067284
24338.66,0.066999
24453.47,0.068578
24569.36,0.070103
24686.36,0.068556
24804.47,0.065622
24923.73,0.063145
25044.13,0.061169
25165.71,0.058787
25288.46,0.056318
25412.43,0.05775
25537.61,0.05907
25664.04,0.056467
25791.72,0.056011
25920.68,0.057833
