Database of Origin,University of Winnipeg Spectrophotometer Facility
Sample Description,Carbonaceous chondrites - RELAB archive 2. CM chondrites
Date Added,2018-07-23 23:44:49.867670

Data ID,RLA_MET_33_24       
Sample ID,LEW88001/14
Mineral Name,CM Chondrite
Grain Size,<125 um
Viewing Geometry,30/0
Material Class,CM2

Wavelength
305.0,0.027062
310.0,0.024267
315.0,0.02488
320.0,0.025846
325.0,0.026484
330.0,0.026953
335.0,0.027214
340.0,0.027382
345.0,0.027933
350.0,0.028696
355.0,0.028862
360.0,0.029083
365.0,0.029886
370.0,0.030578
375.0,0.031266
380.0,0.031991
385.0,0.032442
390.0,0.03312
395.0,0.033558
400.0,0.034092
405.0,0.034539
410.0,0.035069
415.0,0.035675
420.0,0.036071
425.0,0.036755
430.0,0.037363
435.0,0.037707
440.0,0.038002
445.0,0.038844
450.0,0.039227
455.0,0.039558
460.0,0.039647
465.0,0.040236
470.0,0.040518
475.0,0.040845
480.0,0.041457
485.0,0.041964
490.0,0.042427
495.0,0.042623
500.0,0.043248
505.0,0.043846
510.0,0.044154
515.0,0.044715
520.0,0.045052
525.0,0.045283
530.0,0.045701
535.0,0.04617
540.0,0.046524
545.0,0.046817
550.0,0.047122
555.0,0.047316
560.0,0.047364
565.0,0.047578
570.0,0.047733
575.0,0.047784
580.0,0.048097
585.0,0.048201
590.0,0.048245
595.0,0.048251
600.0,0.048362
605.0,0.048442
610.0,0.048422
615.0,0.04866
620.0,0.048743
625.0,0.048767
630.0,0.048818
635.0,0.049207
640.0,0.049152
645.0,0.049224
650.0,0.049072
655.0,0.049106
660.0,0.049336
665.0,0.049156
670.0,0.049386
675.0,0.049469
680.0,0.04952
685.0,0.049238
690.0,0.049273
695.0,0.049264
700.0,0.049125
705.0,0.049087
710.0,0.049104
715.0,0.049178
720.0,0.049265
725.0,0.049079
730.0,0.048978
735.0,0.04862
740.0,0.048765
745.0,0.048208
750.0,0.048042
755.0,0.048028
760.0,0.048112
765.0,0.047907
770.0,0.048136
775.0,0.04795
780.0,0.047955
785.0,0.048026
790.0,0.048071
795.0,0.047835
800.0,0.047092
805.0,0.047017
810.0,0.047182
815.0,0.047365
820.0,0.047366
825.0,0.047349
830.0,0.047273
835.0,0.047417
840.0,0.047719
845.0,0.047567
850.0,0.047324
855.0,0.047822
860.0,0.048039
865.0,0.048043
870.0,0.048178
875.0,0.048113
880.0,0.047999
885.0,0.048162
890.0,0.048883
895.0,0.04891
900.0,0.049035
905.0,0.048937
910.0,0.048932
915.0,0.049028
920.0,0.048983
925.0,0.048897
930.0,0.04919
935.0,0.049027
940.0,0.049288
945.0,0.049395
950.0,0.049642
955.0,0.049577
960.0,0.049474
965.0,0.049774
970.0,0.049677
975.0,0.049655
980.0,0.049708
985.0,0.04974
990.0,0.049853
995.0,0.050055
1000.0,0.049832
1005.0,0.049975
1010.0,0.05006
1015.0,0.050088
1020.0,0.050163
1025.0,0.050099
1030.0,0.050348
1035.0,0.050481
1040.0,0.050317
1045.0,0.050366
1050.0,0.050751
1055.0,0.050581
1060.0,0.050357
1065.0,0.050507
1070.0,0.050618
1075.0,0.050644
1080.0,0.050645
1085.0,0.050899
1090.0,0.05077
1095.0,0.050808
1100.0,0.050901
1105.0,0.050949
1110.0,0.050932
1115.0,0.050925
1120.0,0.050979
1125.0,0.050966
1130.0,0.051154
1135.0,0.051351
1140.0,0.051266
1145.0,0.051455
1150.0,0.051377
1155.0,0.051337
1160.0,0.051524
1165.0,0.051598
1170.0,0.051758
1175.0,0.052032
1180.0,0.051905
1185.0,0.051961
1190.0,0.052047
1195.0,0.05219
1200.0,0.05237
1205.0,0.052459
1210.0,0.052628
1215.0,0.05257
1220.0,0.052555
1225.0,0.052621
1230.0,0.052689
1235.0,0.052842
1240.0,0.052779
1245.0,0.052751
1250.0,0.052953
1255.0,0.052972
1260.0,0.052935
1265.0,0.053151
1270.0,0.053131
1275.0,0.053239
1280.0,0.053275
1285.0,0.05325
1290.0,0.053305
1295.0,0.053357
1300.0,0.0535
1305.0,0.053439
1310.0,0.053584
1315.0,0.053809
1320.0,0.053986
1325.0,0.05404
1330.0,0.054022
1335.0,0.05408
1340.0,0.054276
1345.0,0.054228
1350.0,0.054321
1355.0,0.054428
1360.0,0.054493
1365.0,0.054508
1370.0,0.05458
1375.0,0.054725
1380.0,0.054921
1385.0,0.054753
1390.0,0.054793
1395.0,0.055012
1400.0,0.055261
1405.0,0.055186
1410.0,0.055201
1415.0,0.055355
1420.0,0.055386
1425.0,0.055436
1430.0,0.055529
1435.0,0.055813
1440.0,0.055637
1445.0,0.055915
1450.0,0.055997
1455.0,0.055873
1460.0,0.055965
1465.0,0.056002
1470.0,0.056138
1475.0,0.056216
1480.0,0.0563
1485.0,0.056402
1490.0,0.056477
1495.0,0.056727
1500.0,0.056606
1505.0,0.056667
1510.0,0.056625
1515.0,0.056792
1520.0,0.057031
1525.0,0.057127
1530.0,0.05712
1535.0,0.057203
1540.0,0.057263
1545.0,0.057145
1550.0,0.057282
1555.0,0.057597
1560.0,0.057602
1565.0,0.057568
1570.0,0.057685
1575.0,0.057715
1580.0,0.057859
1585.0,0.057879
1590.0,0.057973
1595.0,0.057754
1600.0,0.057758
1605.0,0.057922
1610.0,0.058027
1615.0,0.058146
1620.0,0.058253
1625.0,0.058169
1630.0,0.05806
1635.0,0.05811
1640.0,0.058366
1645.0,0.05845
1650.0,0.05842
1655.0,0.05855
1660.0,0.058592
1665.0,0.058617
1670.0,0.058664
1675.0,0.058529
1680.0,0.05873
1685.0,0.058687
1690.0,0.058898
1695.0,0.059065
1700.0,0.059022
1705.0,0.058977
1710.0,0.059022
1715.0,0.058955
1720.0,0.059125
1725.0,0.059137
1730.0,0.059327
1735.0,0.05923
1740.0,0.059381
1745.0,0.059367
1750.0,0.059424
1755.0,0.059495
1760.0,0.059429
1765.0,0.059482
1770.0,0.05941
1775.0,0.059517
1780.0,0.059618
1785.0,0.059657
1790.0,0.059758
1795.0,0.059687
1800.0,0.059814
1805.0,0.059825
1810.0,0.059968
1815.0,0.06007
1820.0,0.060083
1825.0,0.060313
1830.0,0.060313
1835.0,0.060338
1840.0,0.060313
1845.0,0.060549
1850.0,0.06048
1855.0,0.060476
1860.0,0.060648
1865.0,0.060702
1870.0,0.060628
1875.0,0.060619
1880.0,0.060817
1885.0,0.060844
1890.0,0.060701
1895.0,0.060648
1900.0,0.060853
1905.0,0.061003
1910.0,0.060836
1915.0,0.060931
1920.0,0.060857
1925.0,0.060776
1930.0,0.060853
1935.0,0.060821
1940.0,0.061045
1945.0,0.060962
1950.0,0.060838
1955.0,0.060965
1960.0,0.060854
1965.0,0.060991
1970.0,0.060946
1975.0,0.061135
1980.0,0.061187
1985.0,0.06134
1990.0,0.061273
1995.0,0.061531
2000.0,0.061442
2005.0,0.061624
2010.0,0.061595
2015.0,0.061648
2020.0,0.061714
2025.0,0.061636
2030.0,0.061539
2035.0,0.06166
2040.0,0.061815
2045.0,0.061769
2050.0,0.061745
2055.0,0.061975
2060.0,0.06187
2065.0,0.061997
2070.0,0.061868
2075.0,0.061947
2080.0,0.062101
2085.0,0.062204
2090.0,0.062225
2095.0,0.06234
2100.0,0.062347
2105.0,0.062384
2110.0,0.062241
2115.0,0.062329
2120.0,0.062314
2125.0,0.062336
2130.0,0.06231
2135.0,0.062238
2140.0,0.062281
2145.0,0.062481
2150.0,0.062353
2155.0,0.062343
2160.0,0.062376
2165.0,0.062458
2170.0,0.062239
2175.0,0.062586
2180.0,0.06256
2185.0,0.062563
2190.0,0.062746
2195.0,0.062704
2200.0,0.062633
2205.0,0.062703
2210.0,0.062886
2215.0,0.063031
2220.0,0.062979
2225.0,0.062999
2230.0,0.062915
2235.0,0.062913
2240.0,0.063148
2245.0,0.063184
2250.0,0.063182
2255.0,0.063148
2260.0,0.063116
2265.0,0.063051
2270.0,0.063174
2275.0,0.06344
2280.0,0.063262
2285.0,0.063113
2290.0,0.062958
2295.0,0.062874
2300.0,0.062978
2305.0,0.062749
2310.0,0.062768
2315.0,0.062822
2320.0,0.062834
2325.0,0.062821
2330.0,0.062923
2335.0,0.06288
2340.0,0.063158
2345.0,0.062801
2350.0,0.062923
2355.0,0.06307
2360.0,0.063184
2365.0,0.06314
2370.0,0.063143
2375.0,0.063072
2380.0,0.062892
2385.0,0.062912
2390.0,0.062974
2395.0,0.06316
2400.0,0.062947
2405.0,0.063005
2410.0,0.063487
2415.0,0.063471
2420.0,0.063365
2425.0,0.063315
2430.0,0.063479
2435.0,0.063635
2440.0,0.063414
2445.0,0.063509
2450.0,0.063532
2455.0,0.063665
2460.0,0.063376
2465.0,0.063343
2470.0,0.063469
2475.0,0.06321
2480.0,0.063275
2485.0,0.063316
2490.0,0.063374
2495.0,0.063252
2500.0,0.063254
2505.0,0.063458
2510.0,0.063473
2515.0,0.063281
2520.0,0.063336
2525.0,0.063565
2530.0,0.063526
2535.0,0.063281
2540.0,0.063653
2545.0,0.063951
2550.0,0.063933
2555.0,0.063542
2560.0,0.064388
2565.0,0.064585
2570.0,0.064396
2575.0,0.0646
2580.0,0.064471
2585.0,0.065727
2590.0,0.065649
2595.0,0.065979
2600.0,0.064969
