Database of Origin,University of Winnipeg Spectrophotometer Facility
Sample Description,Carbonaceous chondrites - RELAB archive 2. CM chondrites
Other Information,spun laser- irradiated
Date Added,2018-07-23 23:44:50.163449

Data ID,RLA_MET_33_40       
Sample ID,Mighei 4c
Mineral Name,CM Chondrite
Grain Size,125-200um
Viewing Geometry,30/0
Material Class,CM2

Wavelength
305.0,0.02518
310.0,0.02585
315.0,0.02669
320.0,0.02726
325.0,0.0279
330.0,0.02859
335.0,0.02932
340.0,0.02972
345.0,0.03014
350.0,0.03054
355.0,0.03074
360.0,0.03086
365.0,0.03106
370.0,0.03123
375.0,0.03143
380.0,0.03167
385.0,0.03198
390.0,0.03217
395.0,0.03236
400.0,0.03254
405.0,0.03267
410.0,0.03285
415.0,0.03289
420.0,0.03324
425.0,0.03352
430.0,0.03375
435.0,0.03399
440.0,0.03414
445.0,0.0344
450.0,0.03464
455.0,0.03483
460.0,0.03505
465.0,0.03524
470.0,0.03551
475.0,0.03577
480.0,0.03596
485.0,0.03627
490.0,0.03642
495.0,0.03668
500.0,0.03697
505.0,0.03722
510.0,0.03746
515.0,0.0377
520.0,0.0379
525.0,0.03822
530.0,0.03848
535.0,0.03878
540.0,0.03902
545.0,0.0393
550.0,0.03946
555.0,0.03956
560.0,0.03975
565.0,0.03992
570.0,0.04007
575.0,0.04022
580.0,0.04041
585.0,0.04056
590.0,0.04073
595.0,0.04084
600.0,0.04101
605.0,0.04118
610.0,0.04147
615.0,0.0417
620.0,0.04189
625.0,0.04214
630.0,0.04232
635.0,0.04251
640.0,0.04267
645.0,0.04275
650.0,0.04289
655.0,0.04292
660.0,0.04301
665.0,0.04306
670.0,0.04312
675.0,0.04314
680.0,0.04318
685.0,0.04321
690.0,0.0433
695.0,0.04336
700.0,0.04344
705.0,0.04357
710.0,0.04363
715.0,0.04374
720.0,0.04385
725.0,0.04397
730.0,0.04405
735.0,0.0442
740.0,0.04428
745.0,0.04443
750.0,0.04448
755.0,0.04463
760.0,0.04473
765.0,0.0448
770.0,0.04496
775.0,0.04505
780.0,0.04518
785.0,0.04529
790.0,0.0454
795.0,0.04564
800.0,0.0457
805.0,0.0457
810.0,0.04587
815.0,0.046
820.0,0.04619
825.0,0.04631
830.0,0.04644
835.0,0.04652
840.0,0.04663
845.0,0.04663
850.0,0.04676
855.0,0.04677
860.0,0.04686
865.0,0.04698
870.0,0.04709
875.0,0.04713
880.0,0.04716
885.0,0.04727
890.0,0.04734
895.0,0.04743
900.0,0.04752
905.0,0.04758
910.0,0.04761
915.0,0.0477
920.0,0.04779
925.0,0.04781
930.0,0.04786
935.0,0.04796
940.0,0.04802
945.0,0.04805
950.0,0.04811
955.0,0.04821
960.0,0.04824
965.0,0.04832
970.0,0.04838
975.0,0.04854
980.0,0.04862
985.0,0.04876
990.0,0.04886
995.0,0.04894
1000.0,0.04899
1005.0,0.04905
1010.0,0.0491
1015.0,0.04917
1020.0,0.04921
1025.0,0.04918
1030.0,0.04929
1035.0,0.04939
1040.0,0.0495
1045.0,0.0496
1050.0,0.04974
1055.0,0.04983
1060.0,0.04989
1065.0,0.04991
1070.0,0.04991
1075.0,0.04995
1080.0,0.04994
1085.0,0.04994
1090.0,0.04998
1095.0,0.05008
1100.0,0.05011
1105.0,0.05018
1110.0,0.05023
1115.0,0.05031
1120.0,0.0504
1125.0,0.05052
1130.0,0.05059
1135.0,0.05068
1140.0,0.05076
1145.0,0.05083
1150.0,0.05089
1155.0,0.05101
1160.0,0.0511
1165.0,0.0512
1170.0,0.05126
1175.0,0.05134
1180.0,0.0514
1185.0,0.05152
1190.0,0.05153
1195.0,0.05172
1200.0,0.05188
1205.0,0.05201
1210.0,0.05207
1215.0,0.0522
1220.0,0.05223
1225.0,0.0522
1230.0,0.05225
1235.0,0.05223
1240.0,0.05225
1245.0,0.05225
1250.0,0.05226
1255.0,0.05223
1260.0,0.05232
1265.0,0.05233
1270.0,0.05236
1275.0,0.0524
1280.0,0.05248
1285.0,0.05247
1290.0,0.05263
1295.0,0.05273
1300.0,0.05284
1305.0,0.05293
1310.0,0.05307
1315.0,0.05311
1320.0,0.05319
1325.0,0.05326
1330.0,0.05335
1335.0,0.05342
1340.0,0.05351
1345.0,0.05357
1350.0,0.05363
1355.0,0.05366
1360.0,0.05375
1365.0,0.05386
1370.0,0.05399
1375.0,0.05412
1380.0,0.05426
1385.0,0.05437
1390.0,0.05441
1395.0,0.0544
1400.0,0.0544
1405.0,0.05445
1410.0,0.05454
1415.0,0.05467
1420.0,0.05481
1425.0,0.05495
1430.0,0.05504
1435.0,0.05511
1440.0,0.05519
1445.0,0.05523
1450.0,0.05532
1455.0,0.05541
1460.0,0.05551
1465.0,0.05557
1470.0,0.05566
1475.0,0.05573
1480.0,0.05582
1485.0,0.05587
1490.0,0.05591
1495.0,0.05601
1500.0,0.05602
1505.0,0.05604
1510.0,0.05604
1515.0,0.05608
1520.0,0.05612
1525.0,0.05616
1530.0,0.05625
1535.0,0.05637
1540.0,0.05652
1545.0,0.05664
1550.0,0.05678
1555.0,0.05686
1560.0,0.05698
1565.0,0.05698
1570.0,0.05704
1575.0,0.05708
1580.0,0.05712
1585.0,0.05718
1590.0,0.05727
1595.0,0.05732
1600.0,0.05744
1605.0,0.05753
1610.0,0.05759
1615.0,0.05769
1620.0,0.05777
1625.0,0.05778
1630.0,0.05782
1635.0,0.0579
1640.0,0.05799
1645.0,0.05808
1650.0,0.05814
1655.0,0.05825
1660.0,0.05837
1665.0,0.05843
1670.0,0.05849
1675.0,0.05861
1680.0,0.0587
1685.0,0.05875
1690.0,0.05882
1695.0,0.05893
1700.0,0.05908
1705.0,0.05912
1710.0,0.05917
1715.0,0.05921
1720.0,0.05925
1725.0,0.05931
1730.0,0.05938
1735.0,0.05941
1740.0,0.05949
1745.0,0.05954
1750.0,0.05963
1755.0,0.05959
1760.0,0.05962
1765.0,0.05963
1770.0,0.05961
1775.0,0.05965
1780.0,0.05969
1785.0,0.05975
1790.0,0.05981
1795.0,0.05992
1800.0,0.05995
1805.0,0.06008
1810.0,0.06009
1815.0,0.06018
1820.0,0.06023
1825.0,0.06029
1830.0,0.06031
1835.0,0.06041
1840.0,0.06044
1845.0,0.06054
1850.0,0.06062
1855.0,0.06068
1860.0,0.0607
1865.0,0.06078
1870.0,0.06079
1875.0,0.06088
1880.0,0.06089
1885.0,0.06091
1890.0,0.06088
1895.0,0.06086
1900.0,0.06085
1905.0,0.06088
1910.0,0.06096
1915.0,0.06103
1920.0,0.06106
1925.0,0.06109
1930.0,0.06117
1935.0,0.06123
1940.0,0.06127
1945.0,0.06136
1950.0,0.0614
1955.0,0.06138
1960.0,0.06145
1965.0,0.0615
1970.0,0.06157
1975.0,0.06163
1980.0,0.06172
1985.0,0.06171
1990.0,0.06176
1995.0,0.06178
2000.0,0.06184
2005.0,0.06187
2010.0,0.06186
2015.0,0.06188
2020.0,0.0619
2025.0,0.06183
2030.0,0.06184
2035.0,0.06189
2040.0,0.06189
2045.0,0.06193
2050.0,0.06201
2055.0,0.06206
2060.0,0.0621
2065.0,0.06214
2070.0,0.06215
2075.0,0.06218
2080.0,0.06223
2085.0,0.06216
2090.0,0.06217
2095.0,0.06221
2100.0,0.06225
2105.0,0.06229
2110.0,0.06243
2115.0,0.06247
2120.0,0.0625
2125.0,0.06252
2130.0,0.06256
2135.0,0.06258
2140.0,0.0626
2145.0,0.06269
2150.0,0.06276
2155.0,0.06276
2160.0,0.06286
2165.0,0.06302
2170.0,0.0631
2175.0,0.06322
2180.0,0.06329
2185.0,0.06336
2190.0,0.06342
2195.0,0.0634
2200.0,0.06339
2205.0,0.06355
2210.0,0.06359
2215.0,0.06362
2220.0,0.06377
2225.0,0.06383
2230.0,0.06379
2235.0,0.06389
2240.0,0.06398
2245.0,0.06402
2250.0,0.06409
2255.0,0.06422
2260.0,0.06423
2265.0,0.06424
2270.0,0.06434
2275.0,0.0644
2280.0,0.06443
2285.0,0.06448
2290.0,0.06456
2295.0,0.06456
2300.0,0.06459
2305.0,0.06463
2310.0,0.0647
2315.0,0.06473
2320.0,0.06476
2325.0,0.06482
2330.0,0.06486
2335.0,0.0649
2340.0,0.06494
2345.0,0.06497
2350.0,0.06503
2355.0,0.06505
2360.0,0.06505
2365.0,0.06509
2370.0,0.06515
2375.0,0.06513
2380.0,0.06515
2385.0,0.06524
2390.0,0.06531
2395.0,0.0654
2400.0,0.06549
2405.0,0.06565
2410.0,0.06568
2415.0,0.06568
2420.0,0.06568
2425.0,0.06573
2430.0,0.0657
2435.0,0.06564
2440.0,0.06571
2445.0,0.06577
2450.0,0.06581
2455.0,0.06582
2460.0,0.06599
2465.0,0.06597
2470.0,0.06599
2475.0,0.06601
2480.0,0.06612
2485.0,0.06611
2490.0,0.06621
2495.0,0.06628
2500.0,0.06635
2505.0,0.06633
2510.0,0.06642
2515.0,0.06642
2520.0,0.06643
2525.0,0.0664
2530.0,0.06642
2535.0,0.06638
2540.0,0.06639
2545.0,0.06642
2550.0,0.06632
2555.0,0.06624
2560.0,0.06631
2565.0,0.06638
2570.0,0.06657
2575.0,0.06658
2580.0,0.06692
2585.0,0.06691
2590.0,0.06723
2595.0,0.06747
2600.0,0.06806
