Database of Origin,University of Winnipeg Spectrophotometer Facility
Sample Description,Carbonaceous chondrites - RELAB archive 8. Lab-heated carbonaceous chondrites
Other Information,ncmb64E Heated Murchison 800C
Date Added,2018-07-23 23:45:15.997320

Data ID,RLA_MET_41_5        
Sample ID,Murchison
Mineral Name,Murchison
Grain Size,<63 um
Viewing Geometry,30/0/30
Resolution,5/ 0.6-129 nm
Material Class,CM2.5/2.7

Wavelength
305.0,0.035095
310.0,0.036114
315.0,0.036761
320.0,0.039401
325.0,0.038903
330.0,0.039499
335.0,0.039808
340.0,0.03991
345.0,0.039403
350.0,0.039913
355.0,0.040001
360.0,0.040262
365.0,0.040496
370.0,0.040864
375.0,0.040974
380.0,0.040923
385.0,0.040935
390.0,0.040937
395.0,0.041263
400.0,0.04083
405.0,0.041034
410.0,0.040784
415.0,0.040919
420.0,0.040795
425.0,0.040708
430.0,0.041073
435.0,0.040994
440.0,0.040965
445.0,0.040934
450.0,0.040951
455.0,0.04072
460.0,0.040764
465.0,0.040857
470.0,0.040874
475.0,0.040758
480.0,0.04084
485.0,0.040822
490.0,0.040859
495.0,0.040852
500.0,0.04083
505.0,0.040843
510.0,0.040983
515.0,0.041047
520.0,0.041031
525.0,0.04113
530.0,0.041234
535.0,0.041359
540.0,0.041361
545.0,0.041462
550.0,0.04153
555.0,0.041647
560.0,0.041648
565.0,0.041754
570.0,0.041868
575.0,0.041859
580.0,0.041907
585.0,0.04203
590.0,0.042073
595.0,0.042174
600.0,0.042213
605.0,0.042269
610.0,0.042521
615.0,0.042658
620.0,0.042754
625.0,0.042975
630.0,0.043082
635.0,0.043238
640.0,0.043224
645.0,0.043419
650.0,0.043387
655.0,0.043406
660.0,0.043429
665.0,0.04349
670.0,0.043559
675.0,0.043673
680.0,0.043686
685.0,0.043678
690.0,0.043804
695.0,0.043863
700.0,0.043895
705.0,0.043962
710.0,0.044064
715.0,0.044199
720.0,0.044274
725.0,0.044382
730.0,0.044256
735.0,0.044471
740.0,0.044468
745.0,0.044671
750.0,0.044645
755.0,0.044876
760.0,0.04511
765.0,0.045125
770.0,0.045263
775.0,0.04532
780.0,0.045411
785.0,0.045365
790.0,0.045392
795.0,0.04556
800.0,0.045573
805.0,0.045605
810.0,0.045692
815.0,0.045638
820.0,0.045693
825.0,0.045628
830.0,0.045736
835.0,0.045815
840.0,0.045975
845.0,0.045948
850.0,0.046029
855.0,0.046057
860.0,0.046045
865.0,0.045833
870.0,0.04586
875.0,0.046274
880.0,0.046116
885.0,0.046165
890.0,0.046596
895.0,0.046452
900.0,0.04616
905.0,0.046404
910.0,0.04654
915.0,0.046408
920.0,0.046609
925.0,0.046584
930.0,0.046633
935.0,0.046528
940.0,0.04664
945.0,0.046895
950.0,0.046605
955.0,0.046802
960.0,0.046894
965.0,0.047018
970.0,0.04706
975.0,0.047017
980.0,0.047122
985.0,0.047253
990.0,0.047287
995.0,0.047159
1000.0,0.047397
1005.0,0.047439
1010.0,0.047473
1015.0,0.047534
1020.0,0.047723
1025.0,0.047585
1030.0,0.047636
1035.0,0.047862
1040.0,0.047941
1045.0,0.047787
1050.0,0.048074
1055.0,0.048012
1060.0,0.047987
1065.0,0.047983
1070.0,0.04797
1075.0,0.048246
1080.0,0.048442
1085.0,0.048461
1090.0,0.048374
1095.0,0.048501
1100.0,0.048571
1105.0,0.048644
1110.0,0.048544
1115.0,0.048742
1120.0,0.048857
1125.0,0.048933
1130.0,0.049014
1135.0,0.049076
1140.0,0.049066
1145.0,0.049042
1150.0,0.049338
1155.0,0.049386
1160.0,0.049244
1165.0,0.049463
1170.0,0.04958
1175.0,0.049521
1180.0,0.049514
1185.0,0.049676
1190.0,0.049675
1195.0,0.049858
1200.0,0.04977
1205.0,0.049913
1210.0,0.05004
1215.0,0.05012
1220.0,0.050221
1225.0,0.050086
1230.0,0.050137
1235.0,0.050422
1240.0,0.050397
1245.0,0.050335
1250.0,0.050327
1255.0,0.050371
1260.0,0.050417
1265.0,0.050382
1270.0,0.050471
1275.0,0.050643
1280.0,0.050544
1285.0,0.050535
1290.0,0.050606
1295.0,0.050806
1300.0,0.050794
1305.0,0.050911
1310.0,0.050802
1315.0,0.050937
1320.0,0.050988
1325.0,0.051132
1330.0,0.051011
1335.0,0.051181
1340.0,0.051227
1345.0,0.051361
1350.0,0.051318
1355.0,0.051327
1360.0,0.051033
1365.0,0.051572
1370.0,0.051773
1375.0,0.051421
1380.0,0.051247
1385.0,0.052019
1390.0,0.051667
1395.0,0.051948
1400.0,0.052069
1405.0,0.051851
1410.0,0.052287
1415.0,0.052266
1420.0,0.052177
1425.0,0.052156
1430.0,0.052244
1435.0,0.05242
1440.0,0.052392
1445.0,0.052488
1450.0,0.052486
1455.0,0.052411
1460.0,0.052674
1465.0,0.052622
1470.0,0.052811
1475.0,0.05286
1480.0,0.052913
1485.0,0.052831
1490.0,0.052961
1495.0,0.05304
1500.0,0.053157
1505.0,0.053122
1510.0,0.05324
1515.0,0.053034
1520.0,0.053161
1525.0,0.053275
1530.0,0.053351
1535.0,0.053351
1540.0,0.05346
1545.0,0.053501
1550.0,0.053568
1555.0,0.053749
1560.0,0.053793
1565.0,0.053724
1570.0,0.053821
1575.0,0.054018
1580.0,0.054031
1585.0,0.054011
1590.0,0.05424
1595.0,0.053958
1600.0,0.054069
1605.0,0.054057
1610.0,0.054066
1615.0,0.054039
1620.0,0.054328
1625.0,0.054453
1630.0,0.05442
1635.0,0.054501
1640.0,0.054544
1645.0,0.054614
1650.0,0.054742
1655.0,0.054704
1660.0,0.054817
1665.0,0.054842
1670.0,0.054797
1675.0,0.054936
1680.0,0.055071
1685.0,0.054829
1690.0,0.054833
1695.0,0.05507
1700.0,0.054988
1705.0,0.055056
1710.0,0.055057
1715.0,0.055045
1720.0,0.055181
1725.0,0.055121
1730.0,0.055183
1735.0,0.055167
1740.0,0.05515
1745.0,0.055272
1750.0,0.055339
1755.0,0.055299
1760.0,0.055481
1765.0,0.055412
1770.0,0.055381
1775.0,0.055446
1780.0,0.055548
1785.0,0.055572
1790.0,0.05556
1795.0,0.055623
1800.0,0.055469
1805.0,0.055604
1810.0,0.055464
1815.0,0.055364
1820.0,0.055825
1825.0,0.055512
1830.0,0.05586
1835.0,0.055493
1840.0,0.056416
1845.0,0.055698
1850.0,0.056217
1855.0,0.055875
1860.0,0.05629
1865.0,0.055268
1870.0,0.055739
1875.0,0.057043
1880.0,0.056231
1885.0,0.05606
1890.0,0.056177
1895.0,0.055896
1900.0,0.056106
1905.0,0.056745
1910.0,0.056352
1915.0,0.056371
1920.0,0.056551
1925.0,0.056497
1930.0,0.056586
1935.0,0.056351
1940.0,0.056729
1945.0,0.056624
1950.0,0.056705
1955.0,0.056822
1960.0,0.056864
1965.0,0.056794
1970.0,0.056786
1975.0,0.056738
1980.0,0.057011
1985.0,0.056953
1990.0,0.056935
1995.0,0.057024
2000.0,0.056988
2005.0,0.057143
2010.0,0.057055
2015.0,0.057067
2020.0,0.057054
2025.0,0.057109
2030.0,0.056995
2035.0,0.057286
2040.0,0.057268
2045.0,0.057157
2050.0,0.057203
2055.0,0.057271
2060.0,0.057275
2065.0,0.057271
2070.0,0.057344
2075.0,0.057513
2080.0,0.057413
2085.0,0.057418
2090.0,0.05745
2095.0,0.05749
2100.0,0.057763
2105.0,0.057623
2110.0,0.057693
2115.0,0.057583
2120.0,0.057606
2125.0,0.057557
2130.0,0.057641
2135.0,0.057698
2140.0,0.057518
2145.0,0.05761
2150.0,0.05768
2155.0,0.057736
2160.0,0.057706
2165.0,0.05785
2170.0,0.057804
2175.0,0.057913
2180.0,0.058095
2185.0,0.058147
2190.0,0.058333
2195.0,0.058384
2200.0,0.058313
2205.0,0.058474
2210.0,0.05856
2215.0,0.05855
2220.0,0.05868
2225.0,0.05863
2230.0,0.058676
2235.0,0.058697
2240.0,0.058754
2245.0,0.05879
2250.0,0.05875
2255.0,0.058863
2260.0,0.058958
2265.0,0.059093
2270.0,0.059098
2275.0,0.059225
2280.0,0.059279
2285.0,0.059264
2290.0,0.059386
2295.0,0.059353
2300.0,0.059294
2305.0,0.059064
2310.0,0.059106
2315.0,0.059089
2320.0,0.059207
2325.0,0.059055
2330.0,0.05914
2335.0,0.05928
2340.0,0.059118
2345.0,0.059251
2350.0,0.059089
2355.0,0.059132
2360.0,0.059225
2365.0,0.059222
2370.0,0.059153
2375.0,0.059175
2380.0,0.059288
2385.0,0.059319
2390.0,0.059279
2395.0,0.059259
2400.0,0.059328
2405.0,0.059396
2410.0,0.059442
2415.0,0.0594
2420.0,0.05977
2425.0,0.059933
2430.0,0.059901
2435.0,0.060064
2440.0,0.059953
2445.0,0.060043
2450.0,0.060088
2455.0,0.060168
2460.0,0.060218
2465.0,0.060297
2470.0,0.060186
2475.0,0.06054
2480.0,0.060133
2485.0,0.06022
2490.0,0.060281
2495.0,0.060343
2500.0,0.060107
2502.0,0.06022
2503.2,0.060495
2504.41,0.060398
2505.62,0.060218
2506.83,0.060253
2508.05,0.060386
2509.26,0.060405
2510.48,0.060252
2511.69,0.060123
2512.91,0.060046
2514.13,0.060044
2515.35,0.060134
2516.57,0.060193
2517.79,0.060101
2519.02,0.059935
2520.24,0.059983
2521.47,0.060074
2522.69,0.060278
2523.92,0.060596
2525.15,0.060567
2526.38,0.060491
2527.61,0.060226
2528.85,0.060268
2530.08,0.06046
2531.32,0.060224
2532.55,0.059969
2533.79,0.060076
2535.03,0.060321
2536.27,0.060613
2537.51,0.060912
2538.75,0.060998
2540.0,0.060749
2541.24,0.060449
2542.49,0.060647
2543.74,0.060805
2544.99,0.060363
2546.24,0.060216
2547.49,0.060381
2548.74,0.0607
2549.99,0.06097
2551.25,0.060722
2552.5,0.060239
2553.76,0.060218
2555.02,0.060467
2556.28,0.060731
2557.54,0.060608
2558.8,0.06034
2560.07,0.060285
2561.33,0.060506
2562.6,0.060337
2563.86,0.060503
2565.13,0.060874
2566.4,0.060804
2567.67,0.060744
2568.95,0.060879
2570.22,0.061261
2571.5,0.061117
2572.77,0.060985
2574.05,0.060894
2575.33,0.060776
2576.61,0.060799
2577.89,0.060868
2579.17,0.060684
2580.46,0.060697
2581.74,0.060681
2583.03,0.060824
2584.31,0.06093
2585.6,0.060864
2586.89,0.061103
2588.19,0.061401
2589.48,0.06127
2590.77,0.061008
2592.07,0.060927
2593.36,0.060985
2594.66,0.061223
2595.96,0.061269
2597.26,0.061196
2598.56,0.061121
2599.87,0.061051
2601.17,0.061177
2602.48,0.061386
2603.78,0.06121
2605.09,0.061025
2606.4,0.061261
2607.71,0.061153
2609.03,0.060948
2610.34,0.061029
2611.66,0.061278
2612.97,0.061307
2614.29,0.061044
2615.61,0.06083
2616.93,0.060783
2618.25,0.061012
2619.57,0.06138
2620.9,0.061424
2622.22,0.061091
2623.55,0.060943
2624.88,0.061034
2626.21,0.061252
2627.54,0.061316
2628.87,0.06145
2630.21,0.061495
2631.54,0.061297
2632.88,0.061378
2634.21,0.061424
2635.55,0.06127
2636.89,0.061337
2638.24,0.061353
2639.58,0.061303
2640.92,0.06126
2642.27,0.061227
2643.62,0.061004
2644.97,0.061059
2646.32,0.061372
2647.67,0.061333
2649.02,0.061274
2650.38,0.061492
2651.73,0.061608
2653.09,0.06161
2654.45,0.061402
2655.81,0.061371
2657.17,0.061443
2658.53,0.06137
2659.89,0.061374
2661.26,0.061415
2662.63,0.061467
2664.0,0.061671
2665.36,0.061674
2666.74,0.061453
2668.11,0.06137
2669.48,0.061301
2670.86,0.061521
2672.23,0.061663
2673.61,0.061446
2674.99,0.061362
2676.37,0.061672
2677.76,0.06178
2679.14,0.061607
2680.52,0.061497
2681.91,0.061653
2683.3,0.061811
2684.69,0.061833
2686.08,0.061638
2687.47,0.061677
2688.87,0.061796
2690.26,0.061512
2691.66,0.061432
2693.06,0.061551
2694.46,0.061559
2695.86,0.061599
2697.26,0.061723
2698.66,0.061492
2700.07,0.061425
2701.48,0.061687
2702.89,0.061914
2704.3,0.061818
2705.71,0.061735
2707.12,0.061679
2708.53,0.061827
2709.95,0.061997
2711.37,0.061667
2712.79,0.061514
2714.21,0.061643
2715.63,0.061736
2717.05,0.061873
2718.48,0.062039
2719.9,0.062026
2721.33,0.061792
2722.76,0.06192
2724.19,0.062338
2725.62,0.062153
2727.06,0.061719
2728.49,0.061487
2729.93,0.061583
2731.37,0.061787
2732.81,0.062068
2734.25,0.06204
2735.69,0.062044
2737.14,0.062108
2738.58,0.061801
2740.03,0.061546
2741.48,0.061383
2742.93,0.061568
2744.38,0.061712
2745.83,0.061608
2747.29,0.061642
2748.75,0.061738
2750.2,0.061704
2751.66,0.061641
2753.13,0.061325
2754.59,0.061069
2756.05,0.061011
2757.52,0.061152
2758.99,0.061472
2760.46,0.061398
2761.93,0.061389
2763.4,0.06138
2764.87,0.06121
2766.35,0.061431
2767.82,0.061417
2769.3,0.061127
2770.78,0.061199
2772.26,0.060977
2773.75,0.060938
2775.23,0.06122
2776.72,0.06113
2778.21,0.060866
2779.7,0.060971
2781.19,0.060997
2782.68,0.061185
2784.18,0.061442
2785.67,0.061388
2787.17,0.061319
2788.67,0.061278
2790.17,0.061332
2791.67,0.061206
2793.18,0.061106
2794.68,0.061172
2796.19,0.061337
2797.7,0.061197
2799.21,0.061118
2800.72,0.061081
2802.24,0.061265
2803.75,0.061359
2805.27,0.061391
2806.79,0.061115
2808.31,0.060888
2809.83,0.060943
2811.35,0.061041
2812.88,0.061182
2814.41,0.061316
2815.93,0.061177
2817.46,0.060865
2819.0,0.060789
2820.53,0.060935
2822.07,0.061171
2823.6,0.061236
2825.14,0.061024
2826.68,0.060936
2828.22,0.060895
2829.77,0.060898
2831.31,0.061008
2832.86,0.061061
2834.41,0.061217
2835.96,0.061359
2837.51,0.06133
2839.07,0.061425
2840.62,0.061466
2842.18,0.061371
2843.74,0.061107
2845.3,0.060949
2846.86,0.061167
2848.43,0.061338
2849.99,0.061243
2851.56,0.061236
2853.13,0.061174
2854.7,0.061193
2856.27,0.061295
2857.85,0.061388
2859.42,0.06118
2861.0,0.06106
2862.58,0.061056
2864.16,0.061119
2865.75,0.061231
2867.33,0.061337
2868.92,0.061415
2870.51,0.061415
2872.1,0.061455
2873.69,0.061417
2875.28,0.061499
2876.88,0.061591
2878.48,0.061439
2880.07,0.06143
2881.68,0.061422
2883.28,0.061363
2884.88,0.061414
2886.49,0.061331
2888.1,0.061331
2889.71,0.061338
2891.32,0.061366
2892.93,0.061363
2894.55,0.061302
2896.16,0.061345
2897.78,0.061639
2899.4,0.061822
2901.03,0.061697
2902.65,0.061476
2904.28,0.061287
2905.91,0.061207
2907.54,0.061285
2909.17,0.061274
2910.8,0.061327
2912.44,0.061318
2914.07,0.061395
2915.71,0.061301
2917.35,0.061336
2918.99,0.061403
2920.64,0.061399
2922.29,0.06147
2923.93,0.061507
2925.58,0.061573
2927.24,0.061644
2928.89,0.06158
2930.55,0.061518
2932.2,0.061503
2933.86,0.06155
2935.52,0.061527
2937.19,0.061511
2938.85,0.06154
2940.52,0.06173
2942.19,0.061825
2943.86,0.061729
2945.53,0.061877
2947.21,0.06204
2948.88,0.061919
2950.56,0.061911
2952.24,0.061878
2953.92,0.061877
2955.61,0.061861
2957.29,0.061844
2958.98,0.06185
2960.67,0.061848
2962.36,0.061813
2964.06,0.061909
2965.75,0.062084
2967.45,0.062127
2969.15,0.062086
2970.85,0.06205
2972.55,0.061851
2974.26,0.061915
2975.97,0.062012
2977.68,0.061944
2979.39,0.061826
2981.1,0.061952
2982.82,0.062207
2984.53,0.062262
2986.25,0.061989
2987.97,0.061852
2989.7,0.061963
2991.42,0.062037
2993.15,0.06223
2994.88,0.062264
2996.61,0.062099
2998.34,0.062132
3000.08,0.062223
3001.82,0.062459
3003.55,0.0625
3005.3,0.062542
3007.04,0.06255
3008.78,0.062501
3010.53,0.062384
3012.28,0.062455
3014.03,0.062359
3015.79,0.062327
3017.54,0.062487
3019.3,0.06265
3021.06,0.062605
3022.82,0.062597
3024.58,0.062578
3026.35,0.062616
3028.12,0.062783
3029.89,0.062934
3031.66,0.062935
3033.43,0.062869
3035.21,0.062793
3036.99,0.062888
3038.77,0.06296
3040.55,0.062911
3042.33,0.0628
3044.12,0.062763
3045.91,0.062957
3047.7,0.062994
3049.49,0.062756
3051.29,0.062704
3053.08,0.062709
3054.88,0.062596
3056.68,0.062671
3058.49,0.062803
3060.29,0.062915
3062.1,0.062815
3063.91,0.062701
3065.72,0.062786
3067.54,0.062901
3069.35,0.063009
3071.17,0.063194
3072.99,0.063217
3074.81,0.063016
3076.64,0.063034
3078.47,0.063131
3080.29,0.063118
3082.13,0.063056
3083.96,0.063065
3085.79,0.063119
3087.63,0.063144
3089.47,0.063232
3091.31,0.06349
3093.16,0.063371
3095.01,0.063186
3096.85,0.063261
3098.71,0.063383
3100.56,0.063378
3102.41,0.06341
3104.27,0.063346
3106.13,0.063182
3107.99,0.063128
3109.86,0.06328
3111.73,0.063547
3113.59,0.063524
3115.47,0.063478
3117.34,0.063498
3119.21,0.06352
3121.09,0.063495
3122.97,0.063445
3124.86,0.063352
3126.74,0.063474
3128.63,0.063614
3130.52,0.063604
3132.41,0.063682
3134.3,0.063749
3136.2,0.063726
3138.1,0.063598
3140.0,0.06344
3141.9,0.063571
3143.81,0.063926
3145.71,0.06411
3147.62,0.06393
3149.54,0.063856
3151.45,0.064026
3153.37,0.064034
3155.29,0.063952
3157.21,0.063914
3159.13,0.06394
3161.06,0.06399
3162.99,0.064099
3164.92,0.06424
3166.85,0.064159
3168.79,0.063983
3170.72,0.063879
3172.67,0.063943
3174.61,0.064075
3176.55,0.064091
3178.5,0.064193
3180.45,0.064406
3182.4,0.064411
3184.36,0.064212
3186.32,0.064112
3188.27,0.064217
3190.24,0.064385
3192.2,0.064378
3194.17,0.064371
3196.14,0.064401
3198.11,0.06441
3200.08,0.064392
3202.06,0.064465
3204.04,0.064646
3206.02,0.064658
3208.0,0.064637
3209.99,0.064519
3211.98,0.064475
3213.97,0.06449
3215.96,0.064539
3217.96,0.064686
3219.96,0.064741
3221.96,0.064847
3223.96,0.064746
3225.97,0.064515
3227.98,0.064481
3229.99,0.064542
3232.0,0.064743
3234.02,0.064903
3236.04,0.064886
3238.06,0.064783
3240.08,0.064728
3242.11,0.06478
3244.14,0.064891
3246.17,0.064844
3248.2,0.064695
3250.24,0.064803
3252.28,0.06492
3254.32,0.065
3256.37,0.06478
3258.41,0.064666
3260.46,0.064753
3262.51,0.064883
3264.57,0.065066
3266.63,0.065115
3268.69,0.06517
3270.75,0.06516
3272.81,0.065098
3274.88,0.065097
3276.95,0.065146
3279.02,0.065128
3281.1,0.065096
3283.18,0.065122
3285.26,0.065137
3287.34,0.065236
3289.43,0.065236
3291.51,0.065308
3293.61,0.06547
3295.7,0.06544
3297.8,0.065365
3299.9,0.065437
3302.0,0.065459
3304.1,0.065578
3306.21,0.065456
3308.32,0.065279
3310.43,0.065446
3312.55,0.065506
3314.66,0.065397
3316.79,0.065529
3318.91,0.065683
3321.03,0.065646
3323.16,0.065645
3325.29,0.065719
3327.43,0.065869
3329.57,0.065887
3331.71,0.065823
3333.85,0.06574
3335.99,0.065655
3338.14,0.06574
3340.29,0.065747
3342.45,0.065659
3344.6,0.065611
3346.76,0.065662
3348.92,0.065805
3351.09,0.065907
3353.26,0.065832
3355.43,0.065856
3357.6,0.065844
3359.78,0.065883
3361.96,0.065894
3364.14,0.065816
3366.32,0.065712
3368.51,0.06569
3370.7,0.065856
3372.89,0.065938
3375.09,0.066131
3377.29,0.066211
3379.49,0.066172
3381.69,0.066137
3383.9,0.066019
3386.11,0.066042
3388.32,0.066061
3390.54,0.066065
3392.76,0.066226
3394.98,0.066235
3397.21,0.066059
3399.43,0.065957
3401.66,0.066003
3403.9,0.066063
3406.13,0.065933
3408.37,0.065877
3410.61,0.06586
3412.86,0.06593
3415.11,0.06596
3417.36,0.065898
3419.61,0.06583
3421.87,0.065829
3424.13,0.066026
3426.39,0.066101
3428.66,0.066151
3430.93,0.066237
3433.2,0.066125
3435.48,0.066191
3437.76,0.066504
3440.04,0.066744
3442.32,0.066725
3444.61,0.066661
3446.9,0.066655
3449.19,0.066802
3451.49,0.066808
3453.79,0.06667
3456.09,0.06654
3458.4,0.066606
3460.7,0.066762
3463.02,0.066903
3465.33,0.066883
3467.65,0.066843
3469.97,0.066893
3472.29,0.066949
3474.62,0.066953
3476.95,0.066882
3479.29,0.066722
3481.62,0.066742
3483.96,0.066868
3486.3,0.066928
3488.65,0.066868
3491.0,0.066799
3493.35,0.066819
3495.71,0.066878
3498.07,0.066906
3500.43,0.066852
3502.79,0.066885
3505.16,0.067081
3507.53,0.067095
3509.91,0.067123
3512.29,0.067208
3514.67,0.067219
3517.05,0.067126
3519.44,0.067075
3521.83,0.067186
3524.23,0.067467
3526.62,0.067456
3529.02,0.067337
3531.43,0.067388
3533.83,0.067456
3536.24,0.067514
3538.66,0.06746
3541.08,0.067468
3543.5,0.067548
3545.92,0.06756
3548.35,0.067589
3550.78,0.067642
3553.21,0.06755
3555.65,0.067553
3558.09,0.067639
3560.53,0.06771
3562.98,0.067844
3565.43,0.067806
3567.88,0.067762
3570.34,0.067725
3572.8,0.06765
3575.27,0.067821
3577.73,0.067997
3580.2,0.068024
3582.68,0.068016
3585.16,0.067872
3587.64,0.067823
3590.12,0.067939
3592.61,0.067893
3595.1,0.067878
3597.6,0.067958
3600.09,0.068121
3602.6,0.068206
3605.1,0.068071
3607.61,0.067887
3610.12,0.068002
3612.64,0.068102
3615.16,0.068185
3617.68,0.068189
3620.21,0.068181
3622.74,0.068148
3625.27,0.068078
3627.81,0.06814
3630.35,0.068193
3632.89,0.068201
3635.44,0.068273
3637.99,0.068194
3640.54,0.06808
3643.1,0.068143
3645.66,0.068193
3648.23,0.068213
3650.8,0.068195
3653.37,0.068264
3655.95,0.068325
3658.53,0.068195
3661.11,0.068161
3663.7,0.06841
3666.29,0.068477
3668.89,0.06835
3671.48,0.068314
3674.09,0.068353
3676.69,0.0684
3679.3,0.068451
3681.91,0.068564
3684.53,0.068641
3687.15,0.068648
3689.78,0.068592
3692.4,0.06849
3695.04,0.068523
3697.67,0.06857
3700.31,0.068581
3702.95,0.068583
3705.6,0.068554
3708.25,0.068554
3710.91,0.068587
3713.56,0.068703
3716.23,0.068814
3718.89,0.06884
3721.56,0.068782
3724.23,0.068725
3726.91,0.068852
3729.59,0.068881
3732.28,0.068757
3734.97,0.068624
3737.66,0.068724
3740.36,0.068842
3743.06,0.068918
3745.76,0.068891
3748.47,0.068881
3751.18,0.068909
3753.9,0.068966
3756.62,0.068945
3759.34,0.069013
3762.07,0.068974
3764.8,0.068933
3767.54,0.068942
3770.28,0.068982
3773.02,0.068992
3775.77,0.069083
3778.52,0.069136
3781.28,0.069024
3784.04,0.068923
3786.8,0.068968
3789.57,0.069004
3792.34,0.068967
3795.12,0.068981
3797.9,0.069007
3800.69,0.069097
3803.47,0.069098
3806.27,0.069004
3809.06,0.069007
3811.86,0.069076
3814.67,0.069147
3817.48,0.069224
3820.29,0.069363
3823.11,0.069438
3825.93,0.069334
3828.76,0.069249
3831.59,0.069306
3834.42,0.069296
3837.26,0.069256
3840.1,0.069175
3842.95,0.069124
3845.8,0.069265
3848.65,0.06939
3851.51,0.069424
3854.38,0.069505
3857.24,0.069479
3860.12,0.06944
3862.99,0.06947
3865.87,0.069528
3868.76,0.069418
3871.65,0.069414
3874.54,0.069572
3877.44,0.069663
3880.34,0.069587
3883.25,0.069604
3886.16,0.069757
3889.07,0.069713
3891.99,0.069675
3894.92,0.069595
3897.85,0.069491
3900.78,0.069456
3903.72,0.069541
3906.66,0.069583
3909.6,0.069656
3912.55,0.069724
3915.51,0.06968
3918.47,0.069633
3921.43,0.069712
3924.4,0.069801
3927.38,0.069776
3930.35,0.069757
3933.33,0.069836
3936.32,0.069839
3939.31,0.069822
3942.31,0.069849
3945.31,0.069845
3948.31,0.069804
3951.32,0.069859
3954.34,0.069891
3957.35,0.069826
3960.38,0.069703
3963.41,0.069663
3966.44,0.06977
3969.48,0.069793
3972.52,0.069816
3975.56,0.069754
3978.61,0.069792
3981.67,0.069865
3984.73,0.06993
3987.8,0.06999
3990.87,0.069931
3993.94,0.06972
3997.02,0.069663
4000.1,0.069772
4003.19,0.069879
4006.29,0.069809
4009.39,0.069695
4012.49,0.069803
4015.6,0.069886
4018.71,0.069849
4021.83,0.06989
4024.95,0.069942
4028.08,0.069959
4031.21,0.069963
4034.35,0.069915
4037.49,0.06989
4040.64,0.06997
4043.79,0.069979
4046.94,0.069892
4050.11,0.069958
4053.27,0.070031
4056.44,0.070108
4059.62,0.070094
4062.8,0.070059
4065.99,0.070155
4069.18,0.070076
4072.38,0.07004
4075.58,0.070117
4078.78,0.070076
4082.0,0.070051
4085.21,0.070204
4088.43,0.070308
4091.66,0.07027
4094.89,0.07016
4098.13,0.070115
4101.37,0.070161
4104.62,0.070177
4107.87,0.070088
4111.13,0.070143
4114.39,0.07022
4117.66,0.070091
4120.93,0.070019
4124.21,0.070121
4127.5,0.070177
4130.79,0.070102
4134.08,0.070153
4137.38,0.070136
4140.68,0.070153
4143.99,0.070205
4147.31,0.070249
4150.63,0.070265
4153.95,0.070278
4157.29,0.070217
4160.62,0.070135
4163.96,0.070234
4167.31,0.07028
4170.66,0.070313
4174.02,0.070363
4177.39,0.070309
4180.75,0.070207
4184.13,0.070272
4187.51,0.070326
4190.89,0.070397
4194.28,0.070374
4197.68,0.070321
4201.08,0.070377
4204.49,0.070522
4207.9,0.070631
4211.32,0.070614
4214.74,0.070475
4218.17,0.070163
4221.61,0.070176
4225.05,0.070394
4228.5,0.07038
4231.95,0.070345
4235.4,0.070508
4238.87,0.070542
4242.34,0.070381
4245.81,0.070368
4249.29,0.070385
4252.78,0.070465
4256.27,0.070451
4259.77,0.070437
4263.27,0.070478
4266.78,0.070381
4270.29,0.070286
4273.81,0.070405
4277.34,0.070441
4280.87,0.070505
4284.41,0.070601
4287.95,0.070587
4291.5,0.070578
4295.06,0.070619
4298.62,0.070599
4302.19,0.07058
4305.76,0.070565
4309.34,0.070578
4312.92,0.070534
4316.52,0.070434
4320.11,0.070441
4323.72,0.070522
4327.32,0.070598
4330.94,0.070672
4334.56,0.070643
4338.19,0.070641
4341.82,0.070606
4345.46,0.070612
4349.11,0.070711
4352.76,0.070715
4356.42,0.070764
4360.08,0.070818
4363.75,0.070771
4367.43,0.070753
4371.11,0.070728
4374.8,0.070624
4378.49,0.070509
4382.19,0.070567
4385.9,0.070669
4389.61,0.070631
4393.33,0.070663
4397.06,0.070665
4400.79,0.070561
4404.53,0.070635
4408.28,0.07081
4412.03,0.070815
4415.79,0.070797
4419.55,0.070739
4423.32,0.070641
4427.1,0.070644
4430.88,0.070596
4434.68,0.070517
4438.47,0.07056
4442.28,0.070699
4446.08,0.070735
4449.9,0.07065
4453.72,0.070561
4457.55,0.070563
4461.39,0.070637
4465.23,0.070633
4469.08,0.070592
4472.94,0.070609
4476.8,0.07065
4480.67,0.070716
4484.55,0.070735
4488.43,0.070733
4492.32,0.070801
4496.21,0.070735
4500.12,0.070687
4504.03,0.070724
4507.94,0.070794
4511.87,0.070774
4515.8,0.070617
4519.73,0.070725
4523.68,0.070847
4527.63,0.070773
4531.59,0.070803
4535.55,0.070772
4539.52,0.070727
4543.5,0.070674
4547.49,0.070628
4551.48,0.070659
4555.48,0.070695
4559.49,0.070661
4563.5,0.070668
4567.52,0.070746
4571.55,0.070682
4575.58,0.070655
4579.63,0.07068
4583.67,0.070679
4587.73,0.070663
4591.79,0.070634
4595.86,0.070697
4599.94,0.070748
4604.03,0.070629
4608.12,0.070499
4612.22,0.070581
4616.33,0.070726
4620.44,0.070597
4624.56,0.070462
4628.69,0.070512
4632.83,0.070543
4636.97,0.070484
4641.12,0.070509
4645.28,0.070405
4649.45,0.070328
4653.62,0.070479
4657.8,0.070604
4661.99,0.070611
4666.19,0.070516
4670.39,0.07047
4674.6,0.070499
4678.82,0.070465
4683.05,0.070489
4687.28,0.07046
4691.52,0.070415
4695.77,0.070412
4700.03,0.070443
4704.3,0.070397
4708.57,0.070395
4712.85,0.070397
4717.14,0.070393
4721.43,0.070326
4725.74,0.0704
4730.05,0.070433
4734.37,0.07042
4738.7,0.070364
4743.03,0.070281
4747.38,0.070268
4751.73,0.070331
4756.09,0.070372
4760.45,0.070368
4764.83,0.070282
4769.21,0.070194
4773.6,0.070171
4778.0,0.070152
4782.41,0.070164
4786.83,0.070197
4791.25,0.070151
4795.68,0.070141
4800.13,0.070182
4804.57,0.070199
4809.03,0.070073
4813.5,0.070016
4817.97,0.070074
4822.45,0.070108
4826.94,0.070158
4831.44,0.07021
4835.95,0.070224
4840.46,0.07013
4844.99,0.070067
4849.52,0.069987
4854.06,0.069961
4858.61,0.069999
4863.17,0.069989
4867.73,0.06997
4872.31,0.069952
4876.89,0.069915
4881.48,0.069811
4886.08,0.06971
4890.69,0.069726
4895.31,0.069859
4899.94,0.069825
4904.57,0.069761
4909.22,0.069739
4913.87,0.069708
4918.53,0.06963
4923.21,0.069589
4927.88,0.06953
4932.57,0.069442
4937.27,0.069438
4941.98,0.069517
4946.69,0.069511
4951.42,0.069473
4956.15,0.069458
4960.9,0.069441
4965.65,0.069382
4970.41,0.069443
4975.18,0.069422
4979.96,0.069288
4984.75,0.069263
4989.54,0.069354
4994.35,0.069372
4999.17,0.069292
5003.99,0.069147
5008.83,0.069121
5013.67,0.069156
5018.52,0.069126
5023.39,0.069041
5028.26,0.069016
5033.14,0.068954
5038.03,0.06894
5042.93,0.06891
5047.84,0.068956
5052.76,0.068979
5057.69,0.068913
5062.63,0.06886
5067.58,0.068822
5072.54,0.068795
5077.51,0.068857
5082.49,0.0689
5087.47,0.068891
5092.47,0.068698
5097.48,0.068619
5102.5,0.068695
5107.52,0.068673
5112.56,0.068573
5117.61,0.0685
5122.66,0.068468
5127.73,0.068475
5132.81,0.068472
5137.89,0.06842
5142.99,0.068345
5148.1,0.06841
5153.22,0.068388
5158.34,0.068435
5163.48,0.068563
5168.63,0.068573
5173.79,0.068554
5178.96,0.0685
5184.13,0.068431
5189.32,0.068331
5194.52,0.068318
5199.73,0.068401
5204.96,0.068491
5210.19,0.068551
5215.43,0.068536
5220.68,0.06851
5225.94,0.068471
5231.22,0.068434
5236.5,0.068536
5241.79,0.068478
5247.1,0.068395
5252.42,0.068451
5257.74,0.068386
5263.08,0.068319
5268.43,0.068281
5273.79,0.068306
5279.16,0.068296
5284.54,0.068328
5289.93,0.068283
5295.34,0.068323
5300.75,0.068282
5306.18,0.068191
5311.61,0.068158
5317.06,0.068202
5322.52,0.068253
5327.99,0.06819
5333.47,0.068102
5338.96,0.068079
5344.47,0.068093
5349.98,0.068056
5355.51,0.068002
5361.05,0.068054
5366.6,0.068071
5372.16,0.067949
5377.73,0.067883
5383.32,0.067838
5388.91,0.067844
5394.52,0.067794
5400.14,0.067696
5405.77,0.067613
5411.41,0.067609
5417.07,0.067562
5422.74,0.067484
5428.41,0.067436
5434.1,0.067329
5439.81,0.067189
5445.52,0.067119
5451.25,0.067113
5456.98,0.067078
5462.73,0.067177
5468.5,0.067184
5474.27,0.067046
5480.06,0.067025
5485.86,0.067117
5491.67,0.067115
5497.49,0.06699
5503.33,0.066999
5509.18,0.067
5515.04,0.066982
5520.91,0.067032
5526.8,0.066999
5532.69,0.066973
5538.61,0.066987
5544.53,0.066927
5550.47,0.066865
5556.41,0.066813
5562.38,0.066669
5568.35,0.066593
5574.34,0.0665
5580.34,0.066359
5586.35,0.066206
5592.38,0.066154
5598.42,0.066007
5604.47,0.065872
5610.54,0.06576
5616.61,0.065694
5622.71,0.065731
5628.81,0.065616
5634.93,0.065531
5641.06,0.065575
5647.21,0.065414
5653.36,0.065345
5659.54,0.065395
5665.72,0.065438
5671.92,0.065485
5678.13,0.065543
5684.36,0.065521
5690.6,0.065495
5696.85,0.065559
5703.12,0.065662
5709.4,0.065816
5715.69,0.065853
5722.0,0.065893
5728.33,0.065911
5734.66,0.065961
5741.01,0.066032
5747.38,0.066062
5753.76,0.06614
5760.15,0.066263
5766.56,0.066262
5772.98,0.066173
5779.41,0.066287
5785.86,0.066274
5792.33,0.066169
5798.81,0.066176
5805.3,0.066194
5811.81,0.066187
5818.33,0.066196
5824.87,0.066145
5831.42,0.066059
5837.99,0.066095
5844.57,0.066051
5851.17,0.06592
5857.78,0.065797
5864.41,0.065641
5871.05,0.065558
5877.7,0.065622
5884.38,0.065519
5891.06,0.065327
5897.76,0.065369
5904.48,0.065302
5911.21,0.06527
5917.96,0.065228
5924.73,0.065161
5931.5,0.065045
5938.3,0.064998
5945.11,0.064805
5951.93,0.064755
5958.78,0.064731
5965.63,0.064579
5972.51,0.06449
5979.39,0.064341
5986.3,0.064147
5993.22,0.064002
6000.16,0.063871
6007.11,0.063756
6014.08,0.063672
6021.06,0.06365
6028.06,0.063592
6035.08,0.063537
6042.12,0.063407
6049.17,0.063303
6056.23,0.063215
6063.32,0.063224
6070.42,0.063302
6077.53,0.063251
6084.67,0.063232
6091.82,0.063211
6098.98,0.063164
6106.17,0.063321
6113.37,0.063426
6120.58,0.063267
6127.82,0.063179
6135.07,0.063162
6142.34,0.063147
6149.63,0.063119
6156.93,0.063021
6164.25,0.063009
6171.59,0.063169
6178.95,0.063153
6186.32,0.063058
6193.71,0.062948
6201.12,0.062915
6208.54,0.062808
6215.99,0.062781
6223.45,0.062821
6230.93,0.062729
6238.43,0.062758
6245.95,0.062763
6253.48,0.062723
6261.03,0.06271
6268.6,0.062711
6276.19,0.06263
6283.8,0.062553
6291.43,0.062482
6299.07,0.062457
6306.73,0.062417
6314.42,0.062436
6322.12,0.062403
6329.84,0.06238
6337.57,0.06239
6345.33,0.062457
6353.11,0.062434
6360.9,0.0624
6368.72,0.062362
6376.55,0.062314
6384.4,0.062303
6392.27,0.062351
6400.17,0.062308
6408.08,0.06227
6416.01,0.062319
6423.96,0.062495
6431.93,0.062526
6439.92,0.062564
6447.93,0.062599
6455.96,0.062618
6464.01,0.062577
6472.08,0.062427
6480.17,0.062281
6488.28,0.062373
6496.41,0.062434
6504.56,0.062387
6512.73,0.062424
6520.92,0.062357
6529.14,0.06226
6537.37,0.062304
6545.63,0.062263
6553.9,0.062213
6562.2,0.062196
6570.51,0.062205
6578.85,0.062164
6587.21,0.062072
6595.59,0.061893
6603.99,0.061741
6612.42,0.061678
6620.86,0.061566
6629.33,0.061584
6637.82,0.061728
6646.33,0.061511
6654.86,0.061411
6663.41,0.061417
6671.99,0.061347
6680.59,0.061345
6689.21,0.061296
6697.85,0.061113
6706.51,0.061001
6715.2,0.060947
6723.91,0.060927
6732.64,0.060897
6741.4,0.060899
6750.18,0.060855
6758.98,0.060753
6767.8,0.06076
6776.65,0.060703
6785.52,0.060611
6794.41,0.060533
6803.33,0.060341
6812.27,0.060252
6821.23,0.060127
6830.22,0.06006
6839.23,0.059965
6848.26,0.05984
6857.32,0.059761
6866.4,0.059752
6875.51,0.059575
6884.64,0.059529
6893.8,0.059456
6902.98,0.059306
6912.18,0.059222
6921.41,0.059125
6930.66,0.058996
6939.94,0.058881
6949.24,0.058759
6958.57,0.058695
6967.92,0.05854
6977.3,0.058317
6986.7,0.058169
6996.13,0.058015
7005.59,0.057936
7015.07,0.057879
7024.57,0.057645
7034.1,0.057331
7043.66,0.057262
7053.25,0.05727
7062.85,0.057204
7072.49,0.057082
7082.15,0.056936
7091.84,0.056865
7101.55,0.056881
7111.3,0.056948
7121.06,0.056873
7130.86,0.056739
7140.68,0.056634
7150.53,0.056473
7160.41,0.056357
7170.31,0.056312
7180.24,0.056265
7190.2,0.056228
7200.19,0.056177
7210.2,0.056079
7220.24,0.055963
7230.31,0.055829
7240.41,0.055694
7250.54,0.055598
7260.69,0.055554
7270.88,0.055462
7281.09,0.055381
7291.33,0.055321
7301.6,0.055158
7311.9,0.055126
7322.22,0.055102
7332.58,0.05503
7342.97,0.054949
7353.38,0.05483
7363.83,0.054677
7374.3,0.054606
7384.81,0.054514
7395.34,0.054429
7405.91,0.054346
7416.5,0.054214
7427.13,0.053981
7437.78,0.05381
7448.47,0.053697
7459.19,0.053608
7469.94,0.053452
7480.71,0.053255
7491.52,0.053071
7502.37,0.052855
7513.24,0.052686
7524.14,0.052642
7535.08,0.05249
7546.05,0.052234
7557.05,0.051963
7568.08,0.051723
7579.15,0.051505
7590.24,0.051393
7601.37,0.051215
7612.53,0.05097
7623.73,0.050836
7634.96,0.050694
7646.22,0.050567
7657.51,0.050442
7668.84,0.050196
7680.2,0.049957
7691.59,0.049845
7703.02,0.049799
7714.49,0.049576
7725.98,0.049481
7737.52,0.049387
7749.08,0.04918
7760.68,0.048855
7772.32,0.048721
7783.99,0.04854
7795.69,0.0483
7807.43,0.048166
7819.21,0.048
7831.02,0.047854
7842.87,0.047598
7854.75,0.047273
7866.67,0.047114
7878.62,0.046871
7890.62,0.046573
7902.64,0.04628
7914.71,0.046033
7926.81,0.045872
7938.95,0.045536
7951.13,0.045049
7963.34,0.044638
7975.59,0.044164
7987.88,0.043746
8000.21,0.043305
8012.57,0.042833
8024.98,0.042267
8037.42,0.04161
8049.9,0.040892
8062.42,0.040297
8074.98,0.039736
8087.57,0.039161
8100.21,0.038651
8112.89,0.038107
8125.6,0.037463
8138.36,0.036849
8151.16,0.036179
8163.99,0.03562
8176.87,0.03511
8189.79,0.034607
8202.75,0.034141
8215.75,0.033716
8228.79,0.033284
8241.87,0.032893
8254.99,0.032393
8268.16,0.031936
8281.37,0.03161
8294.62,0.031157
8307.91,0.030776
8321.24,0.030565
8334.62,0.030138
8348.04,0.029832
8361.51,0.029513
8375.02,0.029293
8388.57,0.029051
8402.16,0.028774
8415.8,0.028552
8429.49,0.028321
8443.22,0.028011
8456.99,0.027871
8470.81,0.027754
8484.67,0.02768
8498.58,0.027463
8512.54,0.027218
8526.54,0.026981
8540.58,0.026931
8554.68,0.026766
8568.82,0.026639
8583.0,0.026622
8597.24,0.026608
8611.52,0.026486
8625.85,0.026397
8640.23,0.026385
8654.65,0.026424
8669.12,0.026467
8683.64,0.026416
8698.21,0.025994
8712.83,0.025586
8727.5,0.025425
8742.22,0.025506
8756.99,0.025675
8771.8,0.026123
8786.67,0.026529
8801.59,0.026678
8816.56,0.026987
8831.58,0.027229
8846.65,0.026963
8861.77,0.026685
8876.94,0.02668
8892.17,0.026582
8907.45,0.026433
8922.78,0.026351
8938.16,0.026438
8953.6,0.026527
8969.09,0.026383
8984.64,0.026346
9000.23,0.026085
9015.89,0.025897
9031.59,0.025797
9047.36,0.025583
9063.17,0.025319
9079.05,0.025158
9094.97,0.024767
9110.96,0.024465
9127.0,0.024243
9143.1,0.024079
9159.25,0.023854
9175.46,0.02387
9191.73,0.023902
9208.06,0.024014
9224.44,0.02411
9240.88,0.024124
9257.38,0.024325
9273.94,0.024454
9290.56,0.024538
9307.24,0.024869
9323.98,0.025077
9340.78,0.025201
9357.64,0.025243
9374.57,0.025024
9391.55,0.02485
9408.59,0.02481
9425.7,0.02456
9442.87,0.024334
9460.1,0.024227
9477.4,0.024128
9494.75,0.02397
9512.17,0.023637
9529.66,0.023294
9547.21,0.023076
9564.83,0.022753
9582.5,0.022444
9600.25,0.02207
9618.06,0.021768
9635.94,0.02133
9653.88,0.020981
9671.89,0.020812
9689.97,0.020657
9708.12,0.020541
9726.33,0.020754
9744.62,0.020896
9762.97,0.021073
9781.39,0.021437
9799.88,0.021988
9818.44,0.022379
9837.07,0.022768
9855.77,0.02309
9874.54,0.023357
9893.39,0.02343
9912.3,0.023579
9931.29,0.023872
9950.36,0.024063
9969.49,0.024
9988.7,0.02382
10007.98,0.023815
10027.34,0.023997
10046.77,0.02404
10066.28,0.024025
10085.87,0.024066
10105.53,0.024172
10125.26,0.024393
10145.08,0.024704
10164.97,0.025023
10184.94,0.025184
10204.99,0.025242
10225.12,0.025332
10245.33,0.025485
10265.61,0.025673
10285.98,0.025852
10306.43,0.026155
10326.96,0.026379
10347.57,0.026597
10368.27,0.026726
10389.05,0.026959
10409.91,0.02725
10430.86,0.027434
10451.88,0.027729
10473.0,0.028019
10494.2,0.028011
10515.49,0.028232
10536.86,0.028423
10558.32,0.028519
10579.87,0.028553
10601.5,0.028788
10623.23,0.02909
10645.04,0.029359
10666.94,0.029634
10688.94,0.029931
10711.02,0.030138
10733.2,0.030413
10755.47,0.030602
10777.83,0.030616
10800.28,0.030629
10822.83,0.030792
10845.47,0.030845
10868.21,0.030928
10891.04,0.030977
10913.97,0.030853
10936.99,0.030669
10960.12,0.030585
10983.34,0.030438
11006.66,0.030543
11030.07,0.030796
11053.59,0.0312
11077.21,0.03148
11100.93,0.03162
11124.75,0.031726
11148.68,0.031929
11172.71,0.0321
11196.84,0.032327
11221.07,0.032435
11245.41,0.032488
11269.86,0.032538
11294.41,0.032674
11319.07,0.03291
11343.84,0.033266
11368.72,0.033565
11393.7,0.033772
11418.8,0.033771
11444.01,0.033933
11469.33,0.034232
11494.76,0.034352
11520.3,0.034416
11545.96,0.034469
11571.73,0.03439
11597.62,0.03436
11623.62,0.034152
11649.74,0.033884
11675.98,0.033665
11702.34,0.03358
11728.81,0.033196
11755.41,0.032791
11782.13,0.03283
11808.96,0.032992
11835.92,0.032712
11863.01,0.032383
11890.22,0.032016
11917.55,0.031631
11945.01,0.031402
11972.6,0.031267
12000.31,0.031635
12028.16,0.032376
12056.13,0.033336
12084.23,0.03477
12112.46,0.036092
12140.83,0.037321
12169.33,0.038824
12197.96,0.039949
12226.73,0.04062
12255.64,0.041554
12284.68,0.042591
12313.86,0.043273
12343.18,0.043698
12372.64,0.044502
12402.24,0.045175
12431.98,0.045358
12461.86,0.045564
12491.89,0.04582
12522.07,0.046241
12552.38,0.046527
12582.85,0.046809
12613.47,0.046962
12644.23,0.04679
12675.15,0.047006
12706.21,0.047191
12737.43,0.047175
12768.81,0.047259
12800.33,0.047166
12832.02,0.047237
12863.86,0.047206
12895.86,0.047074
12928.02,0.04688
12960.34,0.046473
12992.82,0.046048
13025.46,0.045676
13058.27,0.045208
13091.25,0.044793
13124.39,0.044334
13157.7,0.043636
13191.18,0.043061
13224.83,0.042536
13258.66,0.041827
13292.65,0.041092
13326.83,0.040172
13361.17,0.039406
13395.7,0.038646
13430.4,0.037927
13465.29,0.037334
13500.35,0.036469
13535.6,0.035746
13571.03,0.035407
13606.65,0.035126
13642.46,0.0348
13678.46,0.034409
13714.64,0.033974
13751.02,0.03359
13787.59,0.033338
13824.36,0.032894
13861.32,0.032624
13898.49,0.032715
13935.85,0.03272
13973.41,0.032744
14011.17,0.032674
14049.15,0.032573
14087.32,0.032311
14125.71,0.031994
14164.3,0.031491
14203.11,0.03096
14242.13,0.030756
14281.36,0.030258
14320.81,0.029491
14360.49,0.029167
14400.38,0.028688
14440.49,0.028133
14480.82,0.027578
14521.39,0.027254
14562.18,0.026877
14603.2,0.026446
14644.45,0.025983
14685.93,0.025715
14727.66,0.025425
14769.62,0.02501
14811.81,0.024678
14854.25,0.024413
14896.94,0.024189
14939.87,0.024107
14983.05,0.024036
15026.48,0.023721
15070.16,0.02304
15114.1,0.022715
15158.29,0.022614
15202.74,0.022195
15247.46,0.022192
15292.43,0.022068
15337.68,0.021604
15383.19,0.021123
15428.97,0.020945
15475.03,0.021198
15521.36,0.021107
15567.97,0.020713
15614.87,0.020281
15662.04,0.020286
15709.5,0.020204
15757.25,0.020137
15805.29,0.019925
15853.62,0.019924
15902.26,0.020001
15951.19,0.019964
16000.42,0.019601
16049.95,0.019337
16099.8,0.019007
16149.95,0.018525
16200.42,0.018264
16251.21,0.018425
16302.31,0.018331
16353.74,0.018202
16405.49,0.018293
16457.57,0.018623
16509.98,0.018814
16562.73,0.018749
16615.82,0.018836
16669.24,0.019134
16723.02,0.019316
16777.14,0.01959
16831.61,0.019617
16886.43,0.020077
16941.62,0.020427
16997.16,0.020574
17053.08,0.020925
17109.36,0.021254
17166.01,0.021506
17223.04,0.021808
17280.45,0.021915
17338.24,0.02202
17396.43,0.022
17455.0,0.02257
17513.97,0.022648
17573.34,0.02256
17633.11,0.022622
17693.29,0.022818
17753.89,0.023141
17814.9,0.023221
17876.33,0.02321
17938.18,0.023346
18000.47,0.023974
18063.19,0.024931
18126.35,0.02541
18189.95,0.025763
18254.0,0.026465
18318.5,0.027327
18383.46,0.02802
18448.88,0.028862
18514.77,0.029633
18581.13,0.030222
18647.97,0.030392
18715.29,0.030877
18783.1,0.031656
18851.4,0.03269
18920.2,0.033499
18989.51,0.033799
19059.32,0.034103
19129.65,0.034528
19200.5,0.034382
19271.88,0.03449
19343.79,0.034828
19416.24,0.03443
19489.23,0.034062
19562.77,0.034801
19636.88,0.035312
19711.54,0.034479
19786.78,0.03365
19862.59,0.033641
19938.98,0.033382
20015.96,0.03295
20093.55,0.032949
20171.73,0.032484
20250.53,0.03186
20329.94,0.031609
20409.98,0.030712
20490.65,0.030281
20571.96,0.030909
20653.92,0.031588
20736.54,0.032179
20819.82,0.032588
20903.77,0.031831
20988.4,0.031164
21073.72,0.031237
21159.73,0.031108
21246.46,0.030406
21333.89,0.030152
21422.04,0.029982
21510.93,0.030132
21600.56,0.030264
21690.94,0.029663
21782.08,0.029648
21873.99,0.029929
21966.67,0.029594
22060.15,0.029541
22154.42,0.02906
22249.51,0.028786
22345.41,0.028817
22442.14,0.028623
22539.72,0.029521
22638.14,0.03075
22737.43,0.030787
22837.6,0.029864
22938.65,0.029074
23040.6,0.029892
23143.46,0.030415
23247.24,0.03074
23351.96,0.03142
23457.63,0.030843
23564.25,0.031546
23671.85,0.03312
23780.44,0.03262
23890.02,0.03408
24000.63,0.034086
24112.26,0.032545
24224.93,0.032232
24338.66,0.030267
24453.47,0.029668
24569.36,0.030227
24686.36,0.029292
24804.47,0.030713
24923.73,0.032072
25044.13,0.032538
25165.71,0.03452
25288.46,0.034649
25412.43,0.034183
25537.61,0.033422
25664.04,0.033683
25791.72,0.033274
25920.68,0.033956
