Database of Origin,University of Winnipeg Spectrophotometer Facility
Sample Description,Carbonaceous chondrites - RELAB archive 2. CM chondrites
Other Information,spun laser- irradiated
Date Added,2018-07-23 23:44:50.146660

Data ID,RLA_MET_33_39       
Sample ID,Mighei 4b
Mineral Name,CM Chondrite
Grain Size,>200 um
Viewing Geometry,30/0
Material Class,CM2

Wavelength
305.0,0.02829
310.0,0.02843
315.0,0.02867
320.0,0.02869
325.0,0.02886
330.0,0.02905
335.0,0.02937
340.0,0.02973
345.0,0.03007
350.0,0.03031
355.0,0.03041
360.0,0.03049
365.0,0.03058
370.0,0.03066
375.0,0.03075
380.0,0.03093
385.0,0.03117
390.0,0.03121
395.0,0.03132
400.0,0.03142
405.0,0.03132
410.0,0.03147
415.0,0.03149
420.0,0.03177
425.0,0.03201
430.0,0.03219
435.0,0.03243
440.0,0.03258
445.0,0.03277
450.0,0.03299
455.0,0.03316
460.0,0.03337
465.0,0.0336
470.0,0.03376
475.0,0.03405
480.0,0.03422
485.0,0.03445
490.0,0.03466
495.0,0.03485
500.0,0.03506
505.0,0.03525
510.0,0.03546
515.0,0.03569
520.0,0.0359
525.0,0.03614
530.0,0.03646
535.0,0.03672
540.0,0.03703
545.0,0.03724
550.0,0.03736
555.0,0.03751
560.0,0.03766
565.0,0.03785
570.0,0.03802
575.0,0.03815
580.0,0.03833
585.0,0.03847
590.0,0.03863
595.0,0.03876
600.0,0.03892
605.0,0.03908
610.0,0.03939
615.0,0.03966
620.0,0.03985
625.0,0.04011
630.0,0.04032
635.0,0.04051
640.0,0.04065
645.0,0.04082
650.0,0.04092
655.0,0.04104
660.0,0.04107
665.0,0.04114
670.0,0.04116
675.0,0.04126
680.0,0.04133
685.0,0.0414
690.0,0.04148
695.0,0.04151
700.0,0.04159
705.0,0.04167
710.0,0.04174
715.0,0.04185
720.0,0.04192
725.0,0.04213
730.0,0.04228
735.0,0.04238
740.0,0.04249
745.0,0.04251
750.0,0.04269
755.0,0.04277
760.0,0.04284
765.0,0.04301
770.0,0.04307
775.0,0.04323
780.0,0.04326
785.0,0.04335
790.0,0.04356
795.0,0.0437
800.0,0.04374
805.0,0.04384
810.0,0.04399
815.0,0.04412
820.0,0.04422
825.0,0.04441
830.0,0.04448
835.0,0.04456
840.0,0.04463
845.0,0.04465
850.0,0.04473
855.0,0.0448
860.0,0.04498
865.0,0.04508
870.0,0.04521
875.0,0.04525
880.0,0.04528
885.0,0.04523
890.0,0.04523
895.0,0.04529
900.0,0.04534
905.0,0.04538
910.0,0.04544
915.0,0.04552
920.0,0.04556
925.0,0.04563
930.0,0.04573
935.0,0.04581
940.0,0.04584
945.0,0.04594
950.0,0.04604
955.0,0.04606
960.0,0.04611
965.0,0.04622
970.0,0.04622
975.0,0.04623
980.0,0.04634
985.0,0.04644
990.0,0.04642
995.0,0.04647
1000.0,0.04646
1005.0,0.04651
1010.0,0.04654
1015.0,0.04662
1020.0,0.04666
1025.0,0.04672
1030.0,0.04676
1035.0,0.04687
1040.0,0.04691
1045.0,0.047
1050.0,0.04707
1055.0,0.04712
1060.0,0.04708
1065.0,0.04716
1070.0,0.04716
1075.0,0.04717
1080.0,0.04721
1085.0,0.04729
1090.0,0.0473
1095.0,0.04735
1100.0,0.04746
1105.0,0.04743
1110.0,0.04749
1115.0,0.04752
1120.0,0.04754
1125.0,0.04759
1130.0,0.04772
1135.0,0.04778
1140.0,0.04787
1145.0,0.04801
1150.0,0.04805
1155.0,0.04815
1160.0,0.04816
1165.0,0.04826
1170.0,0.04831
1175.0,0.04844
1180.0,0.04849
1185.0,0.04867
1190.0,0.04875
1195.0,0.04878
1200.0,0.04877
1205.0,0.04889
1210.0,0.04896
1215.0,0.04894
1220.0,0.04906
1225.0,0.04917
1230.0,0.04913
1235.0,0.04908
1240.0,0.04913
1245.0,0.04908
1250.0,0.04907
1255.0,0.04907
1260.0,0.04914
1265.0,0.04917
1270.0,0.0492
1275.0,0.04924
1280.0,0.04929
1285.0,0.04933
1290.0,0.04944
1295.0,0.04955
1300.0,0.04963
1305.0,0.04974
1310.0,0.04981
1315.0,0.04989
1320.0,0.04996
1325.0,0.05003
1330.0,0.0501
1335.0,0.0502
1340.0,0.05026
1345.0,0.0503
1350.0,0.05029
1355.0,0.05026
1360.0,0.05031
1365.0,0.05032
1370.0,0.0504
1375.0,0.05049
1380.0,0.05061
1385.0,0.05072
1390.0,0.05081
1395.0,0.05085
1400.0,0.05096
1405.0,0.05109
1410.0,0.05117
1415.0,0.05123
1420.0,0.05132
1425.0,0.05135
1430.0,0.05137
1435.0,0.05144
1440.0,0.05152
1445.0,0.05161
1450.0,0.05171
1455.0,0.05177
1460.0,0.05183
1465.0,0.05191
1470.0,0.05195
1475.0,0.05201
1480.0,0.05211
1485.0,0.05211
1490.0,0.05214
1495.0,0.05222
1500.0,0.05227
1505.0,0.05235
1510.0,0.05251
1515.0,0.0526
1520.0,0.05267
1525.0,0.05273
1530.0,0.0528
1535.0,0.05279
1540.0,0.05283
1545.0,0.05289
1550.0,0.05292
1555.0,0.05295
1560.0,0.05298
1565.0,0.05311
1570.0,0.05314
1575.0,0.05323
1580.0,0.05332
1585.0,0.05342
1590.0,0.05348
1595.0,0.05354
1600.0,0.05359
1605.0,0.05363
1610.0,0.05365
1615.0,0.05371
1620.0,0.0538
1625.0,0.05386
1630.0,0.05393
1635.0,0.05406
1640.0,0.05414
1645.0,0.05423
1650.0,0.05429
1655.0,0.05439
1660.0,0.05449
1665.0,0.05456
1670.0,0.05466
1675.0,0.05475
1680.0,0.05481
1685.0,0.05481
1690.0,0.05489
1695.0,0.05492
1700.0,0.05503
1705.0,0.05506
1710.0,0.0551
1715.0,0.05512
1720.0,0.05516
1725.0,0.05525
1730.0,0.05534
1735.0,0.05539
1740.0,0.05545
1745.0,0.05551
1750.0,0.0556
1755.0,0.05552
1760.0,0.05557
1765.0,0.05564
1770.0,0.05568
1775.0,0.05576
1780.0,0.05582
1785.0,0.05588
1790.0,0.05594
1795.0,0.05599
1800.0,0.05599
1805.0,0.05601
1810.0,0.05604
1815.0,0.05606
1820.0,0.0561
1825.0,0.05614
1830.0,0.05617
1835.0,0.05616
1840.0,0.05619
1845.0,0.0562
1850.0,0.05629
1855.0,0.05636
1860.0,0.05649
1865.0,0.05656
1870.0,0.05664
1875.0,0.0567
1880.0,0.0568
1885.0,0.05683
1890.0,0.0569
1895.0,0.05696
1900.0,0.05699
1905.0,0.05697
1910.0,0.05699
1915.0,0.05702
1920.0,0.05704
1925.0,0.0571
1930.0,0.05715
1935.0,0.05721
1940.0,0.05726
1945.0,0.05729
1950.0,0.05731
1955.0,0.05733
1960.0,0.05741
1965.0,0.05742
1970.0,0.05749
1975.0,0.05753
1980.0,0.05762
1985.0,0.0576
1990.0,0.05767
1995.0,0.05768
2000.0,0.05773
2005.0,0.05769
2010.0,0.05774
2015.0,0.05779
2020.0,0.05782
2025.0,0.05782
2030.0,0.05789
2035.0,0.05791
2040.0,0.05793
2045.0,0.05798
2050.0,0.05803
2055.0,0.05806
2060.0,0.05814
2065.0,0.05818
2070.0,0.05822
2075.0,0.05821
2080.0,0.05826
2085.0,0.05826
2090.0,0.05828
2095.0,0.0583
2100.0,0.05835
2105.0,0.05837
2110.0,0.05845
2115.0,0.05845
2120.0,0.0585
2125.0,0.05858
2130.0,0.05863
2135.0,0.05864
2140.0,0.05871
2145.0,0.05878
2150.0,0.05876
2155.0,0.05879
2160.0,0.05881
2165.0,0.05885
2170.0,0.0589
2175.0,0.05897
2180.0,0.05907
2185.0,0.05916
2190.0,0.05923
2195.0,0.05926
2200.0,0.05932
2205.0,0.05937
2210.0,0.05945
2215.0,0.05946
2220.0,0.05947
2225.0,0.05956
2230.0,0.05963
2235.0,0.05965
2240.0,0.05971
2245.0,0.05984
2250.0,0.05988
2255.0,0.05987
2260.0,0.05996
2265.0,0.05998
2270.0,0.06004
2275.0,0.06007
2280.0,0.06008
2285.0,0.06008
2290.0,0.06016
2295.0,0.06015
2300.0,0.0602
2305.0,0.06032
2310.0,0.06035
2315.0,0.06038
2320.0,0.06041
2325.0,0.06042
2330.0,0.06037
2335.0,0.0604
2340.0,0.06044
2345.0,0.0605
2350.0,0.06058
2355.0,0.06066
2360.0,0.06073
2365.0,0.06072
2370.0,0.06072
2375.0,0.06071
2380.0,0.06074
2385.0,0.06073
2390.0,0.06083
2395.0,0.0609
2400.0,0.06098
2405.0,0.06102
2410.0,0.06109
2415.0,0.06113
2420.0,0.06112
2425.0,0.06114
2430.0,0.06119
2435.0,0.06126
2440.0,0.06122
2445.0,0.06118
2450.0,0.06113
2455.0,0.06107
2460.0,0.06105
2465.0,0.0611
2470.0,0.06117
2475.0,0.06122
2480.0,0.06135
2485.0,0.06136
2490.0,0.06137
2495.0,0.06141
2500.0,0.06146
2505.0,0.06141
2510.0,0.06139
2515.0,0.06129
2520.0,0.06129
2525.0,0.06111
2530.0,0.0611
2535.0,0.06102
2540.0,0.06105
2545.0,0.06099
2550.0,0.06104
2555.0,0.0608
2560.0,0.06069
2565.0,0.06067
2570.0,0.06068
2575.0,0.06047
2580.0,0.06052
2585.0,0.0605
2590.0,0.06039
2595.0,0.06027
2600.0,0.06006
