Database of Origin,University of Winnipeg Spectrophotometer Facility
Sample Description,Carbonaceous chondrites - RELAB archive 6. CV chondrites
Other Information,heated to 900C
Date Added,2018-07-23 23:45:03.196130

Data ID,RLA_MET_37_21       
Sample ID,Allende
Mineral Name,Allende
Grain Size,<63 um
Viewing Geometry,30/0
Material Class,CV3.2-3.3/ OxA

Wavelength
305.0,0.040416
310.0,0.041905
315.0,0.044515
320.0,0.047195
325.0,0.049132
330.0,0.051994
335.0,0.056146
340.0,0.057892
345.0,0.060396
350.0,0.062902
355.0,0.06487
360.0,0.066492
365.0,0.067929
370.0,0.068999
375.0,0.070052
380.0,0.071108
385.0,0.071872
390.0,0.072542
395.0,0.073324
400.0,0.074263
405.0,0.074595
410.0,0.074922
415.0,0.075347
420.0,0.07575
425.0,0.075879
430.0,0.076368
435.0,0.076666
440.0,0.076784
445.0,0.07716
450.0,0.077126
455.0,0.077343
460.0,0.077424
465.0,0.077709
470.0,0.078417
475.0,0.0784
480.0,0.078553
485.0,0.078653
490.0,0.07875
495.0,0.07891
500.0,0.07916
505.0,0.079388
510.0,0.07983
515.0,0.079812
520.0,0.079776
525.0,0.080018
530.0,0.080325
535.0,0.080424
540.0,0.080521
545.0,0.080706
550.0,0.080763
555.0,0.080804
560.0,0.080951
565.0,0.080967
570.0,0.080882
575.0,0.081034
580.0,0.080953
585.0,0.081028
590.0,0.081043
595.0,0.081208
600.0,0.081181
605.0,0.081317
610.0,0.081459
615.0,0.081734
620.0,0.081971
625.0,0.081943
630.0,0.082122
635.0,0.082235
640.0,0.082336
645.0,0.082377
650.0,0.082448
655.0,0.082557
660.0,0.082567
665.0,0.082519
670.0,0.082221
675.0,0.082373
680.0,0.082367
685.0,0.082368
690.0,0.082302
695.0,0.082427
700.0,0.082442
705.0,0.082315
710.0,0.082278
715.0,0.08234
720.0,0.082171
725.0,0.082211
730.0,0.082281
735.0,0.082294
740.0,0.082227
745.0,0.08217
750.0,0.081939
755.0,0.08192
760.0,0.082087
765.0,0.081989
770.0,0.081833
775.0,0.081862
780.0,0.081282
785.0,0.081327
790.0,0.081205
795.0,0.080937
800.0,0.081859
805.0,0.081807
810.0,0.081402
815.0,0.08177
820.0,0.081186
825.0,0.081788
830.0,0.080988
835.0,0.08132
840.0,0.081737
845.0,0.080972
850.0,0.081402
855.0,0.082004
860.0,0.082152
865.0,0.081681
870.0,0.081996
875.0,0.081242
880.0,0.081132
885.0,0.081881
890.0,0.081595
895.0,0.08122
900.0,0.081237
905.0,0.081063
910.0,0.081209
915.0,0.081081
920.0,0.080899
925.0,0.08096
930.0,0.08057
935.0,0.08052
940.0,0.081
945.0,0.080764
950.0,0.080998
955.0,0.081154
960.0,0.081033
965.0,0.080837
970.0,0.08059
975.0,0.080567
980.0,0.080407
985.0,0.080257
990.0,0.080157
995.0,0.08017
1000.0,0.080275
1005.0,0.080076
1010.0,0.080152
1015.0,0.079864
1020.0,0.079899
1025.0,0.07982
1030.0,0.079762
1035.0,0.079929
1040.0,0.079848
1045.0,0.079655
1050.0,0.079638
1055.0,0.079662
1060.0,0.079557
1065.0,0.079881
1070.0,0.07982
1075.0,0.079622
1080.0,0.079744
1085.0,0.079706
1090.0,0.0801
1095.0,0.080286
1100.0,0.080202
1105.0,0.080569
1110.0,0.080525
1115.0,0.080667
1120.0,0.080639
1125.0,0.080979
1130.0,0.081179
1135.0,0.08109
1140.0,0.081372
1145.0,0.081429
1150.0,0.081552
1155.0,0.081598
1160.0,0.081776
1165.0,0.081808
1170.0,0.082019
1175.0,0.082277
1180.0,0.082254
1185.0,0.082457
1190.0,0.082391
1195.0,0.082534
1200.0,0.082359
1205.0,0.082278
1210.0,0.082839
1215.0,0.08273
1220.0,0.08261
1225.0,0.082592
1230.0,0.082599
1235.0,0.082789
1240.0,0.082572
1245.0,0.082874
1250.0,0.082853
1255.0,0.082908
1260.0,0.083001
1265.0,0.083018
1270.0,0.083331
1275.0,0.083286
1280.0,0.083401
1285.0,0.083139
1290.0,0.083335
1295.0,0.083485
1300.0,0.083707
1305.0,0.083777
1310.0,0.083931
1315.0,0.083961
1320.0,0.084114
1325.0,0.084254
1330.0,0.084067
1335.0,0.084343
1340.0,0.084407
1345.0,0.084347
1350.0,0.084409
1355.0,0.085105
1360.0,0.084751
1365.0,0.085163
1370.0,0.084958
1375.0,0.085454
1380.0,0.085419
1385.0,0.085566
1390.0,0.085767
1395.0,0.085512
1400.0,0.085656
1405.0,0.086021
1410.0,0.085978
1415.0,0.086298
1420.0,0.086077
1425.0,0.086576
1430.0,0.086557
1435.0,0.086748
1440.0,0.086722
1445.0,0.086694
1450.0,0.087196
1455.0,0.08712
1460.0,0.087236
1465.0,0.087255
1470.0,0.08716
1475.0,0.087666
1480.0,0.087232
1485.0,0.087567
1490.0,0.08753
1495.0,0.087856
1500.0,0.087582
1505.0,0.087803
1510.0,0.08809
1515.0,0.087803
1520.0,0.088017
1525.0,0.088059
1530.0,0.088179
1535.0,0.088199
1540.0,0.088209
1545.0,0.088263
1550.0,0.08834
1555.0,0.088119
1560.0,0.088286
1565.0,0.088358
1570.0,0.08857
1575.0,0.088288
1580.0,0.088534
1585.0,0.088411
1590.0,0.088678
1595.0,0.088493
1600.0,0.088628
1605.0,0.088535
1610.0,0.088576
1615.0,0.08877
1620.0,0.088635
1625.0,0.08853
1630.0,0.088416
1635.0,0.08861
1640.0,0.088675
1645.0,0.088653
1650.0,0.088718
1655.0,0.088494
1660.0,0.088584
1665.0,0.088589
1670.0,0.088583
1675.0,0.088881
1680.0,0.088826
1685.0,0.088596
1690.0,0.089048
1695.0,0.088583
1700.0,0.089085
1705.0,0.08877
1710.0,0.088825
1715.0,0.088573
1720.0,0.088498
1725.0,0.088704
1730.0,0.088403
1735.0,0.088403
1740.0,0.088326
1745.0,0.08845
1750.0,0.088344
1755.0,0.088284
1760.0,0.088138
1765.0,0.088164
1770.0,0.088007
1775.0,0.088045
1780.0,0.088062
1785.0,0.088148
1790.0,0.087968
1795.0,0.088475
1800.0,0.088399
1805.0,0.088321
1810.0,0.08844
1815.0,0.088739
1820.0,0.088502
1825.0,0.08861
1830.0,0.088726
1835.0,0.088719
1840.0,0.0888
1845.0,0.088558
1850.0,0.088916
1855.0,0.088962
1860.0,0.088669
1865.0,0.088897
1870.0,0.088486
1875.0,0.088426
1880.0,0.08879
1885.0,0.088707
1890.0,0.08872
1895.0,0.089039
1900.0,0.088868
1905.0,0.088938
1910.0,0.088888
1915.0,0.088867
1920.0,0.088692
1925.0,0.088696
1930.0,0.088729
1935.0,0.088915
1940.0,0.088805
1945.0,0.088891
1950.0,0.088567
1955.0,0.088843
1960.0,0.088903
1965.0,0.088813
1970.0,0.088642
1975.0,0.088799
1980.0,0.088935
1985.0,0.088752
1990.0,0.088865
1995.0,0.088861
2000.0,0.089034
2005.0,0.08913
2010.0,0.089091
2015.0,0.089203
2020.0,0.089097
2025.0,0.089187
2030.0,0.088993
2035.0,0.089286
2040.0,0.089205
2045.0,0.089253
2050.0,0.089259
2055.0,0.089238
2060.0,0.089234
2065.0,0.089064
2070.0,0.089118
2075.0,0.089191
2080.0,0.089028
2085.0,0.089135
2090.0,0.089065
2095.0,0.089036
2100.0,0.088995
2105.0,0.089126
2110.0,0.089047
2115.0,0.089493
2120.0,0.089273
2125.0,0.089054
2130.0,0.089203
2135.0,0.089317
2140.0,0.089035
2145.0,0.089375
2150.0,0.089365
2155.0,0.089452
2160.0,0.089279
2165.0,0.089134
2170.0,0.089167
2175.0,0.08928
2180.0,0.089191
2185.0,0.089279
2190.0,0.089126
2195.0,0.089238
2200.0,0.089498
2205.0,0.089336
2210.0,0.089516
2215.0,0.089836
2220.0,0.089689
2225.0,0.089765
2230.0,0.090043
2235.0,0.090003
2240.0,0.089792
2245.0,0.090012
2250.0,0.09018
2255.0,0.09036
2260.0,0.090261
2265.0,0.090215
2270.0,0.090202
2275.0,0.090202
2280.0,0.090372
2285.0,0.090443
2290.0,0.090749
2295.0,0.090775
2300.0,0.090812
2305.0,0.090652
2310.0,0.090863
2315.0,0.090929
2320.0,0.090585
2325.0,0.090856
2330.0,0.090803
2335.0,0.090891
2340.0,0.091003
2345.0,0.090711
2350.0,0.090733
2355.0,0.09085
2360.0,0.090986
2365.0,0.090769
2370.0,0.090778
2375.0,0.091013
2380.0,0.091172
2385.0,0.091195
2390.0,0.091269
2395.0,0.091224
2400.0,0.091618
2405.0,0.091547
2410.0,0.091745
2415.0,0.091731
2420.0,0.09167
2425.0,0.091627
2430.0,0.091698
2435.0,0.091665
2440.0,0.091814
2445.0,0.091739
2450.0,0.09179
2455.0,0.091783
2460.0,0.091772
2465.0,0.091863
2470.0,0.091859
2475.0,0.092326
2480.0,0.091979
2485.0,0.092215
2490.0,0.092342
2495.0,0.092364
2500.0,0.092159
2505.0,0.092377
2510.0,0.092408
2515.0,0.09201
2520.0,0.092444
2525.0,0.092536
2530.0,0.092574
2535.0,0.092923
2540.0,0.093064
2545.0,0.092525
2550.0,0.092414
2555.0,0.093137
2560.0,0.092081
2565.0,0.09223
2570.0,0.091708
2575.0,0.092203
2580.0,0.092317
2585.0,0.09242
2590.0,0.092646
2595.0,0.09258
2600.0,0.093076
