Database of Origin,University of Winnipeg Spectrophotometer Facility
Sample Description,Carbonaceous chondrites - RELAB archive 2. CM chondrites
Date Added,2018-07-23 23:44:49.501366

Data ID,RLA_MET_33_11       
Sample ID,ALH84044/16
Mineral Name,CM Chondrite
Grain Size,<125 um
Viewing Geometry,30/0
Material Class,CM2

Wavelength
305.0,0.023845
310.0,0.024093
315.0,0.024544
320.0,0.024729
325.0,0.025549
330.0,0.026055
335.0,0.026115
340.0,0.026163
345.0,0.026969
350.0,0.027567
355.0,0.028599
360.0,0.029444
365.0,0.030732
370.0,0.031584
375.0,0.032406
380.0,0.033039
385.0,0.034113
390.0,0.034703
395.0,0.03555
400.0,0.035943
405.0,0.037129
410.0,0.03736
415.0,0.038012
420.0,0.038679
425.0,0.039413
430.0,0.040208
435.0,0.040885
440.0,0.041396
445.0,0.042008
450.0,0.04238
455.0,0.042948
460.0,0.043518
465.0,0.043894
470.0,0.044575
475.0,0.045238
480.0,0.045838
485.0,0.046291
490.0,0.046861
495.0,0.047233
500.0,0.047903
505.0,0.048403
510.0,0.048912
515.0,0.049234
520.0,0.049562
525.0,0.04984
530.0,0.050205
535.0,0.05044
540.0,0.050692
545.0,0.051055
550.0,0.051189
555.0,0.051357
560.0,0.051472
565.0,0.051583
570.0,0.05162
575.0,0.051702
580.0,0.051616
585.0,0.051668
590.0,0.051621
595.0,0.051565
600.0,0.05144
605.0,0.0515
610.0,0.051414
615.0,0.051301
620.0,0.051117
625.0,0.051109
630.0,0.050887
635.0,0.050772
640.0,0.050695
645.0,0.050501
650.0,0.050437
655.0,0.050101
660.0,0.049915
665.0,0.04983
670.0,0.049876
675.0,0.0497
680.0,0.04947
685.0,0.049224
690.0,0.049232
695.0,0.04931
700.0,0.049235
705.0,0.049162
710.0,0.048848
715.0,0.048979
720.0,0.04884
725.0,0.048899
730.0,0.048903
735.0,0.048997
740.0,0.048989
745.0,0.049323
750.0,0.049483
755.0,0.049122
760.0,0.049943
765.0,0.050125
770.0,0.049907
775.0,0.050139
780.0,0.05036
785.0,0.050399
790.0,0.050739
795.0,0.050882
800.0,0.051119
805.0,0.051294
810.0,0.051252
815.0,0.051373
820.0,0.051748
825.0,0.05177
830.0,0.05167
835.0,0.051896
840.0,0.052084
845.0,0.052333
850.0,0.052231
855.0,0.051946
860.0,0.052112
865.0,0.052093
870.0,0.051961
875.0,0.051927
880.0,0.051773
885.0,0.051619
890.0,0.051811
895.0,0.051755
900.0,0.051722
905.0,0.051582
910.0,0.051804
915.0,0.051741
920.0,0.051919
925.0,0.051669
930.0,0.05178
935.0,0.051622
940.0,0.052217
945.0,0.052082
950.0,0.052205
955.0,0.052662
960.0,0.05265
965.0,0.052962
970.0,0.052958
975.0,0.053282
980.0,0.05316
985.0,0.053094
990.0,0.053321
995.0,0.053443
1000.0,0.053502
1005.0,0.053623
1010.0,0.053833
1015.0,0.05389
1020.0,0.05405
1025.0,0.054033
1030.0,0.054049
1035.0,0.054199
1040.0,0.054389
1045.0,0.054291
1050.0,0.054396
1055.0,0.054358
1060.0,0.054499
1065.0,0.054519
1070.0,0.054617
1075.0,0.054428
1080.0,0.054548
1085.0,0.054544
1090.0,0.054828
1095.0,0.054737
1100.0,0.054723
1105.0,0.054821
1110.0,0.054853
1115.0,0.054816
1120.0,0.055023
1125.0,0.055095
1130.0,0.055149
1135.0,0.055239
1140.0,0.055143
1145.0,0.055358
1150.0,0.05541
1155.0,0.055557
1160.0,0.055688
1165.0,0.055755
1170.0,0.056008
1175.0,0.056194
1180.0,0.056101
1185.0,0.056337
1190.0,0.056481
1195.0,0.05675
1200.0,0.056837
1205.0,0.056719
1210.0,0.05692
1215.0,0.057363
1220.0,0.057441
1225.0,0.057576
1230.0,0.057585
1235.0,0.057581
1240.0,0.057703
1245.0,0.057754
1250.0,0.05788
1255.0,0.058093
1260.0,0.0582
1265.0,0.058242
1270.0,0.058468
1275.0,0.058651
1280.0,0.05875
1285.0,0.058867
1290.0,0.059103
1295.0,0.05932
1300.0,0.059773
1305.0,0.059605
1310.0,0.059736
1315.0,0.059915
1320.0,0.060203
1325.0,0.06037
1330.0,0.060522
1335.0,0.060767
1340.0,0.060739
1345.0,0.061034
1350.0,0.061092
1355.0,0.060815
1360.0,0.060772
1365.0,0.061508
1370.0,0.061417
1375.0,0.061643
1380.0,0.061028
1385.0,0.062268
1390.0,0.062142
1395.0,0.061588
1400.0,0.061632
1405.0,0.062026
1410.0,0.062669
1415.0,0.062517
1420.0,0.062712
1425.0,0.062884
1430.0,0.062988
1435.0,0.063413
1440.0,0.063388
1445.0,0.063414
1450.0,0.063625
1455.0,0.063723
1460.0,0.064117
1465.0,0.064054
1470.0,0.064338
1475.0,0.064379
1480.0,0.064437
1485.0,0.064872
1490.0,0.064833
1495.0,0.065093
1500.0,0.065031
1505.0,0.065165
1510.0,0.065331
1515.0,0.065317
1520.0,0.065547
1525.0,0.065537
1530.0,0.065634
1535.0,0.06579
1540.0,0.065914
1545.0,0.066088
1550.0,0.066258
1555.0,0.066275
1560.0,0.066416
1565.0,0.066473
1570.0,0.066393
1575.0,0.06669
1580.0,0.066709
1585.0,0.066883
1590.0,0.066796
1595.0,0.067104
1600.0,0.067064
1605.0,0.067082
1610.0,0.067452
1615.0,0.067555
1620.0,0.067665
1625.0,0.067547
1630.0,0.067421
1635.0,0.067621
1640.0,0.067932
1645.0,0.067805
1650.0,0.068038
1655.0,0.068047
1660.0,0.068566
1665.0,0.068608
1670.0,0.068722
1675.0,0.068944
1680.0,0.068993
1685.0,0.069157
1690.0,0.069217
1695.0,0.069229
1700.0,0.069369
1705.0,0.069508
1710.0,0.069388
1715.0,0.069566
1720.0,0.069616
1725.0,0.069788
1730.0,0.069667
1735.0,0.069994
1740.0,0.069806
1745.0,0.069803
1750.0,0.069903
1755.0,0.069946
1760.0,0.069924
1765.0,0.069918
1770.0,0.070214
1775.0,0.070062
1780.0,0.070243
1785.0,0.070145
1790.0,0.070157
1795.0,0.070469
1800.0,0.070537
1805.0,0.070767
1810.0,0.070802
1815.0,0.070873
1820.0,0.070774
1825.0,0.07092
1830.0,0.071146
1835.0,0.070954
1840.0,0.071482
1845.0,0.07143
1850.0,0.071411
1855.0,0.071406
1860.0,0.071352
1865.0,0.071425
1870.0,0.0713
1875.0,0.072149
1880.0,0.071831
1885.0,0.071641
1890.0,0.071456
1895.0,0.071511
1900.0,0.071572
1905.0,0.071974
1910.0,0.071748
1915.0,0.071558
1920.0,0.07137
1925.0,0.071669
1930.0,0.07146
1935.0,0.071346
1940.0,0.071531
1945.0,0.071694
1950.0,0.07138
1955.0,0.071557
1960.0,0.071502
1965.0,0.071652
1970.0,0.071649
1975.0,0.071829
1980.0,0.071679
1985.0,0.071792
1990.0,0.072028
1995.0,0.071908
2000.0,0.072149
2005.0,0.072259
2010.0,0.072353
2015.0,0.072272
2020.0,0.072386
2025.0,0.072405
2030.0,0.072438
2035.0,0.072657
2040.0,0.07274
2045.0,0.072761
2050.0,0.072654
2055.0,0.072847
2060.0,0.072578
2065.0,0.072829
2070.0,0.072716
2075.0,0.072976
2080.0,0.073295
2085.0,0.073148
2090.0,0.072892
2095.0,0.073214
2100.0,0.073157
2105.0,0.073207
2110.0,0.073168
2115.0,0.073246
2120.0,0.073407
2125.0,0.073318
2130.0,0.073312
2135.0,0.073339
2140.0,0.073072
2145.0,0.073224
2150.0,0.073317
2155.0,0.073499
2160.0,0.073285
2165.0,0.073545
2170.0,0.073757
2175.0,0.073453
2180.0,0.073718
2185.0,0.073708
2190.0,0.073881
2195.0,0.073813
2200.0,0.073961
2205.0,0.074104
2210.0,0.07415
2215.0,0.074179
2220.0,0.074195
2225.0,0.074286
2230.0,0.07415
2235.0,0.074094
2240.0,0.073943
2245.0,0.074059
2250.0,0.074025
2255.0,0.074036
2260.0,0.074121
2265.0,0.074014
2270.0,0.074263
2275.0,0.074062
2280.0,0.073851
2285.0,0.073824
2290.0,0.073646
2295.0,0.073813
2300.0,0.073586
2305.0,0.073454
2310.0,0.073481
2315.0,0.073463
2320.0,0.073421
2325.0,0.07318
2330.0,0.07381
2335.0,0.073928
2340.0,0.074032
2345.0,0.07428
2350.0,0.074591
2355.0,0.07468
2360.0,0.074897
2365.0,0.074791
2370.0,0.074712
2375.0,0.075287
2380.0,0.075306
2385.0,0.075051
2390.0,0.075152
2395.0,0.075447
2400.0,0.075308
2405.0,0.075338
2410.0,0.075506
2415.0,0.075537
2420.0,0.075712
2425.0,0.075677
2430.0,0.075657
2435.0,0.075486
2440.0,0.07551
2445.0,0.075695
2450.0,0.075537
2455.0,0.07575
2460.0,0.075603
2465.0,0.07569
2470.0,0.075856
2475.0,0.076046
2480.0,0.075925
2485.0,0.075701
2490.0,0.075898
2495.0,0.075616
2500.0,0.07576
2505.0,0.075802
2510.0,0.075698
2515.0,0.07583
2520.0,0.075946
2525.0,0.075894
2530.0,0.076131
2535.0,0.076288
2540.0,0.076134
2545.0,0.07637
2550.0,0.07683
2555.0,0.076841
2560.0,0.076874
2565.0,0.077028
2570.0,0.077023
2575.0,0.077214
2580.0,0.07708
2585.0,0.078127
2590.0,0.079026
2595.0,0.078284
2600.0,0.078826
