Database of Origin,University of Winnipeg Spectrophotometer Facility
Sample Description,Carbonaceous chondrites - RELAB archive 2. CM chondrites
Other Information,spun 4d ground to <45 um
Date Added,2018-07-23 23:44:50.263621

Data ID,RLA_MET_33_46       
Sample ID,Mighei 4dg
Mineral Name,CM Chondrite
Grain Size,<45 um
Viewing Geometry,30/0
Material Class,CM2

Wavelength
305.0,0.0263
310.0,0.02676
315.0,0.02783
320.0,0.02833
325.0,0.02899
330.0,0.02962
335.0,0.03017
340.0,0.03052
345.0,0.03064
350.0,0.03079
355.0,0.031
360.0,0.03118
365.0,0.03135
370.0,0.03155
375.0,0.03174
380.0,0.03199
385.0,0.03229
390.0,0.03247
395.0,0.03268
400.0,0.03286
405.0,0.03298
410.0,0.03316
415.0,0.03328
420.0,0.03355
425.0,0.03373
430.0,0.03401
435.0,0.03421
440.0,0.03434
445.0,0.03456
450.0,0.03466
455.0,0.03491
460.0,0.03512
465.0,0.03523
470.0,0.03545
475.0,0.03564
480.0,0.03587
485.0,0.03609
490.0,0.03626
495.0,0.03645
500.0,0.03669
505.0,0.03685
510.0,0.03711
515.0,0.03731
520.0,0.0375
525.0,0.03771
530.0,0.03796
535.0,0.03823
540.0,0.03844
545.0,0.03861
550.0,0.03875
555.0,0.03882
560.0,0.03901
565.0,0.03916
570.0,0.03931
575.0,0.03942
580.0,0.03954
585.0,0.03968
590.0,0.03983
595.0,0.03993
600.0,0.04009
605.0,0.04024
610.0,0.04041
615.0,0.04058
620.0,0.04073
625.0,0.04088
630.0,0.04104
635.0,0.04111
640.0,0.04128
645.0,0.04133
650.0,0.04141
655.0,0.04148
660.0,0.04154
665.0,0.04156
670.0,0.04161
675.0,0.04164
680.0,0.04165
685.0,0.04176
690.0,0.04182
695.0,0.04189
700.0,0.04193
705.0,0.04195
710.0,0.04204
715.0,0.04209
720.0,0.04218
725.0,0.04202
730.0,0.0421
735.0,0.04216
740.0,0.0422
745.0,0.04234
750.0,0.04234
755.0,0.0425
760.0,0.04253
765.0,0.04266
770.0,0.04267
775.0,0.04279
780.0,0.04286
785.0,0.04301
790.0,0.04306
795.0,0.04306
800.0,0.04313
805.0,0.0432
810.0,0.04329
815.0,0.0434
820.0,0.04347
825.0,0.04352
830.0,0.04358
835.0,0.04368
840.0,0.04369
845.0,0.04383
850.0,0.04386
855.0,0.04402
860.0,0.04409
865.0,0.04419
870.0,0.04419
875.0,0.0443
880.0,0.04443
885.0,0.04448
890.0,0.04459
895.0,0.04461
900.0,0.04463
905.0,0.0446
910.0,0.04459
915.0,0.04455
920.0,0.04463
925.0,0.04468
930.0,0.04477
935.0,0.04484
940.0,0.04493
945.0,0.045
950.0,0.04509
955.0,0.04518
960.0,0.04536
965.0,0.04548
970.0,0.04561
975.0,0.04567
980.0,0.04573
985.0,0.0457
990.0,0.04574
995.0,0.04574
1000.0,0.04573
1005.0,0.0458
1010.0,0.04583
1015.0,0.04587
1020.0,0.04591
1025.0,0.04599
1030.0,0.04601
1035.0,0.04613
1040.0,0.04617
1045.0,0.04625
1050.0,0.04628
1055.0,0.04637
1060.0,0.04641
1065.0,0.04641
1070.0,0.04641
1075.0,0.04645
1080.0,0.04644
1085.0,0.04645
1090.0,0.0465
1095.0,0.04654
1100.0,0.04658
1105.0,0.04662
1110.0,0.04659
1115.0,0.04668
1120.0,0.04669
1125.0,0.04676
1130.0,0.04684
1135.0,0.04696
1140.0,0.04706
1145.0,0.04716
1150.0,0.04718
1155.0,0.0472
1160.0,0.04726
1165.0,0.04722
1170.0,0.04729
1175.0,0.04737
1180.0,0.04743
1185.0,0.04749
1190.0,0.04759
1195.0,0.0476
1200.0,0.04766
1205.0,0.04777
1210.0,0.04783
1215.0,0.04782
1220.0,0.04786
1225.0,0.04791
1230.0,0.04787
1235.0,0.04792
1240.0,0.048
1245.0,0.04806
1250.0,0.0481
1255.0,0.04816
1260.0,0.04816
1265.0,0.04818
1270.0,0.04821
1275.0,0.04821
1280.0,0.04821
1285.0,0.04827
1290.0,0.04831
1295.0,0.04833
1300.0,0.04833
1305.0,0.04838
1310.0,0.04843
1315.0,0.04848
1320.0,0.04856
1325.0,0.04869
1330.0,0.04877
1335.0,0.04889
1340.0,0.04898
1345.0,0.04903
1350.0,0.04918
1355.0,0.04938
1360.0,0.04952
1365.0,0.04973
1370.0,0.04987
1375.0,0.05003
1380.0,0.05012
1385.0,0.05025
1390.0,0.05027
1395.0,0.05042
1400.0,0.05048
1405.0,0.05051
1410.0,0.05062
1415.0,0.05077
1420.0,0.05088
1425.0,0.05098
1430.0,0.05114
1435.0,0.0512
1440.0,0.05127
1445.0,0.05136
1450.0,0.05141
1455.0,0.05149
1460.0,0.05159
1465.0,0.05169
1470.0,0.05186
1475.0,0.05197
1480.0,0.05202
1485.0,0.0521
1490.0,0.05215
1495.0,0.05211
1500.0,0.05222
1505.0,0.05227
1510.0,0.05232
1515.0,0.05242
1520.0,0.05258
1525.0,0.05258
1530.0,0.05267
1535.0,0.0528
1540.0,0.0528
1545.0,0.05285
1550.0,0.0529
1555.0,0.05295
1560.0,0.05298
1565.0,0.05307
1570.0,0.05307
1575.0,0.05314
1580.0,0.0532
1585.0,0.05323
1590.0,0.05335
1595.0,0.05339
1600.0,0.05346
1605.0,0.05347
1610.0,0.05351
1615.0,0.0535
1620.0,0.05359
1625.0,0.05361
1630.0,0.05363
1635.0,0.05361
1640.0,0.05363
1645.0,0.05361
1650.0,0.05363
1655.0,0.05374
1660.0,0.05391
1665.0,0.05401
1670.0,0.05414
1675.0,0.05421
1680.0,0.05423
1685.0,0.05422
1690.0,0.05423
1695.0,0.05424
1700.0,0.05446
1705.0,0.05455
1710.0,0.05452
1715.0,0.05444
1720.0,0.05445
1725.0,0.05449
1730.0,0.05454
1735.0,0.05456
1740.0,0.05458
1745.0,0.05465
1750.0,0.05459
1755.0,0.05481
1760.0,0.05496
1765.0,0.05511
1770.0,0.05523
1775.0,0.05544
1780.0,0.05551
1785.0,0.0556
1790.0,0.05561
1795.0,0.05572
1800.0,0.05577
1805.0,0.05581
1810.0,0.05581
1815.0,0.05597
1820.0,0.05603
1825.0,0.05607
1830.0,0.05608
1835.0,0.05622
1840.0,0.05626
1845.0,0.05635
1850.0,0.05647
1855.0,0.05648
1860.0,0.05633
1865.0,0.05644
1870.0,0.05651
1875.0,0.05649
1880.0,0.05665
1885.0,0.05695
1890.0,0.05674
1895.0,0.05685
1900.0,0.05691
1905.0,0.05697
1910.0,0.05692
1915.0,0.05714
1920.0,0.05695
1925.0,0.05699
1930.0,0.05695
1935.0,0.05688
1940.0,0.05677
1945.0,0.05671
1950.0,0.05661
1955.0,0.05651
1960.0,0.0566
1965.0,0.05659
1970.0,0.05673
1975.0,0.05678
1980.0,0.05685
1985.0,0.05684
1990.0,0.05686
1995.0,0.05689
2000.0,0.057
2005.0,0.05717
2010.0,0.05729
2015.0,0.0575
2020.0,0.05761
2025.0,0.05763
2030.0,0.05773
2035.0,0.05786
2040.0,0.05792
2045.0,0.05799
2050.0,0.05811
2055.0,0.05808
2060.0,0.05816
2065.0,0.05826
2070.0,0.05827
2075.0,0.05836
2080.0,0.05848
2085.0,0.05851
2090.0,0.05857
2095.0,0.05874
2100.0,0.05883
2105.0,0.05895
2110.0,0.059
2115.0,0.05907
2120.0,0.05913
2125.0,0.05915
2130.0,0.05925
2135.0,0.05933
2140.0,0.05942
2145.0,0.0595
2150.0,0.0596
2155.0,0.05961
2160.0,0.05974
2165.0,0.05985
2170.0,0.05992
2175.0,0.05989
2180.0,0.06005
2185.0,0.06008
2190.0,0.06019
2195.0,0.06032
2200.0,0.06057
2205.0,0.06057
2210.0,0.06064
2215.0,0.06067
2220.0,0.06066
2225.0,0.06069
2230.0,0.06066
2235.0,0.06074
2240.0,0.06079
2245.0,0.06088
2250.0,0.0608
2255.0,0.06089
2260.0,0.06081
2265.0,0.06081
2270.0,0.06079
2275.0,0.06089
2280.0,0.06099
2285.0,0.06111
2290.0,0.06119
2295.0,0.06117
2300.0,0.06119
2305.0,0.06113
2310.0,0.0611
2315.0,0.06103
2320.0,0.06109
2325.0,0.06106
2330.0,0.06109
2335.0,0.06115
2340.0,0.06122
2345.0,0.06122
2350.0,0.06132
2355.0,0.06134
2360.0,0.06133
2365.0,0.0614
2370.0,0.0614
2375.0,0.06142
2380.0,0.06157
2385.0,0.06166
2390.0,0.06172
2395.0,0.0618
2400.0,0.06188
2405.0,0.0619
2410.0,0.06207
2415.0,0.06222
2420.0,0.06236
2425.0,0.06245
2430.0,0.06256
2435.0,0.06245
2440.0,0.06237
2445.0,0.06239
2450.0,0.0625
2455.0,0.06253
2460.0,0.0626
2465.0,0.06273
2470.0,0.06287
2475.0,0.06291
2480.0,0.06309
2485.0,0.06324
2490.0,0.06334
2495.0,0.06333
2500.0,0.06345
2505.0,0.06336
2510.0,0.06352
2515.0,0.06352
2520.0,0.06361
2525.0,0.06354
2530.0,0.06378
2535.0,0.06365
2540.0,0.06384
2545.0,0.06424
2550.0,0.06397
2555.0,0.06426
2560.0,0.06463
2565.0,0.06461
2570.0,0.06467
2575.0,0.06494
2580.0,0.06511
2585.0,0.06492
2590.0,0.06554
2595.0,0.06606
2600.0,0.06657
