Database of Origin,University of Winnipeg Spectrophotometer Facility
Sample Description,16.12. Meteorites - Ureilites 16.12.3. Pierre Hudon (JSC) samples (b) Nicolet FTIR spectra from RELAB
Other Information,bmr1ph025
Date Added,2018-07-23 23:49:07.282206

Data ID,RLA_MET2_9_5        
Sample ID,GRO95575
Mineral Name,ureilite
Grain Size,<75 um
Viewing Geometry,30/30
Resolution,0.8-121 nm

Wavelength
2000.5,0.03484
2001.3,0.0358
2002.1,0.03595
2002.8,0.03551
2003.6,0.03583
2004.4,0.03594
2005.2,0.03566
2005.9,0.03503
2006.7,0.03521
2007.5,0.03548
2008.3,0.03547
2009.0,0.03547
2009.8,0.03561
2010.6,0.03578
2011.4,0.03588
2012.2,0.03621
2012.9,0.03619
2013.7,0.0359
2014.5,0.03583
2015.3,0.03615
2016.1,0.03649
2016.8,0.03622
2017.6,0.03549
2018.4,0.03547
2019.2,0.03582
2020.0,0.03632
2020.8,0.03684
2021.6,0.03673
2022.4,0.03667
2023.2,0.03683
2023.9,0.03678
2024.7,0.03685
2025.5,0.03719
2026.3,0.03701
2027.1,0.03634
2027.9,0.03613
2028.7,0.03667
2029.5,0.03694
2030.3,0.03692
2031.1,0.03704
2031.9,0.03742
2032.7,0.03748
2033.5,0.03727
2034.3,0.03773
2035.1,0.03821
2035.9,0.03779
2036.7,0.03739
2037.5,0.03774
2038.3,0.03798
2039.1,0.0377
2039.9,0.03788
2040.7,0.03804
2041.5,0.03784
2042.3,0.03776
2043.1,0.03792
2043.9,0.03802
2044.7,0.03815
2045.5,0.03809
2046.3,0.03825
2047.1,0.03831
2047.9,0.03848
2048.7,0.0387
2049.5,0.03885
2050.4,0.03849
2051.2,0.03822
2052.0,0.03873
2052.8,0.03871
2053.6,0.03832
2054.4,0.03862
2055.2,0.03854
2056.0,0.03814
2056.9,0.03796
2057.7,0.03815
2058.5,0.03837
2059.3,0.0386
2060.1,0.0392
2060.9,0.03936
2061.8,0.03903
2062.6,0.03894
2063.4,0.03882
2064.2,0.03872
2065.1,0.03845
2065.9,0.03851
2066.7,0.039
2067.5,0.0394
2068.3,0.03962
2069.2,0.03956
2070.0,0.03925
2070.8,0.03919
2071.6,0.03945
2072.5,0.03958
2073.3,0.03965
2074.1,0.03982
2075.0,0.03939
2075.8,0.0391
2076.6,0.03928
2077.5,0.03957
2078.3,0.03968
2079.1,0.03974
2080.0,0.04002
2080.8,0.03959
2081.6,0.03932
2082.5,0.03991
2083.3,0.04035
2084.1,0.04038
2085.0,0.04022
2085.8,0.04043
2086.7,0.04031
2087.5,0.04028
2088.3,0.04056
2089.2,0.04077
2090.0,0.04058
2090.9,0.04027
2091.7,0.04036
2092.6,0.04076
2093.4,0.04111
2094.2,0.04139
2095.1,0.04136
2095.9,0.04103
2096.8,0.04104
2097.6,0.04142
2098.5,0.04126
2099.3,0.04088
2100.2,0.04087
2101.0,0.04145
2101.9,0.04173
2102.7,0.04149
2103.6,0.04109
2104.4,0.04101
2105.3,0.04099
2106.1,0.04113
2107.0,0.04132
2107.9,0.04169
2108.7,0.04189
2109.6,0.04177
2110.4,0.04184
2111.3,0.04197
2112.2,0.04205
2113.0,0.04212
2113.9,0.04237
2114.7,0.04224
2115.6,0.04202
2116.5,0.04198
2117.3,0.04219
2118.2,0.04233
2119.1,0.04237
2119.9,0.04234
2120.8,0.04234
2121.7,0.04244
2122.5,0.04226
2123.4,0.04212
2124.3,0.04247
2125.1,0.04259
2126.0,0.04231
2126.9,0.04219
2127.8,0.04253
2128.6,0.04304
2129.5,0.04303
2130.4,0.04265
2131.3,0.04257
2132.1,0.0426
2133.0,0.04273
2133.9,0.04289
2134.8,0.04303
2135.6,0.04313
2136.5,0.04298
2137.4,0.04288
2138.3,0.04269
2139.2,0.04267
2140.1,0.04282
2140.9,0.04302
2141.8,0.04328
2142.7,0.04347
2143.6,0.04328
2144.5,0.04331
2145.4,0.04349
2146.3,0.04331
2147.1,0.04335
2148.0,0.04352
2148.9,0.04368
2149.8,0.04387
2150.7,0.04382
2151.6,0.04393
2152.5,0.044
2153.4,0.044
2154.3,0.0438
2155.2,0.04348
2156.1,0.04362
2157.0,0.04386
2157.9,0.04391
2158.8,0.04383
2159.7,0.04392
2160.6,0.04397
2161.5,0.04409
2162.4,0.04396
2163.3,0.04407
2164.2,0.04423
2165.1,0.04422
2166.0,0.0443
2166.9,0.04451
2167.8,0.04456
2168.7,0.04435
2169.6,0.04431
2170.5,0.04428
2171.4,0.04408
2172.3,0.04436
2173.3,0.04479
2174.2,0.04489
2175.1,0.0446
2176.0,0.04457
2176.9,0.04481
2177.8,0.04479
2178.7,0.04488
2179.6,0.04515
2180.6,0.0452
2181.5,0.04503
2182.4,0.04458
2183.3,0.04452
2184.2,0.04487
2185.1,0.045
2186.1,0.0452
2187.0,0.04509
2187.9,0.04496
2188.8,0.04497
2189.8,0.04518
2190.7,0.04516
2191.6,0.04521
2192.6,0.04547
2193.5,0.04546
2194.4,0.04546
2195.3,0.04557
2196.3,0.04578
2197.2,0.04597
2198.1,0.04576
2199.1,0.04528
2200.0,0.04529
2200.9,0.04573
2201.9,0.04583
2202.8,0.04572
2203.7,0.04578
2204.7,0.04601
2205.6,0.04607
2206.5,0.04618
2207.5,0.04607
2208.4,0.04624
2209.4,0.04639
2210.3,0.04628
2211.3,0.04644
2212.2,0.04645
2213.1,0.04615
2214.1,0.04611
2215.0,0.04622
2216.0,0.04622
2216.9,0.04627
2217.9,0.04637
2218.8,0.04673
2219.8,0.04696
2220.7,0.04673
2221.7,0.04658
2222.6,0.04654
2223.6,0.04653
2224.5,0.0466
2225.5,0.04678
2226.4,0.04699
2227.4,0.047
2228.4,0.04688
2229.3,0.04702
2230.3,0.04681
2231.2,0.04691
2232.2,0.04719
2233.1,0.04703
2234.1,0.04684
2235.1,0.04711
2236.0,0.04727
2237.0,0.04706
2238.0,0.04691
2238.9,0.04705
2239.9,0.04744
2240.9,0.04757
2241.8,0.04747
2242.8,0.0475
2243.8,0.0476
2244.8,0.04735
2245.7,0.04714
2246.7,0.04732
2247.7,0.04753
2248.6,0.04761
2249.6,0.0474
2250.6,0.04738
2251.6,0.0477
2252.6,0.04778
2253.5,0.04751
2254.5,0.04759
2255.5,0.04782
2256.5,0.04772
2257.5,0.04773
2258.4,0.04785
2259.4,0.04797
2260.4,0.04807
2261.4,0.04815
2262.4,0.04828
2263.4,0.04817
2264.4,0.04815
2265.4,0.04835
2266.3,0.04831
2267.3,0.04805
2268.3,0.04808
2269.3,0.0481
2270.3,0.04829
2271.3,0.0484
2272.3,0.04838
2273.3,0.04869
2274.3,0.04877
2275.3,0.04864
2276.3,0.04844
2277.3,0.04842
2278.3,0.04865
2279.3,0.04885
2280.3,0.0487
2281.3,0.04873
2282.3,0.04874
2283.3,0.04864
2284.3,0.04879
2285.3,0.049
2286.3,0.04893
2287.3,0.04885
2288.4,0.04886
2289.4,0.0489
2290.4,0.04916
2291.4,0.04927
2292.4,0.04909
2293.4,0.04911
2294.4,0.04915
2295.4,0.04928
2296.5,0.04947
2297.5,0.04947
2298.5,0.04945
2299.5,0.04941
2300.5,0.04968
2301.6,0.04985
2302.6,0.04983
2303.6,0.04974
2304.6,0.04946
2305.6,0.04937
2306.7,0.04962
2307.7,0.04982
2308.7,0.04985
2309.8,0.04979
2310.8,0.04988
2311.8,0.05019
2312.9,0.05019
2313.9,0.04986
2314.9,0.04971
2315.9,0.04983
2317.0,0.05014
2318.0,0.05005
2319.1,0.05004
2320.1,0.05021
2321.1,0.05013
2322.2,0.05003
2323.2,0.05007
2324.3,0.05032
2325.3,0.05046
2326.3,0.05034
2327.4,0.05029
2328.4,0.05026
2329.5,0.05037
2330.5,0.0505
2331.6,0.05049
2332.6,0.05044
2333.7,0.05029
2334.7,0.05021
2335.8,0.05033
2336.8,0.05065
2337.9,0.05088
2338.9,0.0508
2340.0,0.05087
2341.0,0.0506
2342.1,0.05028
2343.2,0.05053
2344.2,0.05076
2345.3,0.05083
2346.3,0.05082
2347.4,0.05084
2348.5,0.05094
2349.5,0.05093
2350.6,0.05102
2351.7,0.05104
2352.7,0.05104
2353.8,0.05112
2354.9,0.05105
2355.9,0.05097
2357.0,0.05108
2358.1,0.05119
2359.1,0.0512
2360.2,0.05117
2361.3,0.05132
2362.4,0.05142
2363.4,0.05154
2364.5,0.05152
2365.6,0.05134
2366.7,0.0514
2367.8,0.05154
2368.9,0.05162
2369.9,0.05164
2371.0,0.05158
2372.1,0.05165
2373.2,0.05156
2374.3,0.05159
2375.4,0.05161
2376.4,0.05163
2377.5,0.05167
2378.6,0.05173
2379.7,0.05168
2380.8,0.0518
2381.9,0.0519
2383.0,0.05187
2384.1,0.05178
2385.2,0.05176
2386.3,0.05188
2387.4,0.05202
2388.5,0.05206
2389.6,0.0522
2390.7,0.05232
2391.8,0.05227
2392.9,0.05237
2394.0,0.05243
2395.1,0.05219
2396.2,0.05216
2397.3,0.05221
2398.4,0.05224
2399.6,0.05234
2400.7,0.05244
2401.8,0.05231
2402.9,0.05217
2404.0,0.05229
2405.1,0.05262
2406.2,0.05278
2407.4,0.05278
2408.5,0.05262
2409.6,0.05251
2410.7,0.0524
2411.8,0.05252
2412.9,0.0526
2414.1,0.05264
2415.2,0.05274
2416.3,0.05279
2417.4,0.05284
2418.6,0.05274
2419.7,0.05281
2420.8,0.05282
2422.0,0.05294
2423.1,0.05301
2424.2,0.05302
2425.4,0.053
2426.5,0.053
2427.6,0.05313
2428.8,0.05324
2429.9,0.05327
2431.1,0.05327
2432.2,0.05335
2433.3,0.05342
2434.5,0.05324
2435.6,0.05314
2436.8,0.05335
2437.9,0.05346
2439.1,0.05334
2440.2,0.05328
2441.4,0.05329
2442.5,0.05336
2443.6,0.05343
2444.8,0.05346
2446.0,0.05337
2447.1,0.05339
2448.3,0.05364
2449.4,0.05379
2450.6,0.05376
2451.7,0.05365
2452.9,0.05354
2454.1,0.05361
2455.2,0.05377
2456.4,0.05388
2457.6,0.05384
2458.7,0.05378
2459.9,0.05394
2461.1,0.05393
2462.2,0.05383
2463.4,0.05389
2464.6,0.05387
2465.7,0.05399
2466.9,0.05431
2468.1,0.05448
2469.3,0.05431
2470.4,0.05407
2471.6,0.05409
2472.8,0.05427
2474.0,0.05433
2475.1,0.05437
2476.3,0.05428
2477.5,0.05418
2478.7,0.05425
2479.9,0.05443
2481.1,0.05448
2482.3,0.05452
2483.4,0.05464
2484.6,0.05473
2485.8,0.0547
2487.0,0.05466
2488.2,0.05463
2489.4,0.05449
2490.6,0.05446
2491.8,0.05463
2493.0,0.05469
2494.2,0.05464
2495.4,0.05457
2496.6,0.0547
2497.8,0.0549
2499.0,0.05483
2500.2,0.05485
2501.4,0.05495
2502.6,0.05501
2503.8,0.05512
2505.0,0.05514
2506.3,0.055
2507.5,0.05504
2508.7,0.05514
2509.9,0.05517
2511.1,0.05516
2512.3,0.05518
2513.5,0.05535
2514.8,0.05529
2516.0,0.05527
2517.2,0.05539
2518.4,0.05539
2519.6,0.05543
2520.9,0.05536
2522.1,0.05523
2523.3,0.05527
2524.6,0.05537
2525.8,0.05535
2527.0,0.05553
2528.3,0.05569
2529.5,0.05567
2530.7,0.05559
2531.9,0.05547
2533.2,0.05556
2534.4,0.05568
2535.7,0.05574
2536.9,0.05566
2538.1,0.05551
2539.4,0.0557
2540.6,0.05583
2541.9,0.05582
2543.1,0.05588
2544.4,0.05588
2545.6,0.05578
2546.9,0.0557
2548.1,0.05582
2549.4,0.05601
2550.6,0.05611
2551.9,0.05619
2553.1,0.05623
2554.4,0.05606
2555.7,0.05601
2556.9,0.05594
2558.2,0.05587
2559.4,0.05604
2560.7,0.05617
2562.0,0.05616
2563.2,0.05621
2564.5,0.0562
2565.8,0.05623
2567.1,0.05632
2568.3,0.05627
2569.6,0.05636
2570.9,0.05626
2572.1,0.05631
2573.4,0.05645
2574.7,0.0565
2576.0,0.0565
2577.3,0.05649
2578.5,0.05646
2579.8,0.05651
2581.1,0.0566
2582.4,0.05679
2583.7,0.05688
2585.0,0.05677
2586.3,0.05673
2587.5,0.05681
2588.8,0.05691
2590.1,0.05695
2591.4,0.05697
2592.7,0.05702
2594.0,0.05686
2595.3,0.05672
2596.6,0.05677
2597.9,0.05681
2599.2,0.0569
2600.5,0.05697
2601.8,0.05692
2603.1,0.05676
2604.4,0.05686
2605.8,0.05711
2607.1,0.05696
2608.4,0.05691
2609.7,0.05708
2611.0,0.05713
2612.3,0.05719
2613.6,0.05732
2614.9,0.05734
2616.3,0.05734
2617.6,0.05731
2618.9,0.05732
2620.2,0.05734
2621.6,0.05718
2622.9,0.05723
2624.2,0.05735
2625.5,0.05729
2626.9,0.05733
2628.2,0.05748
2629.5,0.05755
2630.9,0.05749
2632.2,0.05743
2633.5,0.05746
2634.9,0.05771
2636.2,0.05782
2637.6,0.05782
2638.9,0.05783
2640.2,0.05784
2641.6,0.05777
2642.9,0.05774
2644.3,0.05774
2645.6,0.05764
2647.0,0.05755
2648.3,0.05778
2649.7,0.05799
2651.0,0.05797
2652.4,0.05792
2653.8,0.05792
2655.1,0.0579
2656.5,0.05793
2657.8,0.05799
2659.2,0.05811
2660.6,0.05808
2661.9,0.0578
2663.3,0.05782
2664.7,0.05808
2666.0,0.05806
2667.4,0.05805
2668.8,0.05824
2670.1,0.05838
2671.5,0.0582
2672.9,0.05806
2674.3,0.05809
2675.7,0.05817
2677.0,0.05812
2678.4,0.05809
2679.8,0.05815
2681.2,0.05825
2682.6,0.05829
2684.0,0.05818
2685.4,0.05819
2686.8,0.0584
2688.1,0.05834
2689.5,0.05834
2690.9,0.05849
2692.3,0.05849
2693.7,0.05851
2695.1,0.05855
2696.5,0.05842
2697.9,0.05832
2699.3,0.05835
2700.8,0.05841
2702.1,0.05841
2703.6,0.05842
2705.0,0.05853
2706.4,0.05847
2707.8,0.05829
2709.2,0.0583
2710.6,0.05849
2712.1,0.05856
2713.5,0.05853
2714.9,0.05847
2716.3,0.05837
2717.7,0.05842
2719.2,0.05861
2720.6,0.05865
2722.0,0.05845
2723.4,0.05845
2724.9,0.05851
2726.3,0.05855
2727.7,0.05854
2729.2,0.05849
2730.6,0.05841
2732.1,0.05836
2733.5,0.05824
2734.9,0.05824
2736.4,0.05838
2737.8,0.05839
2739.3,0.05833
2740.7,0.05833
2742.2,0.05833
2743.6,0.05833
2745.1,0.05832
2746.5,0.05827
2748.0,0.0582
2749.4,0.05819
2750.9,0.05812
2752.4,0.05799
2753.8,0.05795
2755.3,0.05801
2756.7,0.05794
2758.2,0.05795
2759.7,0.05799
2761.1,0.05794
2762.6,0.05781
2764.1,0.05771
2765.6,0.05776
2767.0,0.05769
2768.5,0.05757
2770.0,0.05756
2771.5,0.05756
2773.0,0.05742
2774.4,0.05738
2775.9,0.05751
2777.4,0.0575
2778.9,0.05736
2780.4,0.05721
2781.9,0.05714
2783.4,0.0572
2784.9,0.0573
2786.4,0.05729
2787.9,0.05719
2789.4,0.05706
2790.9,0.05701
2792.4,0.05702
2793.9,0.05695
2795.4,0.05688
2796.9,0.05697
2798.4,0.05704
2799.9,0.05693
2801.4,0.05678
2802.9,0.05683
2804.4,0.05687
2806.0,0.05673
2807.5,0.05661
2809.0,0.05671
2810.5,0.05674
2812.1,0.05661
2813.6,0.05655
2815.1,0.05651
2816.6,0.05646
2818.2,0.05651
2819.7,0.05651
2821.2,0.0564
2822.8,0.0564
2824.3,0.0564
2825.9,0.05638
2827.4,0.05638
2828.9,0.05641
2830.5,0.05628
2832.0,0.05621
2833.6,0.05618
2835.1,0.05609
2836.7,0.05611
2838.2,0.05618
2839.8,0.0561
2841.3,0.05603
2842.9,0.05606
2844.4,0.05605
2846.0,0.0561
2847.6,0.05616
2849.1,0.05617
2850.7,0.05601
2852.3,0.05589
2853.8,0.0559
2855.4,0.0558
2857.0,0.05575
2858.6,0.05586
2860.1,0.05579
2861.7,0.05574
2863.3,0.05583
2864.9,0.05591
2866.5,0.05587
2868.1,0.0558
2869.6,0.05587
2871.2,0.0559
2872.8,0.05574
2874.4,0.05571
2876.0,0.05576
2877.6,0.05576
2879.2,0.05577
2880.8,0.05577
2882.4,0.05568
2884.0,0.05553
2885.6,0.05551
2887.2,0.05571
2888.8,0.05579
2890.4,0.05563
2892.0,0.05551
2893.6,0.05555
2895.3,0.05557
2896.9,0.0555
2898.5,0.05548
2900.1,0.0555
2901.8,0.05559
2903.4,0.05565
2905.0,0.05558
2906.6,0.05549
2908.3,0.05545
2909.9,0.0554
2911.5,0.05543
2913.2,0.0555
2914.8,0.05552
2916.4,0.05561
2918.1,0.05558
2919.7,0.05554
2921.4,0.05559
2923.0,0.05564
2924.7,0.05562
2926.3,0.0556
2928.0,0.05562
2929.6,0.05562
2931.3,0.05559
2932.9,0.05565
2934.6,0.05569
2936.3,0.05568
2937.9,0.05566
2939.6,0.05564
2941.3,0.05561
2942.9,0.05554
2944.6,0.05551
2946.3,0.05556
2947.9,0.0556
2949.6,0.05571
2951.3,0.05579
2953.0,0.05579
2954.7,0.0557
2956.3,0.05571
2958.0,0.05579
2959.7,0.05573
2961.4,0.05568
2963.1,0.05573
2964.8,0.05571
2966.5,0.05561
2968.2,0.05564
2969.9,0.05567
2971.6,0.05569
2973.3,0.05573
2975.0,0.05577
2976.7,0.0558
2978.4,0.05584
2980.1,0.05585
2981.9,0.05587
2983.6,0.0559
2985.3,0.05586
2987.0,0.05588
2988.7,0.05583
2990.4,0.05585
2992.2,0.0559
2993.9,0.05582
2995.6,0.05576
2997.4,0.05579
2999.1,0.05587
3000.8,0.05604
3002.6,0.05611
3004.3,0.05606
3006.1,0.05604
3007.8,0.05604
3009.5,0.05602
3011.3,0.05599
3013.0,0.056
3014.8,0.05602
3016.5,0.05611
3018.3,0.0562
3020.1,0.05622
3021.8,0.05617
3023.6,0.05617
3025.3,0.05618
3027.1,0.05617
3028.9,0.05621
3030.6,0.05611
3032.4,0.05605
3034.2,0.05608
3036.0,0.05611
3037.7,0.05617
3039.5,0.05619
3041.3,0.05619
3043.1,0.05622
3044.9,0.05624
3046.7,0.05623
3048.5,0.05624
3050.3,0.05623
3052.1,0.05619
3053.8,0.0562
3055.6,0.05621
3057.4,0.0562
3059.3,0.05622
3061.1,0.05624
3062.9,0.05622
3064.7,0.05616
3066.5,0.05616
3068.3,0.05618
3070.1,0.05627
3071.9,0.0563
3073.8,0.05629
3075.6,0.05625
3077.4,0.05622
3079.2,0.05623
3081.1,0.05626
3082.9,0.05622
3084.7,0.05618
3086.6,0.05626
3088.4,0.0563
3090.2,0.05626
3092.1,0.05631
3093.9,0.05637
3095.8,0.05635
3097.6,0.05631
3099.5,0.0563
3101.3,0.05636
3103.2,0.05645
3105.1,0.05648
3106.9,0.05648
3108.8,0.05652
3110.6,0.05652
3112.5,0.05646
3114.4,0.05645
3116.2,0.05642
3118.1,0.05642
3120.0,0.05649
3121.9,0.05656
3123.8,0.05655
3125.6,0.05655
3127.5,0.05657
3129.4,0.05663
3131.3,0.05674
3133.2,0.05678
3135.1,0.05676
3137.0,0.0567
3138.9,0.05667
3140.8,0.05673
3142.7,0.05686
3144.6,0.05693
3146.5,0.05688
3148.4,0.05687
3150.3,0.05694
3152.2,0.05701
3154.1,0.05705
3156.1,0.05708
3158.0,0.05704
3159.9,0.05711
3161.8,0.05713
3163.8,0.05711
3165.7,0.05718
3167.6,0.05723
3169.6,0.05718
3171.5,0.05717
3173.5,0.05728
3175.4,0.05739
3177.3,0.05752
3179.3,0.05757
3181.2,0.05758
3183.2,0.05761
3185.1,0.05761
3187.1,0.05772
3189.1,0.0577
3191.0,0.05771
3193.0,0.05786
3195.0,0.05794
3196.9,0.05794
3198.9,0.05805
3200.9,0.05817
3202.9,0.05817
3204.8,0.05812
3206.8,0.05816
3208.8,0.05826
3210.8,0.05827
3212.8,0.05828
3214.8,0.0584
3216.8,0.05854
3218.8,0.05858
3220.8,0.05858
3222.8,0.05864
3224.8,0.05869
3226.8,0.05868
3228.8,0.05869
3230.8,0.05881
3232.8,0.05892
3234.8,0.05894
3236.8,0.059
3238.9,0.05905
3240.9,0.05914
3242.9,0.05926
3244.9,0.05928
3247.0,0.05928
3249.0,0.05928
3251.1,0.05935
3253.1,0.05948
3255.1,0.05953
3257.2,0.05951
3259.2,0.05949
3261.3,0.05955
3263.3,0.05973
3265.4,0.05978
3267.4,0.05983
3269.5,0.05988
3271.6,0.05988
3273.6,0.05991
3275.7,0.05998
3277.8,0.06004
3279.8,0.06012
3281.9,0.06017
3284.0,0.06027
3286.1,0.06029
3288.2,0.0603
3290.2,0.06034
3292.3,0.06036
3294.4,0.0604
3296.5,0.0604
3298.6,0.06043
3300.7,0.0605
3302.8,0.06056
3304.9,0.06063
3307.0,0.06068
3309.1,0.0607
3311.3,0.06074
3313.4,0.06074
3315.5,0.06072
3317.6,0.06074
3319.7,0.0608
3321.9,0.06094
3324.0,0.06101
3326.1,0.06102
3328.3,0.06108
3330.4,0.06106
3332.5,0.06111
3334.7,0.06121
3336.8,0.06125
3339.0,0.06129
3341.1,0.06132
3343.3,0.06136
3345.4,0.06147
3347.6,0.06154
3349.8,0.06154
3351.9,0.06149
3354.1,0.06148
3356.3,0.06151
3358.4,0.06157
3360.6,0.06163
3362.8,0.06171
3365.0,0.06172
3367.2,0.06162
3369.4,0.06163
3371.5,0.06171
3373.7,0.06174
3375.9,0.06182
3378.1,0.06188
3380.3,0.06186
3382.5,0.06186
3384.7,0.06188
3386.9,0.06195
3389.2,0.06203
3391.4,0.06208
3393.6,0.06214
3395.8,0.06214
3398.1,0.06211
3400.3,0.06207
3402.5,0.06205
3404.7,0.06213
3407.0,0.06223
3409.2,0.06222
3411.5,0.06214
3413.7,0.06215
3416.0,0.06227
3418.2,0.06231
3420.5,0.06231
3422.7,0.06236
3425.0,0.06248
3427.3,0.0626
3429.5,0.06261
3431.8,0.06261
3434.1,0.06265
3436.3,0.06276
3438.6,0.0628
3440.9,0.06281
3443.2,0.06286
3445.5,0.06297
3447.8,0.06305
3450.1,0.06311
3452.4,0.06308
3454.6,0.06308
3456.9,0.06322
3459.3,0.06328
3461.6,0.06329
3463.9,0.06332
3466.2,0.0633
3468.5,0.06329
3470.8,0.06334
3473.2,0.06341
3475.5,0.06344
3477.8,0.06346
3480.1,0.06349
3482.5,0.06351
3484.8,0.06349
3487.2,0.06344
3489.5,0.06346
3491.9,0.06355
3494.2,0.06356
3496.6,0.06359
3498.9,0.06366
3501.3,0.0637
3503.7,0.06373
3506.0,0.06372
3508.4,0.06374
3510.8,0.06385
3513.2,0.0639
3515.5,0.06393
3517.9,0.06402
3520.3,0.0641
3522.7,0.0641
3525.1,0.06408
3527.5,0.06411
3529.9,0.06419
3532.3,0.06426
3534.7,0.06432
3537.1,0.06435
3539.5,0.06435
3541.9,0.0644
3544.4,0.06449
3546.8,0.06453
3549.2,0.06457
3551.7,0.06463
3554.1,0.06462
3556.5,0.06459
3559.0,0.06459
3561.4,0.06463
3563.9,0.06468
3566.3,0.0647
3568.8,0.06471
3571.2,0.06477
3573.7,0.06482
3576.1,0.06486
3578.6,0.06494
3581.1,0.06495
3583.6,0.06495
3586.0,0.06496
3588.5,0.065
3591.0,0.0651
3593.5,0.06515
3596.0,0.06515
3598.5,0.06511
3601.0,0.06513
3603.5,0.06516
3606.0,0.06521
3608.5,0.06528
3611.0,0.06534
3613.5,0.06534
3616.1,0.06531
3618.6,0.06534
3621.1,0.06543
3623.6,0.06551
3626.2,0.06555
3628.7,0.06559
3631.3,0.06559
3633.8,0.06555
3636.3,0.06557
3638.9,0.06561
3641.4,0.06562
3644.0,0.06558
3646.6,0.0656
3649.1,0.0657
3651.7,0.06577
3654.3,0.06578
3656.9,0.06573
3659.4,0.06577
3662.0,0.06588
3664.6,0.06591
3667.2,0.06589
3669.8,0.06589
3672.4,0.06595
3675.0,0.06597
3677.6,0.06596
3680.2,0.06601
3682.8,0.06615
3685.4,0.06623
3688.1,0.06618
3690.7,0.0662
3693.3,0.06623
3695.9,0.06623
3698.6,0.06622
3701.2,0.06624
3703.9,0.06627
3706.5,0.06629
3709.2,0.06628
3711.8,0.06635
3714.5,0.06638
3717.1,0.06638
3719.8,0.0664
3722.5,0.06642
3725.2,0.06649
3727.8,0.06659
3730.5,0.06665
3733.2,0.06664
3735.9,0.06662
3738.6,0.06664
3741.3,0.06665
3744.0,0.06666
3746.7,0.06668
3749.4,0.06669
3752.1,0.06673
3754.8,0.06677
3757.6,0.0668
3760.3,0.06684
3763.0,0.06687
3765.7,0.0669
3768.5,0.06688
3771.2,0.06692
3774.0,0.06694
3776.7,0.06696
3779.5,0.06699
3782.2,0.06704
3785.0,0.06706
3787.7,0.06706
3790.5,0.067
3793.3,0.06701
3796.1,0.06711
3798.8,0.06717
3801.6,0.06723
3804.4,0.06728
3807.2,0.06729
3810.0,0.06728
3812.8,0.06728
3815.6,0.06734
3818.4,0.06737
3821.2,0.06736
3824.1,0.06736
3826.9,0.06742
3829.7,0.06746
3832.5,0.06746
3835.4,0.06755
3838.2,0.06759
3841.1,0.06755
3843.9,0.06756
3846.8,0.06758
3849.6,0.06758
3852.5,0.06762
3855.3,0.06767
3858.2,0.06764
3861.1,0.06765
3863.9,0.06775
3866.8,0.06776
3869.7,0.06777
3872.6,0.0678
3875.5,0.06783
3878.4,0.06786
3881.3,0.06785
3884.2,0.06783
3887.1,0.06784
3890.0,0.06787
3893.0,0.06788
3895.9,0.06794
3898.8,0.06796
3901.7,0.06797
3904.7,0.06796
3907.6,0.06798
3910.6,0.06802
3913.5,0.06805
3916.5,0.0681
3919.4,0.0681
3922.4,0.0681
3925.4,0.06815
3928.4,0.06819
3931.3,0.06821
3934.3,0.06818
3937.3,0.06818
3940.3,0.06825
3943.3,0.06826
3946.3,0.06825
3949.3,0.06829
3952.3,0.06833
3955.3,0.06834
3958.3,0.06834
3961.4,0.06839
3964.4,0.06843
3967.4,0.06842
3970.5,0.06845
3973.5,0.06845
3976.6,0.06848
3979.6,0.06851
3982.6,0.06856
3985.7,0.06855
3988.8,0.06854
3991.9,0.06857
3994.9,0.06858
3998.0,0.06856
4001.1,0.06855
4004.2,0.06859
4007.3,0.06863
4010.4,0.06866
4013.5,0.06869
4016.6,0.06871
4019.7,0.06872
4022.8,0.06872
4025.9,0.0687
4029.1,0.06869
4032.2,0.06876
4035.3,0.0688
4038.5,0.06881
4041.6,0.06886
4044.8,0.06888
4047.9,0.06889
4051.1,0.06889
4054.3,0.06891
4057.4,0.06893
4060.6,0.06894
4063.8,0.06895
4067.0,0.06894
4070.2,0.06895
4073.4,0.06901
4076.6,0.06906
4079.8,0.06909
4083.0,0.06909
4086.2,0.06908
4089.4,0.0691
4092.7,0.06911
4095.9,0.06911
4099.1,0.06911
4102.4,0.06912
4105.6,0.06918
4108.9,0.06928
4112.1,0.06927
4115.4,0.06918
4118.7,0.06917
4122.0,0.06921
4125.2,0.06921
4128.5,0.06921
4131.8,0.06928
4135.1,0.06936
4138.4,0.06932
4141.7,0.06929
4145.0,0.06932
4148.3,0.06939
4151.6,0.06942
4155.0,0.06939
4158.3,0.0694
4161.6,0.06943
4165.0,0.0694
4168.3,0.06941
4171.7,0.06945
4175.0,0.06941
4178.4,0.0694
4181.8,0.06946
4185.2,0.06948
4188.5,0.06949
4191.9,0.06951
4195.3,0.06954
4198.7,0.06954
4202.1,0.0696
4205.5,0.06966
4208.9,0.06968
4212.4,0.06974
4215.8,0.0698
4219.2,0.06982
4222.6,0.06984
4226.1,0.0698
4229.5,0.06985
4233.0,0.06996
4236.5,0.06994
4239.9,0.06993
4243.4,0.06994
4246.9,0.06989
4250.3,0.06984
4253.8,0.06983
4257.3,0.06983
4260.8,0.06979
4264.3,0.06983
4267.8,0.06995
4271.3,0.07004
4274.9,0.07003
4278.4,0.07001
4281.9,0.06994
4285.5,0.06989
4289.0,0.06993
4292.6,0.06996
4296.1,0.06996
4299.7,0.06998
4303.3,0.06997
4306.8,0.06996
4310.4,0.06999
4314.0,0.07003
4317.6,0.06999
4321.2,0.06997
4324.8,0.07002
4328.4,0.07009
4332.0,0.07008
4335.6,0.07002
4339.3,0.07002
4342.9,0.07006
4346.5,0.07008
4350.2,0.07005
4353.8,0.07005
4357.5,0.07008
4361.1,0.07012
4364.8,0.07011
4368.5,0.07011
4372.2,0.0701
4375.9,0.07011
4379.6,0.07014
4383.3,0.0702
4387.0,0.07024
4390.7,0.07024
4394.4,0.07024
4398.1,0.07017
4401.9,0.07016
4405.6,0.0702
4409.4,0.07026
4413.1,0.07027
4416.9,0.07024
4420.6,0.07021
4424.4,0.07021
4428.2,0.07024
4432.0,0.07023
4435.8,0.07025
4439.6,0.0703
4443.4,0.07027
4447.2,0.07023
4451.0,0.07024
4454.8,0.07031
4458.6,0.07037
4462.5,0.07041
4466.3,0.07044
4470.2,0.07045
4474.0,0.07044
4477.9,0.07041
4481.8,0.07039
4485.6,0.0704
4489.5,0.07042
4493.4,0.07043
4497.3,0.07041
4501.2,0.07044
4505.1,0.07046
4509.0,0.07044
4513.0,0.07041
4516.9,0.07045
4520.9,0.07047
4524.8,0.0705
4528.7,0.07049
4532.7,0.07048
4536.7,0.07046
4540.6,0.07044
4544.6,0.07043
4548.6,0.07046
4552.6,0.07045
4556.6,0.07047
4560.6,0.07047
4564.6,0.07042
4568.6,0.07042
4572.7,0.07044
4576.7,0.07042
4580.8,0.07043
4584.8,0.07046
4588.9,0.07044
4592.9,0.07037
4597.0,0.07034
4601.1,0.07038
4605.2,0.0704
4609.3,0.07038
4613.4,0.07037
4617.5,0.07031
4621.6,0.0703
4625.7,0.0703
4629.8,0.07025
4634.0,0.07022
4638.1,0.07026
4642.3,0.07027
4646.4,0.07025
4650.6,0.07022
4654.8,0.0702
4659.0,0.07018
4663.1,0.07012
4667.3,0.07009
4671.5,0.07012
4675.8,0.0701
4680.0,0.07013
4684.2,0.07017
4688.4,0.07011
4692.7,0.07009
4696.9,0.07009
4701.2,0.07006
4705.5,0.07006
4709.7,0.07008
4714.0,0.07006
4718.3,0.07005
4722.6,0.07001
4726.9,0.06998
4731.2,0.07
4735.5,0.06999
4739.9,0.06995
4744.2,0.06992
4748.5,0.06991
4752.9,0.06991
4757.3,0.06991
4761.6,0.06989
4766.0,0.06987
4770.4,0.06984
4774.8,0.06982
4779.2,0.06982
4783.6,0.06981
4788.0,0.06976
4792.4,0.06971
4796.9,0.06969
4801.3,0.06965
4805.8,0.06958
4810.2,0.06956
4814.7,0.06957
4819.1,0.06952
4823.6,0.06948
4828.1,0.0695
4832.6,0.06946
4837.1,0.06939
4841.6,0.06935
4846.2,0.06936
4850.7,0.06931
4855.3,0.06929
4859.8,0.06924
4864.4,0.06917
4868.9,0.06913
4873.5,0.06904
4878.1,0.06899
4882.7,0.06893
4887.3,0.06881
4891.9,0.06875
4896.5,0.06875
4901.1,0.06871
4905.8,0.06862
4910.4,0.06852
4915.1,0.06844
4919.7,0.06835
4924.4,0.06831
4929.1,0.06831
4933.8,0.06827
4938.5,0.06824
4943.2,0.06822
4947.9,0.0682
4952.6,0.06819
4957.4,0.06821
4962.1,0.06822
4966.9,0.06823
4971.6,0.06826
4976.4,0.06827
4981.2,0.06824
4986.0,0.0683
4990.8,0.06835
4995.6,0.06834
5000.4,0.06832
5005.2,0.06829
5010.0,0.0683
5014.9,0.06831
5019.8,0.06825
5024.6,0.06821
5029.5,0.06825
5034.4,0.06823
5039.3,0.06818
5044.2,0.06818
5049.1,0.06816
5054.0,0.06809
5058.9,0.06804
5063.9,0.06803
5068.8,0.06799
5073.8,0.06793
5078.8,0.06789
5083.7,0.06792
5088.7,0.0679
5093.7,0.06783
5098.7,0.06775
5103.7,0.06767
5108.8,0.06765
5113.8,0.06762
5118.9,0.06755
5123.9,0.06754
5129.0,0.06751
5134.1,0.06746
5139.1,0.06746
5144.3,0.06744
5149.4,0.06736
5154.5,0.06729
5159.6,0.06729
5164.7,0.06727
5169.9,0.06724
5175.0,0.06723
5180.2,0.06722
5185.4,0.06722
5190.6,0.06721
5195.8,0.06719
5201.0,0.06721
5206.2,0.06727
5211.5,0.06731
5216.7,0.06731
5222.0,0.06736
5227.2,0.06742
5232.5,0.06749
5237.8,0.06751
5243.1,0.06754
5248.4,0.06762
5253.7,0.06764
5259.0,0.06768
5264.4,0.06772
5269.7,0.06779
5275.1,0.06786
5280.5,0.0679
5285.8,0.06793
5291.2,0.06798
5296.6,0.06802
5302.0,0.06807
5307.5,0.06806
5312.9,0.06809
5318.4,0.06812
5323.8,0.06815
5329.3,0.06817
5334.8,0.06822
5340.3,0.06822
5345.8,0.06825
5351.3,0.06825
5356.8,0.0682
5362.4,0.06815
5367.9,0.06812
5373.5,0.06812
5379.0,0.06811
5384.6,0.06805
5390.2,0.06799
5395.8,0.06796
5401.5,0.06792
5407.1,0.0679
5412.7,0.06786
5418.4,0.06779
5424.1,0.06775
5429.7,0.06769
5435.4,0.06768
5441.1,0.06766
5446.9,0.06762
5452.6,0.06767
5458.3,0.06767
5464.1,0.06765
5469.8,0.06767
5475.6,0.0677
5481.4,0.06771
5487.2,0.06772
5493.0,0.06776
5498.8,0.0678
5504.7,0.06782
5510.5,0.06782
5516.4,0.06781
5522.3,0.06778
5528.1,0.06776
5534.0,0.06778
5540.0,0.06774
5545.9,0.06768
5551.8,0.06759
5557.8,0.06744
5563.7,0.06721
5569.7,0.06697
5575.7,0.06682
5581.7,0.06661
5587.7,0.06636
5593.7,0.06614
5599.8,0.06593
5605.8,0.06573
5611.9,0.06567
5618.0,0.06563
5624.1,0.06555
5630.2,0.06552
5636.3,0.0656
5642.4,0.06567
5648.6,0.06568
5654.7,0.06579
5660.9,0.06594
5667.1,0.06603
5673.3,0.06616
5679.5,0.0663
5685.7,0.06648
5692.0,0.06663
5698.2,0.0667
5704.5,0.06686
5710.8,0.06705
5717.1,0.06715
5723.4,0.06723
5729.7,0.0673
5736.0,0.06737
5742.4,0.06745
5748.8,0.06748
5755.1,0.06748
5761.5,0.06757
5768.0,0.06752
5774.4,0.06739
5780.8,0.06734
5787.3,0.06727
5793.7,0.06716
5800.2,0.06711
5806.7,0.06706
5813.2,0.06702
5819.8,0.06697
5826.3,0.06687
5832.8,0.06678
5839.4,0.06667
5846.0,0.06659
5852.6,0.06654
5859.2,0.06649
5865.8,0.06642
5872.5,0.06637
5879.1,0.06636
5885.8,0.06625
5892.5,0.06616
5899.2,0.06601
5905.9,0.06589
5912.6,0.06586
5919.4,0.06574
5926.2,0.06559
5932.9,0.06558
5939.7,0.06543
5946.5,0.06518
5953.4,0.06502
5960.2,0.06486
5967.1,0.06468
5974.0,0.06449
5980.8,0.06434
5987.8,0.06418
5994.7,0.06403
6001.6,0.06399
6008.6,0.064
6015.5,0.06404
6022.5,0.06413
6029.5,0.06428
6036.5,0.06445
6043.6,0.06468
6050.6,0.06488
6057.7,0.06491
6064.8,0.06509
6071.9,0.0653
6079.0,0.06539
6086.1,0.06549
6093.3,0.06561
6100.5,0.06569
6107.6,0.06577
6114.9,0.06582
6122.1,0.0658
6129.3,0.06583
6136.5,0.06585
6143.8,0.06584
6151.1,0.06581
6158.4,0.0658
6165.7,0.06572
6173.1,0.06568
6180.4,0.06571
6187.8,0.06564
6195.2,0.06554
6202.6,0.06554
6210.0,0.06552
6217.5,0.06545
6225.0,0.06536
6232.4,0.06533
6239.9,0.0653
6247.5,0.06528
6255.0,0.06525
6262.5,0.06518
6270.1,0.06511
6277.7,0.06501
6285.3,0.06492
6292.9,0.06488
6300.6,0.06498
6308.3,0.06509
6315.9,0.06514
6323.6,0.06518
6331.4,0.06527
6339.1,0.06544
6346.9,0.06549
6354.6,0.06548
6362.4,0.06556
6370.3,0.06568
6378.1,0.06573
6385.9,0.06575
6393.8,0.06578
6401.7,0.06591
6409.6,0.06606
6417.6,0.06604
6425.5,0.06599
6433.5,0.06602
6441.5,0.06603
6449.5,0.06606
6457.5,0.06607
6465.6,0.06605
6473.6,0.06603
6481.7,0.06604
6489.8,0.06608
6498.0,0.06598
6506.1,0.06585
6514.3,0.06583
6522.5,0.06578
6530.7,0.06567
6538.9,0.06559
6547.2,0.06558
6555.5,0.06556
6563.8,0.06551
6572.1,0.06554
6580.4,0.06544
6588.8,0.06533
6597.2,0.06525
6605.6,0.06516
6614.0,0.06511
6622.5,0.06504
6630.9,0.06502
6639.4,0.06501
6647.9,0.0649
6656.5,0.06483
6665.0,0.06485
6673.6,0.06484
6682.2,0.06479
6690.8,0.06474
6699.5,0.06469
6708.1,0.06469
6716.8,0.06471
6725.5,0.06466
6734.3,0.0646
6743.0,0.06458
6751.8,0.06455
6760.6,0.06447
6769.4,0.06443
6778.3,0.06441
6787.1,0.06443
6796.0,0.06438
6805.0,0.06428
6813.9,0.06421
6822.9,0.06423
6831.9,0.06424
6840.9,0.06424
6849.9,0.06425
6859.0,0.06432
6868.0,0.0643
6877.2,0.06417
6886.3,0.06407
6895.5,0.06403
6904.6,0.06401
6913.8,0.06392
6923.1,0.06383
6932.3,0.06373
6941.6,0.06364
6950.9,0.0636
6960.2,0.06359
6969.6,0.06342
6979.0,0.06329
6988.4,0.06325
6997.8,0.06309
7007.3,0.06293
7016.8,0.06287
7026.3,0.06282
7035.8,0.06275
7045.4,0.0627
7054.9,0.06253
7064.5,0.06237
7074.2,0.06231
7083.9,0.06226
7093.5,0.06212
7103.3,0.06204
7113.0,0.06198
7122.8,0.06189
7132.6,0.06175
7142.4,0.0616
7152.2,0.06146
7162.1,0.0614
7172.0,0.06133
7182.0,0.0612
7191.9,0.06111
7201.9,0.06104
7211.9,0.06098
7222.0,0.06087
7232.0,0.06075
7242.1,0.0607
7252.3,0.06071
7262.4,0.06065
7272.6,0.06051
7282.8,0.06038
7293.1,0.06031
7303.3,0.06025
7313.6,0.06014
7324.0,0.06001
7334.3,0.05991
7344.7,0.05981
7355.1,0.05971
7365.6,0.05957
7376.1,0.05947
7386.6,0.05942
7397.1,0.05935
7407.7,0.05924
7418.3,0.05915
7428.9,0.05908
7439.6,0.05894
7450.3,0.05881
7461.0,0.05872
7471.7,0.05865
7482.5,0.05857
7493.3,0.05848
7504.2,0.05833
7515.0,0.05826
7525.9,0.05822
7536.9,0.05811
7547.9,0.05808
7558.9,0.05809
7569.9,0.05808
7581.0,0.05796
7592.0,0.05789
7603.2,0.05789
7614.4,0.05784
7625.5,0.0578
7636.8,0.05777
7648.0,0.0577
7659.3,0.05763
7670.7,0.05762
7682.0,0.05755
7693.4,0.05748
7704.9,0.05737
7716.3,0.05728
7727.8,0.05725
7739.4,0.05717
7750.9,0.05702
7762.5,0.0569
7774.2,0.05682
7785.8,0.05668
7797.5,0.05651
7809.3,0.05641
7821.1,0.05629
7832.9,0.05615
7844.7,0.05601
7856.6,0.05585
7868.5,0.05571
7880.5,0.05557
7892.5,0.05541
7904.5,0.05524
7916.6,0.05507
7928.7,0.05487
7940.8,0.05465
7953.0,0.05444
7965.2,0.05426
7977.5,0.05405
7989.8,0.05387
8002.1,0.05368
8014.5,0.05339
8026.9,0.05313
8039.3,0.05286
8051.8,0.05262
8064.3,0.05239
8076.9,0.05214
8089.5,0.05181
8102.1,0.05153
8114.8,0.05128
8127.5,0.05103
8140.3,0.05076
8153.1,0.05042
8165.9,0.05008
8178.8,0.04978
8191.7,0.04951
8204.7,0.0493
8217.7,0.04904
8230.7,0.04879
8243.8,0.04859
8257.0,0.0483
8270.1,0.04802
8283.3,0.0478
8296.6,0.04757
8309.9,0.04737
8323.2,0.04714
8336.6,0.04689
8350.0,0.04669
8363.5,0.04649
8377.0,0.0463
8390.5,0.04612
8404.2,0.0459
8417.8,0.04566
8431.5,0.04549
8445.2,0.04531
8459.0,0.04505
8472.8,0.04485
8486.7,0.0447
8500.6,0.04456
8514.5,0.04438
8528.5,0.04415
8542.6,0.04398
8556.7,0.04384
8570.8,0.04366
8585.0,0.0435
8599.3,0.04335
8613.5,0.04315
8627.9,0.04283
8642.3,0.0424
8656.7,0.04176
8671.2,0.04079
8685.7,0.03962
8700.3,0.03881
8714.9,0.03869
8729.6,0.03914
8744.3,0.03963
8759.0,0.0399
8773.9,0.03987
8788.7,0.0398
8803.7,0.03989
8818.6,0.03991
8833.7,0.03969
8848.7,0.03927
8863.8,0.03883
8879.0,0.03842
8894.3,0.03797
8909.5,0.03776
8924.9,0.03768
8940.3,0.03763
8955.7,0.03747
8971.2,0.0371
8986.8,0.03664
9002.3,0.03614
9018.0,0.03554
9033.7,0.03499
9049.5,0.0345
9065.3,0.03409
9081.2,0.03375
9097.1,0.03349
9113.1,0.03325
9129.1,0.03308
9145.2,0.03291
9161.4,0.0328
9177.6,0.0328
9193.9,0.03286
9210.2,0.03285
9226.6,0.03298
9243.0,0.03314
9259.5,0.03327
9276.1,0.03342
9292.7,0.03363
9309.4,0.03391
9326.2,0.03422
9343.0,0.03452
9359.8,0.0348
9376.8,0.03511
9393.7,0.03546
9410.8,0.03577
9427.9,0.03607
9445.1,0.03641
9462.3,0.03667
9479.6,0.03682
9497.0,0.03711
9514.4,0.03728
9531.9,0.03731
9549.4,0.0373
9567.1,0.03715
9584.7,0.03678
9602.5,0.03646
9620.3,0.03616
9638.2,0.03577
9656.1,0.03539
9674.2,0.03504
9692.2,0.03471
9710.4,0.03453
9728.6,0.03439
9746.9,0.03416
9765.2,0.03384
9783.7,0.03369
9802.2,0.03359
9820.7,0.03347
9839.4,0.03333
9858.1,0.03326
9876.8,0.03327
9895.7,0.03333
9914.6,0.03337
9933.6,0.03348
9952.7,0.03368
9971.8,0.03389
9991.0,0.03396
10010.3,0.03407
10029.7,0.03411
10049.1,0.03406
10068.6,0.03405
10088.2,0.03413
10107.9,0.03416
10127.6,0.03403
10147.4,0.03374
10167.3,0.03335
10187.3,0.03306
10207.4,0.03306
10227.5,0.03309
10247.7,0.03321
10268.0,0.03346
10288.4,0.03377
10308.8,0.034
10329.4,0.03422
10350.0,0.0343
10370.7,0.03436
10391.5,0.03456
10412.3,0.03505
10433.3,0.03568
10454.3,0.03631
10475.5,0.03694
10496.7,0.03764
10517.9,0.03819
10539.3,0.03867
10560.8,0.03895
10582.3,0.03904
10604.0,0.03909
10625.7,0.03921
10647.5,0.03919
10669.4,0.03912
10691.4,0.03898
10713.5,0.03881
10735.7,0.03862
10758.0,0.03834
10780.3,0.03805
10802.8,0.03777
10825.4,0.03742
10848.0,0.03708
10870.8,0.03676
10893.6,0.03642
10916.5,0.03608
10939.5,0.03591
10962.7,0.03584
10985.9,0.03579
11009.2,0.03572
11032.7,0.0357
11056.2,0.03568
11079.8,0.03566
11103.5,0.03577
11127.3,0.03602
11151.3,0.03627
11175.3,0.03659
11199.5,0.03696
11223.7,0.03733
11248.0,0.03769
11272.5,0.03799
11297.1,0.03816
11321.7,0.03842
11346.5,0.03882
11371.4,0.039
11396.4,0.03886
11421.5,0.03853
11446.7,0.03799
11472.0,0.03726
11497.5,0.03644
11523.0,0.03571
11548.7,0.03501
11574.4,0.03441
11600.3,0.03397
11626.3,0.03371
11652.5,0.03361
11678.7,0.03349
11705.1,0.03335
11731.6,0.03328
11758.2,0.03314
11784.9,0.03287
11811.7,0.03257
11838.7,0.03236
11865.8,0.0324
11893.0,0.03279
11920.3,0.03355
11947.8,0.03455
11975.4,0.03567
12003.1,0.03676
12031.0,0.03775
12059.0,0.03872
12087.1,0.03954
12115.3,0.04028
12143.7,0.04118
12172.2,0.04194
12200.8,0.04248
12229.6,0.04314
12258.5,0.04375
12287.6,0.04431
12316.8,0.04482
12346.1,0.04515
12375.5,0.0456
12405.2,0.04602
12434.9,0.04628
12464.8,0.04661
12494.8,0.04697
12525.0,0.04709
12555.3,0.04734
12585.8,0.04754
12616.4,0.0476
12647.2,0.04769
12678.1,0.04785
12709.2,0.04802
12740.4,0.04808
12771.8,0.04821
12803.3,0.04842
12835.0,0.04846
12866.9,0.04829
12898.9,0.04825
12931.1,0.04817
12963.4,0.04806
12995.9,0.04803
13028.5,0.0478
13061.3,0.04744
13094.3,0.04725
13127.5,0.04684
13160.8,0.04624
13194.3,0.04566
13228.0,0.04505
13261.8,0.04433
13295.8,0.04369
13330.0,0.04301
13364.3,0.04212
13398.9,0.04111
13433.6,0.04019
13468.5,0.03915
13503.5,0.03788
13538.8,0.03663
13574.2,0.03573
13609.9,0.03522
13645.7,0.0349
13681.7,0.03479
13717.9,0.03475
13754.3,0.03452
13790.8,0.03423
13827.6,0.03411
13864.6,0.03433
13901.8,0.03485
13939.1,0.0353
13976.7,0.03551
14014.5,0.03567
14052.5,0.03591
14090.7,0.03581
14129.0,0.03537
14167.7,0.03508
14206.5,0.03484
14245.5,0.03447
14284.7,0.03388
14324.2,0.03319
14363.9,0.03252
14403.8,0.0318
14443.9,0.03112
14484.2,0.03039
14524.8,0.02968
14565.6,0.02918
14606.7,0.0285
14647.9,0.02802
14689.4,0.02749
14731.2,0.02718
14773.1,0.02717
14815.3,0.02713
14857.8,0.02703
14900.5,0.02716
14943.4,0.02726
14986.6,0.02714
15030.0,0.02668
15073.7,0.02642
15117.7,0.02609
15161.9,0.02561
15206.3,0.0254
15251.1,0.02506
15296.1,0.02437
15341.3,0.02422
15386.8,0.02428
15432.6,0.0242
15478.7,0.02407
15525.0,0.02434
15571.7,0.0248
15618.6,0.02517
15665.8,0.02513
15713.2,0.02515
15761.0,0.02524
15809.0,0.02549
15857.4,0.02542
15906.0,0.02553
15955.0,0.02578
16004.2,0.02603
16053.8,0.0262
16103.6,0.02664
16153.8,0.02711
16204.3,0.02743
16255.1,0.02737
16306.2,0.02791
16357.6,0.02872
16409.4,0.02902
16461.5,0.02911
16513.9,0.02935
16566.7,0.02952
16619.8,0.02986
16673.2,0.02993
16727.0,0.02996
16781.1,0.03011
16835.6,0.03012
16890.5,0.03003
16945.7,0.0298
17001.2,0.02972
17057.2,0.02982
17113.4,0.02957
17170.1,0.02987
17227.2,0.02987
17284.6,0.02951
17342.4,0.02941
17400.6,0.02942
17459.2,0.02986
17518.2,0.03041
17577.5,0.03033
17637.3,0.0305
17697.5,0.03032
17758.1,0.03065
17819.2,0.03136
17880.6,0.03154
17942.5,0.03124
18004.8,0.0316
18067.5,0.0321
18130.7,0.03252
18194.3,0.03227
18258.4,0.03188
18322.9,0.03229
18387.9,0.03314
18453.3,0.03376
18519.2,0.03406
18585.6,0.03449
18652.4,0.03504
18719.8,0.03569
18787.6,0.0368
18855.9,0.03717
18924.8,0.03747
18994.1,0.03809
19063.9,0.03881
19134.3,0.03885
19205.1,0.03849
19276.5,0.03841
19348.4,0.03836
19420.9,0.03797
19493.9,0.03774
19567.5,0.0379
19641.6,0.03816
19716.3,0.03852
19791.5,0.03887
19867.4,0.03859
19943.8,0.038
20020.8,0.0376
20098.4,0.03675
20176.6,0.03545
20255.4,0.03505
20334.8,0.03369
20414.9,0.0318
20495.6,0.03121
20576.9,0.0315
20658.9,0.0312
20741.5,0.03087
20824.8,0.0308
20908.8,0.03108
20993.4,0.03148
21078.8,0.03157
21164.8,0.03158
21251.6,0.03169
21339.0,0.03207
21427.2,0.03192
21516.1,0.03139
21605.8,0.03125
21696.2,0.03036
21787.3,0.03059
21879.3,0.03093
21972.0,0.03108
22065.5,0.03175
22159.8,0.03183
22254.9,0.03238
22350.8,0.03307
22447.5,0.03371
22545.1,0.03452
22643.6,0.03515
22742.9,0.03634
22843.1,0.03676
22944.2,0.03758
23046.2,0.03954
23149.0,0.04098
23252.8,0.04112
23357.6,0.04205
23463.3,0.04395
23569.9,0.0449
23677.6,0.04642
23786.2,0.04689
23895.8,0.04791
24006.4,0.0504
24118.1,0.05004
24230.8,0.04752
24344.5,0.04753
24459.4,0.04734
24575.3,0.04771
24692.3,0.05013
24810.4,0.05153
24929.7,0.05344
25050.2,0.05146
