Database of Origin,University of Winnipeg Spectrophotometer Facility
Sample Description,Carbonaceous chondrites - RELAB archive 2. CM chondrites
Date Added,2018-07-23 23:44:49.979361

Data ID,RLA_MET_33_29       
Sample ID,MET01070
Mineral Name,CM Chondrite
Grain Size,<75 microns
Viewing Geometry,30/0
Material Class,CM2.0/2.1

Wavelength
305.0,0.03412
310.0,0.0339
315.0,0.0343
320.0,0.03453
325.0,0.03521
330.0,0.03623
335.0,0.03691
340.0,0.03772
345.0,0.03847
350.0,0.03894
355.0,0.03935
360.0,0.04017
365.0,0.04071
370.0,0.04143
375.0,0.0421
380.0,0.04246
385.0,0.04301
390.0,0.04381
395.0,0.04473
400.0,0.04459
405.0,0.04483
410.0,0.04534
415.0,0.04559
420.0,0.04609
425.0,0.04641
430.0,0.04692
435.0,0.04728
440.0,0.0476
445.0,0.04782
450.0,0.04808
455.0,0.04824
460.0,0.04839
465.0,0.04871
470.0,0.04895
475.0,0.04934
480.0,0.04962
485.0,0.04985
490.0,0.05001
495.0,0.05015
500.0,0.05031
505.0,0.05051
510.0,0.05068
515.0,0.05076
520.0,0.05082
525.0,0.05087
530.0,0.05096
535.0,0.05096
540.0,0.05101
545.0,0.05106
550.0,0.05098
555.0,0.05098
560.0,0.05089
565.0,0.05083
570.0,0.05073
575.0,0.05066
580.0,0.05055
585.0,0.05047
590.0,0.05031
595.0,0.05021
600.0,0.05006
605.0,0.05002
610.0,0.04991
615.0,0.04985
620.0,0.04968
625.0,0.04961
630.0,0.04948
635.0,0.04943
640.0,0.04927
645.0,0.04919
650.0,0.04902
655.0,0.04892
660.0,0.04881
665.0,0.04866
670.0,0.04859
675.0,0.04839
680.0,0.04829
685.0,0.04814
690.0,0.04805
695.0,0.048
700.0,0.04792
705.0,0.04782
710.0,0.04781
715.0,0.04779
720.0,0.04772
725.0,0.04757
730.0,0.04756
735.0,0.04762
740.0,0.04758
745.0,0.04763
750.0,0.04762
755.0,0.04768
760.0,0.04773
765.0,0.04778
770.0,0.04792
775.0,0.04789
780.0,0.04799
785.0,0.04806
790.0,0.04818
795.0,0.04839
800.0,0.04856
805.0,0.04857
810.0,0.04863
815.0,0.04863
820.0,0.04871
825.0,0.04872
830.0,0.04873
835.0,0.04869
840.0,0.04869
845.0,0.04866
850.0,0.04867
855.0,0.04853
860.0,0.04851
865.0,0.04842
870.0,0.04835
875.0,0.04839
880.0,0.04841
885.0,0.04829
890.0,0.04823
895.0,0.04817
900.0,0.04806
905.0,0.04805
910.0,0.04803
915.0,0.04807
920.0,0.04806
925.0,0.04802
930.0,0.04799
935.0,0.04801
940.0,0.04799
945.0,0.04798
950.0,0.04805
955.0,0.04802
960.0,0.04805
965.0,0.04808
970.0,0.04813
975.0,0.04807
980.0,0.04808
985.0,0.0481
990.0,0.04811
995.0,0.04807
1000.0,0.04813
1005.0,0.04818
1010.0,0.04819
1015.0,0.04817
1020.0,0.04819
1025.0,0.0482
1030.0,0.0482
1035.0,0.04815
1040.0,0.04817
1045.0,0.0482
1050.0,0.04816
1055.0,0.04812
1060.0,0.0481
1065.0,0.04802
1070.0,0.04793
1075.0,0.04787
1080.0,0.04781
1085.0,0.04776
1090.0,0.04777
1095.0,0.04778
1100.0,0.04778
1105.0,0.04776
1110.0,0.04776
1115.0,0.04776
1120.0,0.04772
1125.0,0.04768
1130.0,0.04766
1135.0,0.04763
1140.0,0.04766
1145.0,0.04765
1150.0,0.0477
1155.0,0.04773
1160.0,0.04776
1165.0,0.04773
1170.0,0.04777
1175.0,0.04779
1180.0,0.04781
1185.0,0.04783
1190.0,0.04785
1195.0,0.04785
1200.0,0.04792
1205.0,0.04801
1210.0,0.04805
1215.0,0.04812
1220.0,0.04814
1225.0,0.04808
1230.0,0.048
1235.0,0.04795
1240.0,0.04787
1245.0,0.04785
1250.0,0.04784
1255.0,0.04789
1260.0,0.04791
1265.0,0.04794
1270.0,0.04798
1275.0,0.04799
1280.0,0.04795
1285.0,0.048
1290.0,0.04807
1295.0,0.04806
1300.0,0.0481
1305.0,0.04813
1310.0,0.04815
1315.0,0.04816
1320.0,0.04824
1325.0,0.04825
1330.0,0.04828
1335.0,0.0483
1340.0,0.0483
1345.0,0.04822
1350.0,0.04817
1355.0,0.04822
1360.0,0.04826
1365.0,0.04834
1370.0,0.04838
1375.0,0.0485
1380.0,0.0485
1385.0,0.04848
1390.0,0.04845
1395.0,0.04845
1400.0,0.04841
1405.0,0.04838
1410.0,0.04844
1415.0,0.04849
1420.0,0.04857
1425.0,0.04861
1430.0,0.04866
1435.0,0.04868
1440.0,0.04867
1445.0,0.04867
1450.0,0.04869
1455.0,0.04871
1460.0,0.04871
1465.0,0.04874
1470.0,0.04875
1475.0,0.04874
1480.0,0.04875
1485.0,0.04873
1490.0,0.04872
1495.0,0.04875
1500.0,0.04878
1505.0,0.04878
1510.0,0.04881
1515.0,0.04882
1520.0,0.0488
1525.0,0.04876
1530.0,0.04873
1535.0,0.04875
1540.0,0.04873
1545.0,0.04871
1550.0,0.04867
1555.0,0.04867
1560.0,0.0486
1565.0,0.04856
1570.0,0.04854
1575.0,0.04855
1580.0,0.04855
1585.0,0.04857
1590.0,0.04859
1595.0,0.04859
1600.0,0.04864
1605.0,0.04864
1610.0,0.04863
1615.0,0.04867
1620.0,0.04866
1625.0,0.04862
1630.0,0.04856
1635.0,0.04863
1640.0,0.04867
1645.0,0.04868
1650.0,0.04869
1655.0,0.04875
1660.0,0.04872
1665.0,0.0487
1670.0,0.04879
1675.0,0.04886
1680.0,0.04885
1685.0,0.04884
1690.0,0.04879
1695.0,0.04874
1700.0,0.04874
1705.0,0.04871
1710.0,0.04868
1715.0,0.04861
1720.0,0.04858
1725.0,0.04861
1730.0,0.04865
1735.0,0.04866
1740.0,0.04874
1745.0,0.04874
1750.0,0.04871
1755.0,0.04871
1760.0,0.04868
1765.0,0.0486
1770.0,0.04862
1775.0,0.04862
1780.0,0.04865
1785.0,0.04868
1790.0,0.04872
1795.0,0.04869
1800.0,0.04866
1805.0,0.04867
1810.0,0.0486
1815.0,0.04863
1820.0,0.04876
1825.0,0.04889
1830.0,0.0489
1835.0,0.04895
1840.0,0.04884
1845.0,0.04874
1850.0,0.04873
1855.0,0.04876
1860.0,0.04869
1865.0,0.0487
1870.0,0.04866
1875.0,0.04854
1880.0,0.04856
1885.0,0.04854
1890.0,0.04856
1895.0,0.04852
1900.0,0.04858
1905.0,0.04852
1910.0,0.04846
1915.0,0.04847
1920.0,0.04847
1925.0,0.0483
1930.0,0.04818
1935.0,0.04826
1940.0,0.0483
1945.0,0.04828
1950.0,0.04832
1955.0,0.04835
1960.0,0.04831
1965.0,0.04812
1970.0,0.04805
1975.0,0.04804
1980.0,0.04802
1985.0,0.04791
1990.0,0.04801
1995.0,0.04798
2000.0,0.04803
2005.0,0.04804
2010.0,0.04813
2015.0,0.04813
2020.0,0.0482
2025.0,0.04812
2030.0,0.04809
2035.0,0.04809
2040.0,0.04805
2045.0,0.04806
2050.0,0.04806
2055.0,0.04808
2060.0,0.04807
2065.0,0.04807
2070.0,0.04804
2075.0,0.04804
2080.0,0.04798
2085.0,0.04794
2090.0,0.04789
2095.0,0.04789
2100.0,0.04785
2105.0,0.04784
2110.0,0.04784
2115.0,0.04786
2120.0,0.04786
2125.0,0.04784
2130.0,0.04788
2135.0,0.04784
2140.0,0.04781
2145.0,0.04779
2150.0,0.04783
2155.0,0.04778
2160.0,0.0478
2165.0,0.04784
2170.0,0.04784
2175.0,0.04785
2180.0,0.04791
2185.0,0.04795
2190.0,0.04797
2195.0,0.04798
2200.0,0.04798
2205.0,0.048
2210.0,0.04798
2215.0,0.04791
2220.0,0.04798
2225.0,0.048
2230.0,0.04798
2235.0,0.048
2240.0,0.04806
2245.0,0.048
2250.0,0.04793
2255.0,0.04789
2260.0,0.04778
2265.0,0.04776
2270.0,0.0477
2275.0,0.04767
2280.0,0.04762
2285.0,0.04767
2290.0,0.04758
2295.0,0.04756
2300.0,0.04749
2305.0,0.04745
2310.0,0.04736
2315.0,0.04729
2320.0,0.04723
2325.0,0.04718
2330.0,0.04711
2335.0,0.04707
2340.0,0.04705
2345.0,0.04705
2350.0,0.04708
2355.0,0.04712
2360.0,0.04714
2365.0,0.04719
2370.0,0.04714
2375.0,0.04714
2380.0,0.04709
2385.0,0.04708
2390.0,0.04705
2395.0,0.04704
2400.0,0.04701
2405.0,0.04703
2410.0,0.04698
2415.0,0.04696
2420.0,0.04689
2425.0,0.04686
2430.0,0.04676
2435.0,0.04672
2440.0,0.04666
2445.0,0.04665
2450.0,0.04665
2455.0,0.04663
2460.0,0.04657
2465.0,0.04651
2470.0,0.04647
2475.0,0.04642
2480.0,0.04642
2485.0,0.04632
2490.0,0.04626
2495.0,0.04612
2500.0,0.0461
2505.0,0.04597
2510.0,0.04599
2515.0,0.04589
2520.0,0.04578
2525.0,0.04562
2530.0,0.0456
2535.0,0.04539
2540.0,0.04535
2545.0,0.04554
2550.0,0.04512
2555.0,0.04516
2560.0,0.04529
2565.0,0.04525
2570.0,0.04517
2575.0,0.04528
2580.0,0.04538
2585.0,0.04486
2590.0,0.04524
2595.0,0.04545
2600.0,0.04567
