Database of Origin,University of Winnipeg Spectrophotometer Facility
Sample Description,Carbonaceous chondrites - RELAB archive 8. Lab-heated carbonaceous chondrites
Other Information,Heated Ivuna 300C ncmp18A
Date Added,2018-07-23 23:45:04.397503

Data ID,RLA_MET_40_2        
Sample ID,Ivuna
Mineral Name,Ivuna
Viewing Geometry,30/0/ 30
Resolution,5/ 0.6-129 nm
Material Class,CI1

Wavelength
305.0,0.018289
310.0,0.019228
315.0,0.019376
320.0,0.019738
325.0,0.01973
330.0,0.020038
335.0,0.020127
340.0,0.019905
345.0,0.02004
350.0,0.020012
355.0,0.019996
360.0,0.020086
365.0,0.02001
370.0,0.020225
375.0,0.020276
380.0,0.020506
385.0,0.020557
390.0,0.02074
395.0,0.020669
400.0,0.020636
405.0,0.021089
410.0,0.021063
415.0,0.021297
420.0,0.021519
425.0,0.021605
430.0,0.0217
435.0,0.021759
440.0,0.021941
445.0,0.021876
450.0,0.021927
455.0,0.021889
460.0,0.021955
465.0,0.022101
470.0,0.022127
475.0,0.0222
480.0,0.022206
485.0,0.022236
490.0,0.022282
495.0,0.022317
500.0,0.022328
505.0,0.022513
510.0,0.022496
515.0,0.022555
520.0,0.022701
525.0,0.022688
530.0,0.022742
535.0,0.02289
540.0,0.022932
545.0,0.023035
550.0,0.023083
555.0,0.023158
560.0,0.023204
565.0,0.023256
570.0,0.023283
575.0,0.023308
580.0,0.023374
585.0,0.023448
590.0,0.023447
595.0,0.023422
600.0,0.023449
605.0,0.023513
610.0,0.02357
615.0,0.023598
620.0,0.023635
625.0,0.023719
630.0,0.023766
635.0,0.023742
640.0,0.023762
645.0,0.023729
650.0,0.023711
655.0,0.023732
660.0,0.023754
665.0,0.023691
670.0,0.023656
675.0,0.02368
680.0,0.023614
685.0,0.02367
690.0,0.023607
695.0,0.023638
700.0,0.023578
705.0,0.023581
710.0,0.023582
715.0,0.023542
720.0,0.023567
725.0,0.023595
730.0,0.023577
735.0,0.023607
740.0,0.023655
745.0,0.023596
750.0,0.023656
755.0,0.023505
760.0,0.02342
765.0,0.023404
770.0,0.023388
775.0,0.023357
780.0,0.023404
785.0,0.0234
790.0,0.023462
795.0,0.023419
800.0,0.023405
805.0,0.023265
810.0,0.02318
815.0,0.023231
820.0,0.023349
825.0,0.023249
830.0,0.023371
835.0,0.023202
840.0,0.023371
845.0,0.023276
850.0,0.023227
855.0,0.023219
860.0,0.023036
865.0,0.023054
870.0,0.023202
875.0,0.023067
880.0,0.023481
885.0,0.023318
890.0,0.023361
895.0,0.023549
900.0,0.023381
905.0,0.023222
910.0,0.023314
915.0,0.023255
920.0,0.023373
925.0,0.023357
930.0,0.023447
935.0,0.023467
940.0,0.023406
945.0,0.02338
950.0,0.023348
955.0,0.023324
960.0,0.023251
965.0,0.023216
970.0,0.023269
975.0,0.023122
980.0,0.02317
985.0,0.023267
990.0,0.023113
995.0,0.023094
1000.0,0.023081
1005.0,0.02303
1010.0,0.023053
1015.0,0.023086
1020.0,0.023039
1025.0,0.023073
1030.0,0.023007
1035.0,0.023011
1040.0,0.022893
1045.0,0.022944
1050.0,0.023013
1055.0,0.022965
1060.0,0.022837
1065.0,0.0229
1070.0,0.022784
1075.0,0.02274
1080.0,0.022671
1085.0,0.022668
1090.0,0.022688
1095.0,0.022671
1100.0,0.022698
1105.0,0.022653
1110.0,0.022666
1115.0,0.022686
1120.0,0.022678
1125.0,0.022768
1130.0,0.022639
1135.0,0.022755
1140.0,0.022749
1145.0,0.0227
1150.0,0.022695
1155.0,0.022692
1160.0,0.02261
1165.0,0.02265
1170.0,0.022733
1175.0,0.022706
1180.0,0.022728
1185.0,0.022622
1190.0,0.022715
1195.0,0.022798
1200.0,0.022806
1205.0,0.022814
1210.0,0.022915
1215.0,0.022883
1220.0,0.022865
1225.0,0.022829
1230.0,0.022695
1235.0,0.022711
1240.0,0.022675
1245.0,0.022587
1250.0,0.022607
1255.0,0.022632
1260.0,0.022609
1265.0,0.022574
1270.0,0.022582
1275.0,0.022509
1280.0,0.02256
1285.0,0.022485
1290.0,0.02252
1295.0,0.022502
1300.0,0.022515
1305.0,0.022536
1310.0,0.022478
1315.0,0.022557
1320.0,0.022638
1325.0,0.022497
1330.0,0.022512
1335.0,0.022554
1340.0,0.022515
1345.0,0.022538
1350.0,0.022509
1355.0,0.022442
1360.0,0.022583
1365.0,0.022436
1370.0,0.022406
1375.0,0.022459
1380.0,0.022487
1385.0,0.022468
1390.0,0.022393
1395.0,0.022456
1400.0,0.022518
1405.0,0.022449
1410.0,0.022452
1415.0,0.022476
1420.0,0.022471
1425.0,0.022492
1430.0,0.022382
1435.0,0.022434
1440.0,0.022458
1445.0,0.022476
1450.0,0.02233
1455.0,0.022397
1460.0,0.022364
1465.0,0.022401
1470.0,0.022443
1475.0,0.022477
1480.0,0.022485
1485.0,0.022462
1490.0,0.022313
1495.0,0.022425
1500.0,0.022417
1505.0,0.022462
1510.0,0.02244
1515.0,0.022434
1520.0,0.022483
1525.0,0.022389
1530.0,0.022427
1535.0,0.022485
1540.0,0.022445
1545.0,0.022335
1550.0,0.02227
1555.0,0.022136
1560.0,0.02215
1565.0,0.022208
1570.0,0.022138
1575.0,0.022122
1580.0,0.022236
1585.0,0.022162
1590.0,0.022293
1595.0,0.02226
1600.0,0.022305
1605.0,0.022298
1610.0,0.022228
1615.0,0.022239
1620.0,0.022317
1625.0,0.022263
1630.0,0.022288
1635.0,0.022325
1640.0,0.022193
1645.0,0.022239
1650.0,0.02228
1655.0,0.022161
1660.0,0.022224
1665.0,0.022224
1670.0,0.022177
1675.0,0.022143
1680.0,0.022212
1685.0,0.022163
1690.0,0.02229
1695.0,0.02211
1700.0,0.022211
1705.0,0.022156
1710.0,0.022284
1715.0,0.022266
1720.0,0.022192
1725.0,0.02212
1730.0,0.022211
1735.0,0.022209
1740.0,0.022203
1745.0,0.022167
1750.0,0.022186
1755.0,0.022094
1760.0,0.02206
1765.0,0.022082
1770.0,0.022151
1775.0,0.022046
1780.0,0.022122
1785.0,0.022046
1790.0,0.022121
1795.0,0.022078
1800.0,0.022139
1805.0,0.022075
1810.0,0.022045
1815.0,0.022161
1820.0,0.022105
1825.0,0.022163
1830.0,0.022133
1835.0,0.022156
1840.0,0.022004
1845.0,0.022154
1850.0,0.022107
1855.0,0.022021
1860.0,0.022032
1865.0,0.022136
1870.0,0.022085
1875.0,0.022051
1880.0,0.02209
1885.0,0.022038
1890.0,0.022079
1895.0,0.021999
1900.0,0.021953
1905.0,0.022013
1910.0,0.021907
1915.0,0.021911
1920.0,0.022077
1925.0,0.021943
1930.0,0.021977
1935.0,0.021849
1940.0,0.021901
1945.0,0.021917
1950.0,0.02193
1955.0,0.021933
1960.0,0.021976
1965.0,0.021921
1970.0,0.021881
1975.0,0.021949
1980.0,0.021837
1985.0,0.021914
1990.0,0.021862
1995.0,0.021866
2000.0,0.021951
2005.0,0.021849
2010.0,0.021969
2015.0,0.021919
2020.0,0.021942
2025.0,0.021898
2030.0,0.021942
2035.0,0.021944
2040.0,0.021893
2045.0,0.02188
2050.0,0.021855
2055.0,0.02187
2060.0,0.021849
2065.0,0.02187
2070.0,0.021823
2075.0,0.021864
2080.0,0.021821
2085.0,0.021878
2090.0,0.021879
2095.0,0.021898
2100.0,0.021906
2105.0,0.02182
2110.0,0.021861
2115.0,0.021796
2120.0,0.021742
2125.0,0.021736
2130.0,0.021678
2135.0,0.021762
2140.0,0.021812
2145.0,0.021625
2150.0,0.021667
2155.0,0.021692
2160.0,0.021628
2165.0,0.021729
2170.0,0.02156
2175.0,0.021639
2180.0,0.021674
2185.0,0.021677
2190.0,0.021695
2195.0,0.021694
2200.0,0.021761
2205.0,0.021785
2210.0,0.02183
2215.0,0.021714
2220.0,0.021835
2225.0,0.021828
2230.0,0.021777
2235.0,0.021742
2240.0,0.021739
2245.0,0.02178
2250.0,0.021721
2255.0,0.021666
2260.0,0.021808
2265.0,0.021769
2270.0,0.02168
2275.0,0.021673
2280.0,0.021702
2285.0,0.021619
2290.0,0.021628
2295.0,0.021684
2300.0,0.021751
2305.0,0.021557
2310.0,0.021621
2315.0,0.021611
2320.0,0.021569
2325.0,0.021599
2330.0,0.021553
2335.0,0.02146
2340.0,0.021583
2345.0,0.021358
2350.0,0.021272
2355.0,0.02135
2360.0,0.021336
2365.0,0.021436
2370.0,0.021421
2375.0,0.021458
2380.0,0.021415
2385.0,0.021409
2390.0,0.021384
2395.0,0.021443
2400.0,0.0214
2405.0,0.021484
2410.0,0.021405
2415.0,0.021443
2420.0,0.021433
2425.0,0.021423
2430.0,0.021443
2435.0,0.021442
2440.0,0.021381
2445.0,0.021324
2450.0,0.021291
2455.0,0.021235
2460.0,0.02119
2465.0,0.021168
2470.0,0.021098
2475.0,0.021033
2480.0,0.021112
2485.0,0.021165
2490.0,0.021055
2495.0,0.021083
2500.0,0.021112
2502.0,0.02112
2503.2,0.021156
2504.41,0.021168
2505.62,0.021117
2506.83,0.021128
2508.05,0.021199
2509.26,0.021393
2510.48,0.021486
2511.69,0.021379
2512.91,0.02136
2514.13,0.02148
2515.35,0.021313
2516.57,0.021154
2517.79,0.021237
2519.02,0.021223
2520.24,0.021159
2521.47,0.021157
2522.69,0.021285
2523.92,0.021288
2525.15,0.0212
2526.38,0.0212
2527.61,0.021295
2528.85,0.021248
2530.08,0.021152
2531.32,0.021133
2532.55,0.021192
2533.79,0.021317
2535.03,0.021364
2536.27,0.021197
2537.51,0.021221
2538.75,0.021299
2540.0,0.021328
2541.24,0.021318
2542.49,0.02121
2543.74,0.021256
2544.99,0.021333
2546.24,0.021333
2547.49,0.021311
2548.74,0.021276
2549.99,0.021173
2551.25,0.021144
2552.5,0.021277
2553.76,0.021385
2555.02,0.021388
2556.28,0.021394
2557.54,0.021199
2558.8,0.021246
2560.07,0.021337
2561.33,0.021336
2562.6,0.021465
2563.86,0.021518
2565.13,0.021335
2566.4,0.021308
2567.67,0.021202
2568.95,0.021121
2570.22,0.021253
2571.5,0.021275
2572.77,0.021091
2574.05,0.021153
2575.33,0.021321
2576.61,0.021302
2577.89,0.021349
2579.17,0.021456
2580.46,0.021487
2581.74,0.021426
2583.03,0.021383
2584.31,0.021434
2585.6,0.021318
2586.89,0.021248
2588.19,0.021327
2589.48,0.02132
2590.77,0.021319
2592.07,0.021375
2593.36,0.02139
2594.66,0.021485
2595.96,0.021535
2597.26,0.021394
2598.56,0.021332
2599.87,0.021458
2601.17,0.021431
2602.48,0.021409
2603.78,0.021354
2605.09,0.021266
2606.4,0.021356
2607.71,0.021428
2609.03,0.021339
2610.34,0.021429
2611.66,0.021498
2612.97,0.021336
2614.29,0.021239
2615.61,0.02122
2616.93,0.021326
2618.25,0.02155
2619.57,0.021529
2620.9,0.02147
2622.22,0.021535
2623.55,0.021568
2624.88,0.021445
2626.21,0.021426
2627.54,0.021537
2628.87,0.021389
2630.21,0.021377
2631.54,0.021468
2632.88,0.021519
2634.21,0.021497
2635.55,0.021491
2636.89,0.021551
2638.24,0.021451
2639.58,0.021422
2640.92,0.021469
2642.27,0.021621
2643.62,0.021607
2644.97,0.021437
2646.32,0.02144
2647.67,0.021433
2649.02,0.02146
2650.38,0.021398
2651.73,0.02136
2653.09,0.021486
2654.45,0.021491
2655.81,0.021553
2657.17,0.021619
2658.53,0.02154
2659.89,0.021587
2661.26,0.021646
2662.63,0.021599
2664.0,0.021513
2665.36,0.021379
2666.74,0.021263
2668.11,0.021351
2669.48,0.021458
2670.86,0.021433
2672.23,0.021393
2673.61,0.021381
2674.99,0.021317
2676.37,0.021225
2677.76,0.021142
2679.14,0.02115
2680.52,0.02117
2681.91,0.021171
2683.3,0.02098
2684.69,0.020779
2686.08,0.020535
2687.47,0.020412
2688.87,0.020365
2690.26,0.020203
2691.66,0.020015
2693.06,0.019893
2694.46,0.01974
2695.86,0.019537
2697.26,0.019421
2698.66,0.019251
2700.07,0.018992
2701.48,0.018707
2702.89,0.018524
2704.3,0.018397
2705.71,0.018344
2707.12,0.018242
2708.53,0.018171
2709.95,0.018128
2711.37,0.018155
2712.79,0.018253
2714.21,0.018094
2715.63,0.017861
2717.05,0.017899
2718.48,0.018073
2719.9,0.018103
2721.33,0.018161
2722.76,0.018225
2724.19,0.018272
2725.62,0.018308
2727.06,0.018355
2728.49,0.018346
2729.93,0.018268
2731.37,0.018266
2732.81,0.018343
2734.25,0.01833
2735.69,0.0184
2737.14,0.018527
2738.58,0.01849
2740.03,0.018452
2741.48,0.01837
2742.93,0.018323
2744.38,0.018442
2745.83,0.01855
2747.29,0.01851
2748.75,0.018401
2750.2,0.018456
2751.66,0.018504
2753.13,0.018494
2754.59,0.018452
2756.05,0.018354
2757.52,0.018196
2758.99,0.018183
2760.46,0.018246
2761.93,0.018325
2763.4,0.018359
2764.87,0.018354
2766.35,0.018361
2767.82,0.018352
2769.3,0.018364
2770.78,0.018416
2772.26,0.018376
2773.75,0.018269
2775.23,0.018286
2776.72,0.018344
2778.21,0.018341
2779.7,0.018307
2781.19,0.01831
2782.68,0.018389
2784.18,0.018373
2785.67,0.01832
2787.17,0.018405
2788.67,0.018424
2790.17,0.01838
2791.67,0.018302
2793.18,0.018264
2794.68,0.018358
2796.19,0.01838
2797.7,0.018367
2799.21,0.018377
2800.72,0.018399
2802.24,0.01838
2803.75,0.01833
2805.27,0.018283
2806.79,0.018227
2808.31,0.018274
2809.83,0.018377
2811.35,0.018398
2812.88,0.018452
2814.41,0.018369
2815.93,0.018254
2817.46,0.018264
2819.0,0.018335
2820.53,0.018474
2822.07,0.018525
2823.6,0.018397
2825.14,0.018378
2826.68,0.018478
2828.22,0.018514
2829.77,0.018442
2831.31,0.01845
2832.86,0.018465
2834.41,0.018449
2835.96,0.018393
2837.51,0.018329
2839.07,0.018331
2840.62,0.018477
2842.18,0.018524
2843.74,0.01839
2845.3,0.018409
2846.86,0.01846
2848.43,0.01846
2849.99,0.018508
2851.56,0.01852
2853.13,0.018438
2854.7,0.018434
2856.27,0.018497
2857.85,0.018567
2859.42,0.018554
2861.0,0.018506
2862.58,0.018544
2864.16,0.018612
2865.75,0.018572
2867.33,0.018506
2868.92,0.018492
2870.51,0.01853
2872.1,0.018525
2873.69,0.018516
2875.28,0.018619
2876.88,0.018652
2878.48,0.018584
2880.07,0.018611
2881.68,0.018678
2883.28,0.018657
2884.88,0.018637
2886.49,0.018639
2888.1,0.018608
2889.71,0.018587
2891.32,0.018652
2892.93,0.018726
2894.55,0.018604
2896.16,0.018525
2897.78,0.018582
2899.4,0.018612
2901.03,0.018702
2902.65,0.018798
2904.28,0.018837
2905.91,0.018816
2907.54,0.018801
2909.17,0.01881
2910.8,0.018774
2912.44,0.01875
2914.07,0.018713
2915.71,0.018783
2917.35,0.018832
2918.99,0.018902
2920.64,0.018918
2922.29,0.018944
2923.93,0.018956
2925.58,0.01885
2927.24,0.018825
2928.89,0.018927
2930.55,0.019043
2932.2,0.018976
2933.86,0.018884
2935.52,0.018983
2937.19,0.018942
2938.85,0.018872
2940.52,0.018929
2942.19,0.018992
2943.86,0.018993
2945.53,0.019032
2947.21,0.019056
2948.88,0.019135
2950.56,0.019228
2952.24,0.019229
2953.92,0.019122
2955.61,0.01907
2957.29,0.019132
2958.98,0.019174
2960.67,0.019141
2962.36,0.019114
2964.06,0.019147
2965.75,0.019242
2967.45,0.019304
2969.15,0.019177
2970.85,0.019139
2972.55,0.019141
2974.26,0.019088
2975.97,0.019185
2977.68,0.019234
2979.39,0.019155
2981.1,0.019204
2982.82,0.019243
2984.53,0.019156
2986.25,0.019146
2987.97,0.019158
2989.7,0.019202
2991.42,0.019263
2993.15,0.019342
2994.88,0.019345
2996.61,0.019297
2998.34,0.019382
3000.08,0.019431
3001.82,0.019397
3003.55,0.019429
3005.3,0.019503
3007.04,0.019593
3008.78,0.019564
3010.53,0.019484
3012.28,0.019462
3014.03,0.019499
3015.79,0.019527
3017.54,0.019555
3019.3,0.01946
3021.06,0.019393
3022.82,0.019476
3024.58,0.019461
3026.35,0.019435
3028.12,0.019445
3029.89,0.019398
3031.66,0.019396
3033.43,0.019412
3035.21,0.019482
3036.99,0.019548
3038.77,0.019578
3040.55,0.019548
3042.33,0.019572
3044.12,0.019609
3045.91,0.019599
3047.7,0.019553
3049.49,0.019586
3051.29,0.019659
3053.08,0.019622
3054.88,0.019634
3056.68,0.019613
3058.49,0.019593
3060.29,0.019628
3062.1,0.019739
3063.91,0.019789
3065.72,0.019835
3067.54,0.019835
3069.35,0.019778
3071.17,0.019763
3072.99,0.019756
3074.81,0.019792
3076.64,0.019825
3078.47,0.019817
3080.29,0.019853
3082.13,0.019783
3083.96,0.019746
3085.79,0.019828
3087.63,0.019888
3089.47,0.019909
3091.31,0.019933
3093.16,0.019937
3095.01,0.019945
3096.85,0.020011
3098.71,0.020039
3100.56,0.019967
3102.41,0.01994
3104.27,0.019987
3106.13,0.019996
3107.99,0.019995
3109.86,0.020024
3111.73,0.020055
3113.59,0.020077
3115.47,0.020137
3117.34,0.020241
3119.21,0.020239
3121.09,0.020231
3122.97,0.020253
3124.86,0.020255
3126.74,0.02019
3128.63,0.020216
3130.52,0.020303
3132.41,0.020345
3134.3,0.020371
3136.2,0.020304
3138.1,0.020296
3140.0,0.020436
3141.9,0.020514
3143.81,0.020446
3145.71,0.020371
3147.62,0.0204
3149.54,0.020417
3151.45,0.020438
3153.37,0.020544
3155.29,0.020594
3157.21,0.020633
3159.13,0.02073
3161.06,0.020733
3162.99,0.020663
3164.92,0.02065
3166.85,0.020669
3168.79,0.020684
3170.72,0.020705
3172.67,0.020762
3174.61,0.020812
3176.55,0.020844
3178.5,0.020843
3180.45,0.020792
3182.4,0.020809
3184.36,0.02092
3186.32,0.021012
3188.27,0.020969
3190.24,0.020898
3192.2,0.020836
3194.17,0.020878
3196.14,0.020979
3198.11,0.021059
3200.08,0.021008
3202.06,0.020952
3204.04,0.020954
3206.02,0.02106
3208.0,0.021101
3209.99,0.021026
3211.98,0.021019
3213.97,0.021053
3215.96,0.021097
3217.96,0.021156
3219.96,0.021178
3221.96,0.021161
3223.96,0.021159
3225.97,0.021214
3227.98,0.021188
3229.99,0.021156
3232.0,0.021206
3234.02,0.021268
3236.04,0.021306
3238.06,0.021291
3240.08,0.021329
3242.11,0.021358
3244.14,0.021301
3246.17,0.021313
3248.2,0.021321
3250.24,0.021369
3252.28,0.021401
3254.32,0.021393
3256.37,0.021433
3258.41,0.021516
3260.46,0.021481
3262.51,0.021438
3264.57,0.021445
3266.63,0.021468
3268.69,0.021544
3270.75,0.021585
3272.81,0.021524
3274.88,0.021566
3276.95,0.021628
3279.02,0.021582
3281.1,0.021586
3283.18,0.021584
3285.26,0.021622
3287.34,0.0217
3289.43,0.021645
3291.51,0.021616
3293.61,0.021664
3295.7,0.021677
3297.8,0.021704
3299.9,0.021764
3302.0,0.021818
3304.1,0.021823
3306.21,0.021877
3308.32,0.021884
3310.43,0.021836
3312.55,0.021833
3314.66,0.021853
3316.79,0.021892
3318.91,0.021944
3321.03,0.021906
3323.16,0.02186
3325.29,0.021958
3327.43,0.02196
3329.57,0.021936
3331.71,0.021966
3333.85,0.021973
3335.99,0.021939
3338.14,0.021983
3340.29,0.02196
3342.45,0.021969
3344.6,0.021989
3346.76,0.022015
3348.92,0.022023
3351.09,0.022006
3353.26,0.022046
3355.43,0.022095
3357.6,0.022099
3359.78,0.022082
3361.96,0.0221
3364.14,0.022137
3366.32,0.022099
3368.51,0.022099
3370.7,0.022082
3372.89,0.022066
3375.09,0.022136
3377.29,0.02219
3379.49,0.022199
3381.69,0.022209
3383.9,0.022206
3386.11,0.022216
3388.32,0.022205
3390.54,0.022225
3392.76,0.022287
3394.98,0.02223
3397.21,0.022173
3399.43,0.022222
3401.66,0.022255
3403.9,0.022243
3406.13,0.022235
3408.37,0.022193
3410.61,0.022164
3412.86,0.022184
3415.11,0.022172
3417.36,0.022197
3419.61,0.022249
3421.87,0.022277
3424.13,0.022317
3426.39,0.022313
3428.66,0.022312
3430.93,0.022329
3433.2,0.022377
3435.48,0.022437
3437.76,0.022526
3440.04,0.022586
3442.32,0.022619
3444.61,0.022626
3446.9,0.022578
3449.19,0.022572
3451.49,0.022626
3453.79,0.022663
3456.09,0.022713
3458.4,0.022713
3460.7,0.022677
3463.02,0.022708
3465.33,0.022776
3467.65,0.022759
3469.97,0.022658
3472.29,0.022646
3474.62,0.022738
3476.95,0.022723
3479.29,0.022711
3481.62,0.022756
3483.96,0.022724
3486.3,0.022733
3488.65,0.022811
3491.0,0.022772
3493.35,0.022793
3495.71,0.022854
3498.07,0.022862
3500.43,0.022939
3502.79,0.022926
3505.16,0.022856
3507.53,0.022813
3509.91,0.022847
3512.29,0.022919
3514.67,0.022945
3517.05,0.022969
3519.44,0.023044
3521.83,0.023118
3524.23,0.023122
3526.62,0.023153
3529.02,0.023166
3531.43,0.023196
3533.83,0.02326
3536.24,0.023235
3538.66,0.02318
3541.08,0.023213
3543.5,0.023248
3545.92,0.023236
3548.35,0.023271
3550.78,0.023328
3553.21,0.023319
3555.65,0.023322
3558.09,0.023363
3560.53,0.02333
3562.98,0.02325
3565.43,0.023263
3567.88,0.023369
3570.34,0.023426
3572.8,0.023437
3575.27,0.023428
3577.73,0.02341
3580.2,0.023399
3582.68,0.023417
3585.16,0.023477
3587.64,0.0235
3590.12,0.023487
3592.61,0.023414
3595.1,0.023423
3597.6,0.02346
3600.09,0.023496
3602.6,0.02356
3605.1,0.023605
3607.61,0.023593
3610.12,0.023607
3612.64,0.023624
3615.16,0.02363
3617.68,0.023641
3620.21,0.023637
3622.74,0.023617
3625.27,0.023632
3627.81,0.023715
3630.35,0.023743
3632.89,0.02374
3635.44,0.023733
3637.99,0.023733
3640.54,0.023766
3643.1,0.023781
3645.66,0.023756
3648.23,0.023775
3650.8,0.023818
3653.37,0.023785
3655.95,0.023793
3658.53,0.023838
3661.11,0.023839
3663.7,0.023842
3666.29,0.023861
3668.89,0.023912
3671.48,0.02391
3674.09,0.023859
3676.69,0.023841
3679.3,0.023862
3681.91,0.023907
3684.53,0.023951
3687.15,0.023938
3689.78,0.023925
3692.4,0.023979
3695.04,0.024046
3697.67,0.023997
3700.31,0.023966
3702.95,0.024007
3705.6,0.02401
3708.25,0.02399
3710.91,0.024023
3713.56,0.024033
3716.23,0.023993
3718.89,0.024024
3721.56,0.024095
3724.23,0.024079
3726.91,0.024078
3729.59,0.024087
3732.28,0.024024
3734.97,0.024033
3737.66,0.024078
3740.36,0.024084
3743.06,0.024042
3745.76,0.024045
3748.47,0.024109
3751.18,0.024168
3753.9,0.024201
3756.62,0.024175
3759.34,0.024131
3762.07,0.024147
3764.8,0.024149
3767.54,0.024125
3770.28,0.02413
3773.02,0.024187
3775.77,0.024205
3778.52,0.024193
3781.28,0.024162
3784.04,0.024142
3786.8,0.02418
3789.57,0.024219
3792.34,0.024212
3795.12,0.024187
3797.9,0.024177
3800.69,0.024206
3803.47,0.024237
3806.27,0.024203
3809.06,0.024191
3811.86,0.024229
3814.67,0.024224
3817.48,0.02424
3820.29,0.024253
3823.11,0.024291
3825.93,0.024295
3828.76,0.024209
3831.59,0.024165
3834.42,0.02423
3837.26,0.024347
3840.1,0.024366
3842.95,0.024274
3845.8,0.024256
3848.65,0.024318
3851.51,0.024332
3854.38,0.024352
3857.24,0.02438
3860.12,0.024332
3862.99,0.024328
3865.87,0.024334
3868.76,0.024322
3871.65,0.024344
3874.54,0.024342
3877.44,0.024347
3880.34,0.02438
3883.25,0.024384
3886.16,0.024366
3889.07,0.024382
3891.99,0.024348
3894.92,0.024307
3897.85,0.024367
3900.78,0.024421
3903.72,0.024425
3906.66,0.024442
3909.6,0.024409
3912.55,0.024373
3915.51,0.024382
3918.47,0.024413
3921.43,0.024386
3924.4,0.024373
3927.38,0.024384
3930.35,0.024431
3933.33,0.024464
3936.32,0.024459
3939.31,0.024469
3942.31,0.024479
3945.31,0.024459
3948.31,0.024422
3951.32,0.024455
3954.34,0.024477
3957.35,0.024475
3960.38,0.024479
3963.41,0.024461
3966.44,0.024423
3969.48,0.024371
3972.52,0.024344
3975.56,0.024401
3978.61,0.024465
3981.67,0.024525
3984.73,0.02455
3987.8,0.024513
3990.87,0.024472
3993.94,0.024437
3997.02,0.024432
4000.1,0.024476
4003.19,0.024497
4006.29,0.024492
4009.39,0.024467
4012.49,0.02442
4015.6,0.02447
4018.71,0.024508
4021.83,0.024483
4024.95,0.024483
4028.08,0.02452
4031.21,0.02451
4034.35,0.024499
4037.49,0.024517
4040.64,0.024533
4043.79,0.024509
4046.94,0.024459
4050.11,0.02448
4053.27,0.024518
4056.44,0.024547
4059.62,0.024544
4062.8,0.024572
4065.99,0.024547
4069.18,0.024496
4072.38,0.024485
4075.58,0.024442
4078.78,0.024429
4082.0,0.024482
4085.21,0.024544
4088.43,0.024531
4091.66,0.024513
4094.89,0.024492
4098.13,0.02446
4101.37,0.024448
4104.62,0.024462
4107.87,0.024507
4111.13,0.024515
4114.39,0.024475
4117.66,0.024477
4120.93,0.024502
4124.21,0.024502
4127.5,0.024526
4130.79,0.024515
4134.08,0.024483
4137.38,0.024478
4140.68,0.024484
4143.99,0.02445
4147.31,0.0244
4150.63,0.024433
4153.95,0.024466
4157.29,0.024463
4160.62,0.024479
4163.96,0.024514
4167.31,0.024492
4170.66,0.024439
4174.02,0.024476
4177.39,0.024527
4180.75,0.024519
4184.13,0.024495
4187.51,0.024476
4190.89,0.024437
4194.28,0.02444
4197.68,0.024487
4201.08,0.024463
4204.49,0.024463
4207.9,0.024491
4211.32,0.024505
4214.74,0.02444
4218.17,0.024351
4221.61,0.024358
4225.05,0.024349
4228.5,0.02439
4231.95,0.024444
4235.4,0.024419
4238.87,0.024398
4242.34,0.024437
4245.81,0.024419
4249.29,0.024406
4252.78,0.024427
4256.27,0.024414
4259.77,0.024398
4263.27,0.02439
4266.78,0.024408
4270.29,0.024398
4273.81,0.024381
4277.34,0.024414
4280.87,0.02441
4284.41,0.024386
4287.95,0.024383
4291.5,0.02438
4295.06,0.024365
4298.62,0.024371
4302.19,0.024393
4305.76,0.024396
4309.34,0.024438
4312.92,0.024416
4316.52,0.024381
4320.11,0.024367
4323.72,0.024386
4327.32,0.024391
4330.94,0.024388
4334.56,0.024369
4338.19,0.02435
4341.82,0.024386
4345.46,0.024434
4349.11,0.024415
4352.76,0.024388
4356.42,0.02438
4360.08,0.024376
4363.75,0.024406
4367.43,0.024434
4371.11,0.024438
4374.8,0.024438
4378.49,0.024451
4382.19,0.024436
4385.9,0.024362
4389.61,0.024316
4393.33,0.02433
4397.06,0.024351
4400.79,0.024342
4404.53,0.024318
4408.28,0.024345
4412.03,0.024391
4415.79,0.024372
4419.55,0.024355
4423.32,0.024354
4427.1,0.024357
4430.88,0.024387
4434.68,0.024379
4438.47,0.024322
4442.28,0.024326
4446.08,0.024329
4449.9,0.024312
4453.72,0.024336
4457.55,0.024314
4461.39,0.024316
4465.23,0.024347
4469.08,0.024309
4472.94,0.024279
4476.8,0.0243
4480.67,0.024348
4484.55,0.024386
4488.43,0.024348
4492.32,0.024342
4496.21,0.024394
4500.12,0.024384
4504.03,0.024321
4507.94,0.024295
4511.87,0.024323
4515.8,0.024381
4519.73,0.024406
4523.68,0.024377
4527.63,0.024314
4531.59,0.024326
4535.55,0.024362
4539.52,0.02437
4543.5,0.024404
4547.49,0.024415
4551.48,0.024424
4555.48,0.02439
4559.49,0.024374
4563.5,0.024409
4567.52,0.024433
4571.55,0.024441
4575.58,0.02442
4579.63,0.024419
4583.67,0.02443
4587.73,0.024417
4591.79,0.024383
4595.86,0.024324
4599.94,0.024297
4604.03,0.024336
4608.12,0.024399
4612.22,0.024411
4616.33,0.024344
4620.44,0.024342
4624.56,0.024388
4628.69,0.024398
4632.83,0.024366
4636.97,0.024381
4641.12,0.024372
4645.28,0.024363
4649.45,0.024374
4653.62,0.024348
4657.8,0.024317
4661.99,0.024306
4666.19,0.024302
4670.39,0.024314
4674.6,0.024301
4678.82,0.02439
4683.05,0.024402
4687.28,0.024337
4691.52,0.024334
4695.77,0.024338
4700.03,0.024354
4704.3,0.024326
4708.57,0.024315
4712.85,0.024308
4717.14,0.024331
4721.43,0.024358
4725.74,0.024377
4730.05,0.024356
4734.37,0.024359
4738.7,0.024383
4743.03,0.024393
4747.38,0.024376
4751.73,0.024369
4756.09,0.024372
4760.45,0.024366
4764.83,0.024382
4769.21,0.024388
4773.6,0.024342
4778.0,0.024335
4782.41,0.024352
4786.83,0.024374
4791.25,0.024358
4795.68,0.024393
4800.13,0.024399
4804.57,0.024351
4809.03,0.024329
4813.5,0.024332
4817.97,0.024331
4822.45,0.02437
4826.94,0.024409
4831.44,0.024377
4835.95,0.024369
4840.46,0.024408
4844.99,0.024401
4849.52,0.024358
4854.06,0.024325
4858.61,0.024375
4863.17,0.024386
4867.73,0.024347
4872.31,0.024314
4876.89,0.024279
4881.48,0.024298
4886.08,0.024293
4890.69,0.024247
4895.31,0.02428
4899.94,0.024261
4904.57,0.024219
4909.22,0.024219
4913.87,0.024226
4918.53,0.024205
4923.21,0.02418
4927.88,0.024183
4932.57,0.024168
4937.27,0.024154
4941.98,0.024172
4946.69,0.024167
4951.42,0.024119
4956.15,0.024083
4960.9,0.024057
4965.65,0.024051
4970.41,0.024085
4975.18,0.024064
4979.96,0.024083
4984.75,0.024088
4989.54,0.024044
4994.35,0.024033
4999.17,0.024047
5003.99,0.023999
5008.83,0.023974
5013.67,0.023977
5018.52,0.024019
5023.39,0.024031
5028.26,0.024033
5033.14,0.024059
5038.03,0.024041
5042.93,0.023997
5047.84,0.023991
5052.76,0.02401
5057.69,0.024026
5062.63,0.024003
5067.58,0.023948
5072.54,0.023872
5077.51,0.023899
5082.49,0.023993
5087.47,0.024022
5092.47,0.024011
5097.48,0.023974
5102.5,0.023948
5107.52,0.02395
5112.56,0.023939
5117.61,0.023942
5122.66,0.023939
5127.73,0.023922
5132.81,0.023921
5137.89,0.023964
5142.99,0.023979
5148.1,0.023972
5153.22,0.02392
5158.34,0.023861
5163.48,0.023856
5168.63,0.023912
5173.79,0.023924
5178.96,0.023908
5184.13,0.023897
5189.32,0.023874
5194.52,0.023872
5199.73,0.023878
5204.96,0.023879
5210.19,0.023883
5215.43,0.023868
5220.68,0.023804
5225.94,0.023753
5231.22,0.023719
5236.5,0.023676
5241.79,0.023707
5247.1,0.023725
5252.42,0.023717
5257.74,0.023735
5263.08,0.023701
5268.43,0.023653
5273.79,0.02364
5279.16,0.023664
5284.54,0.023678
5289.93,0.023678
5295.34,0.023659
5300.75,0.023649
5306.18,0.023655
5311.61,0.023629
5317.06,0.02362
5322.52,0.023628
5327.99,0.023615
5333.47,0.023645
5338.96,0.023641
5344.47,0.023595
5349.98,0.02359
5355.51,0.023571
5361.05,0.023576
5366.6,0.023558
5372.16,0.023527
5377.73,0.023549
5383.32,0.023541
5388.91,0.023558
5394.52,0.023561
5400.14,0.023551
5405.77,0.023559
5411.41,0.023568
5417.07,0.023597
5422.74,0.023559
5428.41,0.023535
5434.1,0.023604
5439.81,0.023639
5445.52,0.023571
5451.25,0.023558
5456.98,0.023549
5462.73,0.023531
5468.5,0.023519
5474.27,0.023547
5480.06,0.023573
5485.86,0.023545
5491.67,0.023495
5497.49,0.023471
5503.33,0.023422
5509.18,0.023383
5515.04,0.0234
5520.91,0.023377
5526.8,0.02331
5532.69,0.023294
5538.61,0.023342
5544.53,0.023354
5550.47,0.023297
5556.41,0.023276
5562.38,0.023281
5568.35,0.023261
5574.34,0.023198
5580.34,0.023146
5586.35,0.023143
5592.38,0.023176
5598.42,0.023208
5604.47,0.023197
5610.54,0.023152
5616.61,0.023135
5622.71,0.023139
5628.81,0.023116
5634.93,0.02312
5641.06,0.023121
5647.21,0.023069
5653.36,0.023082
5659.54,0.023122
5665.72,0.023118
5671.92,0.023091
5678.13,0.02311
5684.36,0.023092
5690.6,0.023058
5696.85,0.02304
5703.12,0.02303
5709.4,0.023036
5715.69,0.023029
5722.0,0.023015
5728.33,0.023005
5734.66,0.022957
5741.01,0.022944
5747.38,0.022922
5753.76,0.022865
5760.15,0.022833
5766.56,0.022798
5772.98,0.02276
5779.41,0.022738
5785.86,0.022693
5792.33,0.022655
5798.81,0.022622
5805.3,0.022524
5811.81,0.022456
5818.33,0.022392
5824.87,0.022292
5831.42,0.022202
5837.99,0.022107
5844.57,0.022065
5851.17,0.022021
5857.78,0.021962
5864.41,0.021888
5871.05,0.021792
5877.7,0.021732
5884.38,0.021652
5891.06,0.021564
5897.76,0.021459
5904.48,0.021314
5911.21,0.021278
5917.96,0.02124
5924.73,0.021123
5931.5,0.02107
5938.3,0.02103
5945.11,0.020932
5951.93,0.020845
5958.78,0.02075
5965.63,0.020603
5972.51,0.020506
5979.39,0.020445
5986.3,0.020351
5993.22,0.020287
6000.16,0.020249
6007.11,0.020194
6014.08,0.020131
6021.06,0.020112
6028.06,0.020033
6035.08,0.019889
6042.12,0.019872
6049.17,0.019863
6056.23,0.019755
6063.32,0.019725
6070.42,0.019706
6077.53,0.019635
6084.67,0.019639
6091.82,0.019623
6098.98,0.019595
6106.17,0.019611
6113.37,0.019624
6120.58,0.019631
6127.82,0.019685
6135.07,0.019742
6142.34,0.019775
6149.63,0.019796
6156.93,0.0198
6164.25,0.019835
6171.59,0.019919
6178.95,0.019943
6186.32,0.019942
6193.71,0.020002
6201.12,0.020106
6208.54,0.020174
6215.99,0.020195
6223.45,0.020217
6230.93,0.020246
6238.43,0.020288
6245.95,0.02035
6253.48,0.020416
6261.03,0.020437
6268.6,0.020461
6276.19,0.020486
6283.8,0.020528
6291.43,0.020542
6299.07,0.020507
6306.73,0.02056
6314.42,0.020639
6322.12,0.020668
6329.84,0.020673
6337.57,0.020734
6345.33,0.020792
6353.11,0.020789
6360.9,0.020819
6368.72,0.020834
6376.55,0.02084
6384.4,0.020894
6392.27,0.020928
6400.17,0.02093
6408.08,0.020909
6416.01,0.020896
6423.96,0.020947
6431.93,0.020975
6439.92,0.020953
6447.93,0.020943
6455.96,0.020967
6464.01,0.020946
6472.08,0.020945
6480.17,0.020972
6488.28,0.020964
6496.41,0.020953
6504.56,0.020942
6512.73,0.020972
6520.92,0.02102
6529.14,0.020988
6537.37,0.020981
6545.63,0.021008
6553.9,0.021045
6562.2,0.021087
6570.51,0.021039
6578.85,0.021025
6587.21,0.021109
6595.59,0.021122
6603.99,0.021105
6612.42,0.021176
6620.86,0.021208
6629.33,0.02117
6637.82,0.021172
6646.33,0.021255
6654.86,0.021329
6663.41,0.021344
6671.99,0.021352
6680.59,0.02134
6689.21,0.021337
6697.85,0.02134
6706.51,0.021324
6715.2,0.021323
6723.91,0.021354
6732.64,0.021366
6741.4,0.021347
6750.18,0.021319
6758.98,0.021291
6767.8,0.021222
6776.65,0.02112
6785.52,0.021052
6794.41,0.021022
6803.33,0.02094
6812.27,0.020859
6821.23,0.020827
6830.22,0.020803
6839.23,0.020748
6848.26,0.020713
6857.32,0.020696
6866.4,0.020631
6875.51,0.020506
6884.64,0.020447
6893.8,0.020409
6902.98,0.020339
6912.18,0.020287
6921.41,0.020288
6930.66,0.020306
6939.94,0.020301
6949.24,0.020269
6958.57,0.020254
6967.92,0.020267
6977.3,0.02026
6986.7,0.020261
6996.13,0.020276
7005.59,0.02028
7015.07,0.020292
7024.57,0.020343
7034.1,0.020381
7043.66,0.020415
7053.25,0.020468
7062.85,0.020556
7072.49,0.020587
7082.15,0.020572
7091.84,0.02057
7101.55,0.020582
7111.3,0.020622
7121.06,0.020677
7130.86,0.020693
7140.68,0.020708
7150.53,0.020755
7160.41,0.020785
7170.31,0.020793
7180.24,0.020825
7190.2,0.020858
7200.19,0.020935
7210.2,0.021015
7220.24,0.021023
7230.31,0.021054
7240.41,0.021086
7250.54,0.021149
7260.69,0.021187
7270.88,0.021205
7281.09,0.02121
7291.33,0.021233
7301.6,0.021311
7311.9,0.02138
7322.22,0.021407
7332.58,0.021414
7342.97,0.021454
7353.38,0.021433
7363.83,0.021377
7374.3,0.021415
7384.81,0.021488
7395.34,0.021486
7405.91,0.021418
7416.5,0.021416
7427.13,0.02142
7437.78,0.021401
7448.47,0.021376
7459.19,0.021386
7469.94,0.021357
7480.71,0.021362
7491.52,0.021414
7502.37,0.021412
7513.24,0.021387
7524.14,0.02137
7535.08,0.021348
7546.05,0.021295
7557.05,0.021256
7568.08,0.021213
7579.15,0.021215
7590.24,0.02116
7601.37,0.021141
7612.53,0.021149
7623.73,0.021165
7634.96,0.021227
7646.22,0.021235
7657.51,0.02122
7668.84,0.021272
7680.2,0.02129
7691.59,0.021329
7703.02,0.021373
7714.49,0.021353
7725.98,0.021329
7737.52,0.021282
7749.08,0.021277
7760.68,0.021323
7772.32,0.021307
7783.99,0.021202
7795.69,0.021169
7807.43,0.021138
7819.21,0.02107
7831.02,0.021025
7842.87,0.02102
7854.75,0.020964
7866.67,0.020912
7878.62,0.020909
7890.62,0.020901
7902.64,0.020882
7914.71,0.020898
7926.81,0.020857
7938.95,0.020814
7951.13,0.020781
7963.34,0.020769
7975.59,0.020735
7987.88,0.02068
8000.21,0.020673
8012.57,0.020664
8024.98,0.020621
8037.42,0.020632
8049.9,0.020629
8062.42,0.020632
8074.98,0.020607
8087.57,0.02057
8100.21,0.020564
8112.89,0.020577
8125.6,0.020606
8138.36,0.020655
8151.16,0.020711
8163.99,0.020727
8176.87,0.02072
8189.79,0.020799
8202.75,0.020841
8215.75,0.020869
8228.79,0.020872
8241.87,0.020917
8254.99,0.021003
8268.16,0.021103
8281.37,0.021199
8294.62,0.021268
8307.91,0.021344
8321.24,0.021403
8334.62,0.021429
8348.04,0.02146
8361.51,0.021527
8375.02,0.021568
8388.57,0.021642
8402.16,0.021735
8415.8,0.021786
8429.49,0.021872
8443.22,0.021947
8456.99,0.022025
8470.81,0.022123
8484.67,0.022176
8498.58,0.022156
8512.54,0.022179
8526.54,0.022212
8540.58,0.02221
8554.68,0.022231
8568.82,0.022291
8583.0,0.022355
8597.24,0.02239
8611.52,0.022421
8625.85,0.02245
8640.23,0.022567
8654.65,0.022687
8669.12,0.022825
8683.64,0.022959
8698.21,0.023009
8712.83,0.02312
8727.5,0.023202
8742.22,0.023169
8756.99,0.023074
8771.8,0.023052
8786.67,0.023057
8801.59,0.023142
8816.56,0.023178
8831.58,0.023181
8846.65,0.023228
8861.77,0.023269
8876.94,0.023369
8892.17,0.02344
8907.45,0.02349
8922.78,0.023552
8938.16,0.023621
8953.6,0.02363
8969.09,0.023685
8984.64,0.023643
9000.23,0.023612
9015.89,0.023687
9031.59,0.023739
9047.36,0.023868
9063.17,0.024013
9079.05,0.024075
9094.97,0.024153
9110.96,0.024362
9127.0,0.024584
9143.1,0.024748
9159.25,0.024863
9175.46,0.02505
9191.73,0.025327
9208.06,0.025571
9224.44,0.025776
9240.88,0.025958
9257.38,0.026118
9273.94,0.026434
9290.56,0.026809
9307.24,0.027082
9323.98,0.027398
9340.78,0.02791
9357.64,0.028402
9374.57,0.028891
9391.55,0.029378
9408.59,0.029975
9425.7,0.030553
9442.87,0.031121
9460.1,0.031793
9477.4,0.032548
9494.75,0.033243
9512.17,0.033935
9529.66,0.034621
9547.21,0.035254
9564.83,0.035898
9582.5,0.036592
9600.25,0.037098
9618.06,0.037502
9635.94,0.038022
9653.88,0.038513
9671.89,0.038983
9689.97,0.039403
9708.12,0.039739
9726.33,0.040012
9744.62,0.040278
9762.97,0.040481
9781.39,0.040637
9799.88,0.040698
9818.44,0.040692
9837.07,0.040672
9855.77,0.040572
9874.54,0.040384
9893.39,0.040165
9912.3,0.039946
9931.29,0.039774
9950.36,0.039611
9969.49,0.03938
9988.7,0.039134
10007.98,0.038949
10027.34,0.038695
10046.77,0.038396
10066.28,0.038049
10085.87,0.03771
10105.53,0.037474
10125.26,0.037221
10145.08,0.036907
10164.97,0.036653
10184.94,0.036412
10204.99,0.036116
10225.12,0.035808
10245.33,0.035531
10265.61,0.035367
10285.98,0.035195
10306.43,0.035108
10326.96,0.034952
10347.57,0.034761
10368.27,0.034639
10389.05,0.034479
10409.91,0.034244
10430.86,0.034094
10451.88,0.034065
10473.0,0.03397
10494.2,0.033848
10515.49,0.03361
10536.86,0.033419
10558.32,0.033285
10579.87,0.033077
10601.5,0.032886
10623.23,0.032742
10645.04,0.032611
10666.94,0.032438
10688.94,0.032242
10711.02,0.032085
10733.2,0.031948
10755.47,0.031838
10777.83,0.031671
10800.28,0.031503
10822.83,0.031375
10845.47,0.03118
10868.21,0.030996
10891.04,0.030854
10913.97,0.03071
10936.99,0.030526
10960.12,0.030347
10983.34,0.030204
11006.66,0.030051
11030.07,0.029945
11053.59,0.029834
11077.21,0.029753
11100.93,0.029611
11124.75,0.029484
11148.68,0.029456
11172.71,0.02935
11196.84,0.029181
11221.07,0.029148
11245.41,0.029103
11269.86,0.029029
11294.41,0.028944
11319.07,0.028875
11343.84,0.028805
11368.72,0.028762
11393.7,0.028667
11418.8,0.028557
11444.01,0.028504
11469.33,0.028439
11494.76,0.028437
11520.3,0.028403
11545.96,0.028261
11571.73,0.028223
11597.62,0.028214
11623.62,0.028142
11649.74,0.028089
11675.98,0.028071
11702.34,0.028076
11728.81,0.027981
11755.41,0.027892
11782.13,0.027824
11808.96,0.027726
11835.92,0.027641
11863.01,0.027606
11890.22,0.027634
11917.55,0.027703
11945.01,0.027692
11972.6,0.027744
12000.31,0.027764
12028.16,0.02773
12056.13,0.027695
12084.23,0.027712
12112.46,0.027716
12140.83,0.027541
12169.33,0.027502
12197.96,0.027563
12226.73,0.027551
12255.64,0.027436
12284.68,0.027276
12313.86,0.027244
12343.18,0.027221
12372.64,0.02727
12402.24,0.027367
12431.98,0.027438
12461.86,0.02735
12491.89,0.027299
12522.07,0.027302
12552.38,0.027293
12582.85,0.027256
12613.47,0.027168
12644.23,0.027004
12675.15,0.026876
12706.21,0.026878
12737.43,0.026847
12768.81,0.026763
12800.33,0.026785
12832.02,0.026779
12863.86,0.026666
12895.86,0.026513
12928.02,0.026375
12960.34,0.026304
12992.82,0.026229
13025.46,0.026129
13058.27,0.025999
13091.25,0.025956
13124.39,0.02598
13157.7,0.025858
13191.18,0.025737
13224.83,0.025724
13258.66,0.025577
13292.65,0.025418
13326.83,0.025424
13361.17,0.025352
13395.7,0.025265
13430.4,0.02515
13465.29,0.025113
13500.35,0.025099
13535.6,0.025019
13571.03,0.025009
13606.65,0.024961
13642.46,0.02499
13678.46,0.024941
13714.64,0.024902
13751.02,0.024969
13787.59,0.02494
13824.36,0.024908
13861.32,0.024892
13898.49,0.024812
13935.85,0.024613
13973.41,0.02456
14011.17,0.024555
14049.15,0.024398
14087.32,0.02432
14125.71,0.02429
14164.3,0.024365
14203.11,0.024502
14242.13,0.024659
14281.36,0.024672
14320.81,0.024667
14360.49,0.024675
14400.38,0.024792
14440.49,0.024933
14480.82,0.025111
14521.39,0.025212
14562.18,0.025326
14603.2,0.025569
14644.45,0.025703
14685.93,0.025854
14727.66,0.026065
14769.62,0.026233
14811.81,0.026402
14854.25,0.026572
14896.94,0.026824
14939.87,0.026959
14983.05,0.02693
15026.48,0.026974
15070.16,0.027056
15114.1,0.027133
15158.29,0.027249
15202.74,0.027408
15247.46,0.027452
15292.43,0.027571
15337.68,0.027678
15383.19,0.027676
15428.97,0.027708
15475.03,0.027936
15521.36,0.028046
15567.97,0.027935
15614.87,0.028062
15662.04,0.028353
15709.5,0.028296
15757.25,0.028201
15805.29,0.02827
15853.62,0.028057
15902.26,0.02798
15951.19,0.028171
16000.42,0.028353
16049.95,0.028443
16099.8,0.028501
16149.95,0.028631
16200.42,0.028743
16251.21,0.028929
16302.31,0.029347
16353.74,0.029873
16405.49,0.030043
16457.57,0.029852
16509.98,0.029715
16562.73,0.029843
16615.82,0.029766
16669.24,0.029578
16723.02,0.029601
16777.14,0.029476
16831.61,0.029378
16886.43,0.029576
16941.62,0.029482
16997.16,0.029239
17053.08,0.028974
17109.36,0.028855
17166.01,0.029056
17223.04,0.029192
17280.45,0.029173
17338.24,0.029081
17396.43,0.029061
17455.0,0.028936
17513.97,0.028875
17573.34,0.028913
17633.11,0.028908
17693.29,0.028839
17753.89,0.028915
17814.9,0.029026
17876.33,0.029063
17938.18,0.029072
18000.47,0.028987
18063.19,0.02888
18126.35,0.028761
18189.95,0.028796
18254.0,0.028838
18318.5,0.028781
18383.46,0.028874
18448.88,0.028744
18514.77,0.028773
18581.13,0.029192
18647.97,0.029465
18715.29,0.029645
18783.1,0.030027
18851.4,0.030498
18920.2,0.03103
18989.51,0.031528
19059.32,0.032124
19129.65,0.032726
19200.5,0.03333
19271.88,0.033784
19343.79,0.034229
19416.24,0.034779
19489.23,0.035547
19562.77,0.036618
19636.88,0.037481
19711.54,0.038287
19786.78,0.039067
19862.59,0.039604
19938.98,0.040778
20015.96,0.042133
20093.55,0.042993
20171.73,0.044185
20250.53,0.045822
20329.94,0.047397
20409.98,0.048846
20490.65,0.050105
20571.96,0.051375
20653.92,0.052763
20736.54,0.054318
20819.82,0.056177
20903.77,0.057438
20988.4,0.058252
21073.72,0.059554
21159.73,0.060924
21246.46,0.062026
21333.89,0.062832
21422.04,0.063426
21510.93,0.06337
21600.56,0.063097
21690.94,0.062957
21782.08,0.063115
21873.99,0.063184
21966.67,0.063212
22060.15,0.063089
22154.42,0.063624
22249.51,0.064357
22345.41,0.06471
22442.14,0.065008
22539.72,0.064257
22638.14,0.063241
22737.43,0.06348
22837.6,0.064
22938.65,0.062784
23040.6,0.061521
23143.46,0.060175
23247.24,0.057942
23351.96,0.056593
23457.63,0.05623
23564.25,0.055183
23671.85,0.053962
23780.44,0.05338
23890.02,0.052996
24000.63,0.05211
24112.26,0.051198
24224.93,0.050413
24338.66,0.049789
24453.47,0.048821
24569.36,0.048111
24686.36,0.047762
24804.47,0.047426
24923.73,0.047421
25044.13,0.04805
25165.71,0.049065
25288.46,0.048375
25412.43,0.046626
25537.61,0.047101
25664.04,0.047638
25791.72,0.04805
25920.68,0.048558
