Database of Origin,University of Winnipeg Spectrophotometer Facility
Sample Description,Carbonaceous chondrites - RELAB archive 8. Lab-heated carbonaceous chondrites
Other Information,cemp18 heated to 700C
Date Added,2018-07-23 23:45:04.265733

Data ID,RLA_MET_39_7        
Sample ID,Ivuna
Mineral Name,Ivuna
Grain Size,<125 um
Viewing Geometry,30/0
Material Class,CI1

Wavelength
305.0,0.043288
310.0,0.048463
315.0,0.047594
320.0,0.04861
325.0,0.049123
330.0,0.049669
335.0,0.049643
340.0,0.049664
345.0,0.049277
350.0,0.04989
355.0,0.04974
360.0,0.049766
365.0,0.049729
370.0,0.04942
375.0,0.049248
380.0,0.04925
385.0,0.049014
390.0,0.048734
395.0,0.048802
400.0,0.04892
405.0,0.049016
410.0,0.048513
415.0,0.047965
420.0,0.0479
425.0,0.04779
430.0,0.047557
435.0,0.047561
440.0,0.047334
445.0,0.047115
450.0,0.046855
455.0,0.046705
460.0,0.046401
465.0,0.046227
470.0,0.046031
475.0,0.04603
480.0,0.045791
485.0,0.045669
490.0,0.045712
495.0,0.045514
500.0,0.045308
505.0,0.045158
510.0,0.045114
515.0,0.044973
520.0,0.044822
525.0,0.044688
530.0,0.044684
535.0,0.044563
540.0,0.044558
545.0,0.044426
550.0,0.044243
555.0,0.044089
560.0,0.044053
565.0,0.043942
570.0,0.043871
575.0,0.043781
580.0,0.043673
585.0,0.043494
590.0,0.04345
595.0,0.043383
600.0,0.043248
605.0,0.043394
610.0,0.043212
615.0,0.043263
620.0,0.043278
625.0,0.043272
630.0,0.043121
635.0,0.042967
640.0,0.043239
645.0,0.043123
650.0,0.043111
655.0,0.042955
660.0,0.042909
665.0,0.042678
670.0,0.042446
675.0,0.042892
680.0,0.042845
685.0,0.042686
690.0,0.042769
695.0,0.04273
700.0,0.04251
705.0,0.042701
710.0,0.042584
715.0,0.042765
720.0,0.042654
725.0,0.042454
730.0,0.042588
735.0,0.042557
740.0,0.042468
745.0,0.042439
750.0,0.04248
755.0,0.042368
760.0,0.042241
765.0,0.042406
770.0,0.042571
775.0,0.04245
780.0,0.04232
785.0,0.042451
790.0,0.042436
795.0,0.042589
800.0,0.042562
805.0,0.042582
810.0,0.042425
815.0,0.042379
820.0,0.042088
825.0,0.042243
830.0,0.04236
835.0,0.042178
840.0,0.042188
845.0,0.042304
850.0,0.042221
855.0,0.042052
860.0,0.041953
865.0,0.041896
870.0,0.041676
875.0,0.041832
880.0,0.041801
885.0,0.041981
890.0,0.04177
895.0,0.041804
900.0,0.041827
905.0,0.04162
910.0,0.041691
915.0,0.04163
920.0,0.041492
925.0,0.041446
930.0,0.041744
935.0,0.041509
940.0,0.041704
945.0,0.041555
950.0,0.041577
955.0,0.041397
960.0,0.041482
965.0,0.041395
970.0,0.041456
975.0,0.041495
980.0,0.041443
985.0,0.041267
990.0,0.041286
995.0,0.041252
1000.0,0.041263
1005.0,0.041365
1010.0,0.04125
1015.0,0.041247
1020.0,0.041199
1025.0,0.04124
1030.0,0.041304
1035.0,0.041298
1040.0,0.041375
1045.0,0.041308
1050.0,0.041347
1055.0,0.041279
1060.0,0.04121
1065.0,0.041199
1070.0,0.041217
1075.0,0.041137
1080.0,0.041084
1085.0,0.041033
1090.0,0.041101
1095.0,0.040942
1100.0,0.040746
1105.0,0.04087
1110.0,0.040918
1115.0,0.040987
1120.0,0.041093
1125.0,0.040892
1130.0,0.040966
1135.0,0.040887
1140.0,0.041005
1145.0,0.040969
1150.0,0.041147
1155.0,0.041158
1160.0,0.041173
1165.0,0.041216
1170.0,0.041249
1175.0,0.041174
1180.0,0.041185
1185.0,0.041199
1190.0,0.041291
1195.0,0.041342
1200.0,0.04131
1205.0,0.041281
1210.0,0.041399
1215.0,0.041344
1220.0,0.041321
1225.0,0.041299
1230.0,0.041207
1235.0,0.041134
1240.0,0.041079
1245.0,0.041091
1250.0,0.041079
1255.0,0.040865
1260.0,0.040868
1265.0,0.040801
1270.0,0.040855
1275.0,0.040826
1280.0,0.040772
1285.0,0.040707
1290.0,0.040748
1295.0,0.040599
1300.0,0.040708
1305.0,0.040639
1310.0,0.040575
1315.0,0.040658
1320.0,0.0407
1325.0,0.040592
1330.0,0.040623
1335.0,0.040614
1340.0,0.040607
1345.0,0.040632
1350.0,0.040553
1355.0,0.040593
1360.0,0.040444
1365.0,0.040408
1370.0,0.040505
1375.0,0.040712
1380.0,0.040595
1385.0,0.040705
1390.0,0.040655
1395.0,0.040827
1400.0,0.040802
1405.0,0.040805
1410.0,0.040783
1415.0,0.040671
1420.0,0.040688
1425.0,0.040758
1430.0,0.040848
1435.0,0.040748
1440.0,0.040916
1445.0,0.040768
1450.0,0.040668
1455.0,0.040722
1460.0,0.040707
1465.0,0.040674
1470.0,0.040677
1475.0,0.040835
1480.0,0.040877
1485.0,0.040755
1490.0,0.040621
1495.0,0.040704
1500.0,0.040865
1505.0,0.040738
1510.0,0.040742
1515.0,0.040715
1520.0,0.040639
1525.0,0.040752
1530.0,0.040738
1535.0,0.040813
1540.0,0.040745
1545.0,0.040599
1550.0,0.040636
1555.0,0.040641
1560.0,0.04056
1565.0,0.040534
1570.0,0.040627
1575.0,0.040624
1580.0,0.04066
1585.0,0.04084
1590.0,0.040691
1595.0,0.040795
1600.0,0.040905
1605.0,0.040904
1610.0,0.040836
1615.0,0.040777
1620.0,0.040834
1625.0,0.040836
1630.0,0.040815
1635.0,0.040671
1640.0,0.040793
1645.0,0.040696
1650.0,0.040863
1655.0,0.040674
1660.0,0.040772
1665.0,0.040701
1670.0,0.040788
1675.0,0.040787
1680.0,0.040733
1685.0,0.040665
1690.0,0.040673
1695.0,0.040781
1700.0,0.04053
1705.0,0.040767
1710.0,0.04077
1715.0,0.040677
1720.0,0.040638
1725.0,0.040749
1730.0,0.040556
1735.0,0.040494
1740.0,0.040572
1745.0,0.040617
1750.0,0.040462
1755.0,0.040413
1760.0,0.040457
1765.0,0.040379
1770.0,0.040381
1775.0,0.040451
1780.0,0.040425
1785.0,0.040405
1790.0,0.040333
1795.0,0.040362
1800.0,0.04045
1805.0,0.040384
1810.0,0.040337
1815.0,0.040519
1820.0,0.040583
1825.0,0.040557
1830.0,0.04065
1835.0,0.040641
1840.0,0.040595
1845.0,0.04068
1850.0,0.040545
1855.0,0.040509
1860.0,0.040594
1865.0,0.04062
1870.0,0.040685
1875.0,0.040487
1880.0,0.040286
1885.0,0.040467
1890.0,0.040389
1895.0,0.040344
1900.0,0.040475
1905.0,0.040278
1910.0,0.040454
1915.0,0.040223
1920.0,0.040313
1925.0,0.040345
1930.0,0.040419
1935.0,0.040317
1940.0,0.040331
1945.0,0.040274
1950.0,0.040177
1955.0,0.040179
1960.0,0.040357
1965.0,0.040308
1970.0,0.040255
1975.0,0.040353
1980.0,0.040334
1985.0,0.040312
1990.0,0.040279
1995.0,0.040293
2000.0,0.040344
2005.0,0.040308
2010.0,0.040317
2015.0,0.040436
2020.0,0.040353
2025.0,0.040302
2030.0,0.040215
2035.0,0.040222
2040.0,0.040312
2045.0,0.040248
2050.0,0.040287
2055.0,0.040243
2060.0,0.040288
2065.0,0.040296
2070.0,0.040218
2075.0,0.040169
2080.0,0.040133
2085.0,0.040227
2090.0,0.040224
2095.0,0.040292
2100.0,0.040122
2105.0,0.040188
2110.0,0.040153
2115.0,0.040039
2120.0,0.040101
2125.0,0.04014
2130.0,0.039907
2135.0,0.039826
2140.0,0.03982
2145.0,0.03979
2150.0,0.039837
2155.0,0.039888
2160.0,0.039911
2165.0,0.039719
2170.0,0.039864
2175.0,0.040043
2180.0,0.040195
2185.0,0.040183
2190.0,0.040024
2195.0,0.04011
2200.0,0.040195
2205.0,0.040234
2210.0,0.040272
2215.0,0.040316
2220.0,0.040148
2225.0,0.04035
2230.0,0.04038
2235.0,0.040332
2240.0,0.040385
2245.0,0.040153
2250.0,0.040296
2255.0,0.040233
2260.0,0.040229
2265.0,0.040208
2270.0,0.040246
2275.0,0.04026
2280.0,0.04039
2285.0,0.040329
2290.0,0.040317
2295.0,0.040354
2300.0,0.040273
2305.0,0.040192
2310.0,0.040129
2315.0,0.040139
2320.0,0.040092
2325.0,0.040081
2330.0,0.040063
2335.0,0.040141
2340.0,0.040065
2345.0,0.040083
2350.0,0.040092
2355.0,0.04021
2360.0,0.040236
2365.0,0.040244
2370.0,0.040244
2375.0,0.040071
2380.0,0.040257
2385.0,0.040147
2390.0,0.040139
2395.0,0.040113
2400.0,0.040136
2405.0,0.040134
2410.0,0.040122
2415.0,0.040137
2420.0,0.040118
2425.0,0.040136
2430.0,0.040087
2435.0,0.040037
2440.0,0.040065
2445.0,0.040046
2450.0,0.040048
2455.0,0.040061
2460.0,0.04003
2465.0,0.040054
2470.0,0.040164
2475.0,0.040043
2480.0,0.04016
2485.0,0.040131
2490.0,0.04012
2495.0,0.040185
2500.0,0.040247
2505.0,0.040175
2510.0,0.040195
2515.0,0.040292
2520.0,0.040312
2525.0,0.040469
2530.0,0.040566
2535.0,0.040382
2540.0,0.040633
2545.0,0.040328
2550.0,0.040336
2555.0,0.040248
2560.0,0.040355
2565.0,0.040594
2570.0,0.040749
2575.0,0.040694
2580.0,0.04067
2585.0,0.040661
2590.0,0.040721
2595.0,0.040648
2600.0,0.040703
