Database of Origin,University of Winnipeg Spectrophotometer Facility
Sample Description,16.6. Meteorites - Carbonaceous chondrites 16.6.3. Samples from Pierre Hudon (JSC) - April 2004 (b) RELAB + Nicolet merged spectra
Date Added,2018-07-23 23:44:29.026877

Data ID,RLA_MET_27_1        
Sample ID,MET01070
Mineral Name,Carbonaceous Chondrite
Grain Size,<75
Viewing Geometry,30/0/30
Resolution,5/0.3-475
Material Class,CM1

Wavelength
305.0,0.03412
310.0,0.0339
315.0,0.0343
320.0,0.03453
325.0,0.03521
330.0,0.03623
335.0,0.03691
340.0,0.03772
345.0,0.03847
350.0,0.03894
355.0,0.03935
360.0,0.04017
365.0,0.04071
370.0,0.04143
375.0,0.0421
380.0,0.04246
385.0,0.04301
390.0,0.04381
395.0,0.04473
400.0,0.04459
405.0,0.04483
410.0,0.04534
415.0,0.04559
420.0,0.04609
425.0,0.04641
430.0,0.04692
435.0,0.04728
440.0,0.0476
445.0,0.04782
450.0,0.04808
455.0,0.04824
460.0,0.04839
465.0,0.04871
470.0,0.04895
475.0,0.04934
480.0,0.04962
485.0,0.04985
490.0,0.05001
495.0,0.05015
500.0,0.05031
505.0,0.05051
510.0,0.05068
515.0,0.05076
520.0,0.05082
525.0,0.05087
530.0,0.05096
535.0,0.05096
540.0,0.05101
545.0,0.05106
550.0,0.05098
555.0,0.05098
560.0,0.05089
565.0,0.05083
570.0,0.05073
575.0,0.05066
580.0,0.05055
585.0,0.05047
590.0,0.05031
595.0,0.05021
600.0,0.05006
605.0,0.05002
610.0,0.04991
615.0,0.04985
620.0,0.04968
625.0,0.04961
630.0,0.04948
635.0,0.04943
640.0,0.04927
645.0,0.04919
650.0,0.04902
655.0,0.04892
660.0,0.04881
665.0,0.04866
670.0,0.04859
675.0,0.04839
680.0,0.04829
685.0,0.04814
690.0,0.04805
695.0,0.048
700.0,0.04792
705.0,0.04782
710.0,0.04781
715.0,0.04779
720.0,0.04772
725.0,0.04757
730.0,0.04756
735.0,0.04762
740.0,0.04758
745.0,0.04763
750.0,0.04762
755.0,0.04768
760.0,0.04773
765.0,0.04778
770.0,0.04792
775.0,0.04789
780.0,0.04799
785.0,0.04806
790.0,0.04818
795.0,0.04839
800.0,0.04856
805.0,0.04857
810.0,0.04863
815.0,0.04863
820.0,0.04871
825.0,0.04872
830.0,0.04873
835.0,0.04869
840.0,0.04869
845.0,0.04866
850.0,0.04867
855.0,0.04853
860.0,0.04851
865.0,0.04842
870.0,0.04835
875.0,0.04839
880.0,0.04841
885.0,0.04829
890.0,0.04823
895.0,0.04817
900.0,0.04806
905.0,0.04805
910.0,0.04803
915.0,0.04807
920.0,0.04806
925.0,0.04802
930.0,0.04799
935.0,0.04801
940.0,0.04799
945.0,0.04798
950.0,0.04805
955.0,0.04802
960.0,0.04805
965.0,0.04808
970.0,0.04813
975.0,0.04807
980.0,0.04808
985.0,0.0481
990.0,0.04811
995.0,0.04807
1000.0,0.04813
1005.0,0.04818
1010.0,0.04819
1015.0,0.04817
1020.0,0.04819
1025.0,0.0482
1030.0,0.0482
1035.0,0.04815
1040.0,0.04817
1045.0,0.0482
1050.0,0.04816
1055.0,0.04812
1060.0,0.0481
1065.0,0.04802
1070.0,0.04793
1075.0,0.04787
1080.0,0.04781
1085.0,0.04776
1090.0,0.04777
1095.0,0.04778
1100.0,0.04778
1105.0,0.04776
1110.0,0.04776
1115.0,0.04776
1120.0,0.04772
1125.0,0.04768
1130.0,0.04766
1135.0,0.04763
1140.0,0.04766
1145.0,0.04765
1150.0,0.0477
1155.0,0.04773
1160.0,0.04776
1165.0,0.04773
1170.0,0.04777
1175.0,0.04779
1180.0,0.04781
1185.0,0.04783
1190.0,0.04785
1195.0,0.04785
1200.0,0.04792
1205.0,0.04801
1210.0,0.04805
1215.0,0.04812
1220.0,0.04814
1225.0,0.04808
1230.0,0.048
1235.0,0.04795
1240.0,0.04787
1245.0,0.04785
1250.0,0.04784
1255.0,0.04789
1260.0,0.04791
1265.0,0.04794
1270.0,0.04798
1275.0,0.04799
1280.0,0.04795
1285.0,0.048
1290.0,0.04807
1295.0,0.04806
1300.0,0.0481
1305.0,0.04813
1310.0,0.04815
1315.0,0.04816
1320.0,0.04824
1325.0,0.04825
1330.0,0.04828
1335.0,0.0483
1340.0,0.0483
1345.0,0.04822
1350.0,0.04817
1350.7,0.04815
1351.0,0.04815
1351.3,0.04813
1351.7,0.04811
1352.1,0.0481
1352.4,0.04816
1352.8,0.04819
1353.1,0.0482
1353.5,0.04822
1353.8,0.04821
1354.2,0.04817
1354.5,0.04817
1354.9,0.04817
1355.2,0.04818
1355.6,0.0482
1355.9,0.04818
1356.3,0.04814
1356.7,0.04813
1357.0,0.04815
1357.4,0.04819
1357.7,0.04816
1358.1,0.04815
1358.4,0.04819
1358.8,0.04823
1359.2,0.0482
1359.5,0.04817
1359.9,0.0482
1360.2,0.04822
1360.6,0.0482
1360.9,0.04818
1361.3,0.04813
1361.7,0.04811
1362.0,0.04815
1362.4,0.04816
1362.7,0.04822
1363.1,0.04824
1363.4,0.0482
1363.8,0.0482
1364.2,0.04816
1364.5,0.04815
1364.9,0.04819
1365.2,0.04823
1365.6,0.04823
1365.9,0.0482
1366.3,0.04821
1366.7,0.04824
1367.0,0.04824
1367.4,0.04826
1367.8,0.04824
1368.1,0.0482
1368.5,0.04818
1368.8,0.0482
1369.2,0.04824
1369.6,0.04824
1369.9,0.04824
1370.3,0.04825
1370.7,0.04827
1371.0,0.04826
1371.4,0.04819
1371.7,0.0482
1372.1,0.04823
1372.5,0.04826
1372.8,0.04825
1373.2,0.04825
1373.6,0.04822
1373.9,0.0482
1374.3,0.04823
1374.6,0.04827
1375.0,0.04827
1375.4,0.04827
1375.7,0.04829
1376.1,0.04826
1376.5,0.04828
1376.8,0.04827
1377.2,0.04824
1377.6,0.04824
1377.9,0.04826
1378.3,0.04826
1378.7,0.04826
1379.0,0.04828
1379.4,0.04825
1379.8,0.04824
1380.1,0.04827
1380.5,0.04828
1380.9,0.04825
1381.2,0.04821
1381.6,0.04823
1382.0,0.04825
1382.3,0.04824
1382.7,0.04823
1383.1,0.04821
1383.4,0.04822
1383.8,0.04824
1384.2,0.04823
1384.6,0.04822
1384.9,0.04824
1385.3,0.0482
1385.7,0.04816
1386.0,0.04818
1386.4,0.04816
1386.8,0.04813
1387.2,0.04817
1387.5,0.04822
1387.9,0.04824
1388.3,0.04822
1388.6,0.04817
1389.0,0.04815
1389.4,0.04815
1389.8,0.04817
1390.1,0.04818
1390.5,0.04817
1390.9,0.04817
1391.2,0.04817
1391.6,0.04817
1392.0,0.04817
1392.4,0.04816
1392.7,0.04818
1393.1,0.04825
1393.5,0.04824
1393.9,0.04819
1394.2,0.04818
1394.6,0.04817
1395.0,0.04818
1395.4,0.0482
1395.7,0.04819
1396.1,0.04822
1396.5,0.04822
1396.9,0.04821
1397.2,0.04818
1397.6,0.04817
1398.0,0.0482
1398.4,0.04825
1398.8,0.04826
1399.1,0.04823
1399.5,0.04822
1399.9,0.04823
1400.3,0.0482
1400.6,0.0482
1401.0,0.04822
1401.4,0.04821
1401.8,0.04822
1402.2,0.0482
1402.5,0.04819
1402.9,0.0482
1403.3,0.0482
1403.7,0.04819
1404.1,0.04819
1404.4,0.04819
1404.8,0.04822
1405.2,0.04825
1405.6,0.04824
1406.0,0.04826
1406.3,0.04826
1406.7,0.04825
1407.1,0.04828
1407.5,0.04829
1407.9,0.04831
1408.3,0.0483
1408.6,0.04824
1409.0,0.04824
1409.4,0.04829
1409.8,0.04831
1410.2,0.04828
1410.6,0.04827
1410.9,0.04828
1411.3,0.04829
1411.7,0.04828
1412.1,0.04828
1412.5,0.04826
1412.8,0.04827
1413.2,0.0483
1413.6,0.04833
1414.0,0.04831
1414.4,0.04829
1414.8,0.0483
1415.2,0.04829
1415.6,0.04827
1415.9,0.04826
1416.3,0.04826
1416.7,0.04826
1417.1,0.04829
1417.5,0.04831
1417.9,0.0483
1418.3,0.04827
1418.7,0.04824
1419.0,0.04828
1419.4,0.04832
1419.8,0.04835
1420.2,0.04837
1420.6,0.04837
1421.0,0.04835
1421.4,0.04839
1421.8,0.04839
1422.2,0.04838
1422.5,0.04838
1422.9,0.04838
1423.3,0.04837
1423.7,0.04836
1424.1,0.04835
1424.5,0.04833
1424.9,0.04833
1425.3,0.04832
1425.7,0.04833
1426.1,0.04838
1426.5,0.04838
1426.8,0.04837
1427.2,0.04838
1427.6,0.04838
1428.0,0.04834
1428.4,0.04833
1428.8,0.04837
1429.2,0.04842
1429.6,0.04838
1430.0,0.04837
1430.4,0.04834
1430.8,0.04834
1431.2,0.04838
1431.6,0.04839
1432.0,0.04836
1432.4,0.04833
1432.8,0.04834
1433.2,0.04836
1433.6,0.04842
1433.9,0.04843
1434.3,0.04836
1434.8,0.04836
1435.1,0.04838
1435.5,0.04839
1435.9,0.04844
1436.3,0.04845
1436.7,0.04842
1437.1,0.04839
1437.5,0.04837
1437.9,0.04839
1438.3,0.04842
1438.7,0.04842
1439.1,0.04843
1439.5,0.04842
1439.9,0.04843
1440.3,0.04844
1440.7,0.04845
1441.1,0.04845
1441.5,0.04844
1441.9,0.0484
1442.3,0.04837
1442.7,0.04839
1443.1,0.04843
1443.5,0.04842
1443.9,0.0484
1444.3,0.04841
1444.7,0.04842
1445.1,0.04844
1445.6,0.04842
1445.9,0.04842
1446.3,0.04843
1446.8,0.04844
1447.2,0.04846
1447.6,0.04846
1448.0,0.04847
1448.4,0.04849
1448.8,0.04847
1449.2,0.04845
1449.6,0.04843
1450.0,0.04841
1450.4,0.04844
1450.8,0.04848
1451.2,0.04848
1451.6,0.04848
1452.0,0.0485
1452.4,0.0485
1452.8,0.04844
1453.2,0.04844
1453.7,0.04846
1454.1,0.04848
1454.5,0.04845
1454.9,0.04845
1455.3,0.04849
1455.7,0.04848
1456.1,0.04845
1456.5,0.04844
1456.9,0.04847
1457.3,0.04849
1457.7,0.04848
1458.2,0.04848
1458.6,0.04847
1459.0,0.04845
1459.4,0.04848
1459.8,0.04851
1460.2,0.04852
1460.6,0.04848
1461.0,0.04847
1461.4,0.04852
1461.8,0.04855
1462.3,0.04854
1462.7,0.04849
1463.1,0.0485
1463.5,0.04854
1463.9,0.04854
1464.3,0.04852
1464.7,0.04851
1465.2,0.04848
1465.6,0.04846
1466.0,0.04849
1466.4,0.04853
1466.8,0.04852
1467.2,0.04851
1467.6,0.04851
1468.1,0.04852
1468.5,0.04853
1468.9,0.04853
1469.3,0.04852
1469.7,0.0485
1470.1,0.04848
1470.6,0.04853
1471.0,0.04854
1471.4,0.04852
1471.8,0.04851
1472.2,0.04849
1472.6,0.04851
1473.1,0.04855
1473.5,0.04855
1473.9,0.04856
1474.3,0.04856
1474.7,0.04858
1475.2,0.04859
1475.6,0.04856
1476.0,0.04851
1476.4,0.0485
1476.8,0.0485
1477.3,0.04852
1477.7,0.04854
1478.1,0.04852
1478.5,0.04854
1478.9,0.04854
1479.4,0.04854
1479.8,0.04858
1480.2,0.04859
1480.6,0.04858
1481.1,0.04858
1481.5,0.04857
1481.9,0.04853
1482.3,0.04853
1482.8,0.04853
1483.2,0.04854
1483.6,0.04857
1484.0,0.04858
1484.4,0.04856
1484.9,0.04855
1485.3,0.04856
1485.7,0.0486
1486.2,0.04861
1486.6,0.04861
1487.0,0.04856
1487.4,0.04854
1487.9,0.04855
1488.3,0.04857
1488.7,0.04859
1489.1,0.04861
1489.6,0.0486
1490.0,0.04859
1490.4,0.04858
1490.8,0.04857
1491.3,0.04855
1491.7,0.04854
1492.1,0.04854
1492.6,0.04857
1493.0,0.04859
1493.4,0.04858
1493.9,0.04857
1494.3,0.04858
1494.7,0.04861
1495.2,0.04864
1495.6,0.04863
1496.0,0.04861
1496.4,0.0486
1496.9,0.04861
1497.3,0.04861
1497.7,0.04862
1498.2,0.04862
1498.6,0.0486
1499.0,0.0486
1499.5,0.04862
1499.9,0.04865
1500.3,0.04866
1500.8,0.04862
1501.2,0.04863
1501.7,0.04861
1502.1,0.04861
1502.5,0.04859
1502.9,0.04861
1503.4,0.04863
1503.8,0.04862
1504.3,0.0486
1504.7,0.04858
1505.1,0.0486
1505.6,0.04864
1506.0,0.04864
1506.4,0.04862
1506.9,0.0486
1507.3,0.04859
1507.8,0.04861
1508.2,0.04862
1508.6,0.04861
1509.1,0.04862
1509.5,0.04862
1510.0,0.04856
1510.4,0.04855
1510.8,0.04863
1511.3,0.04866
1511.7,0.04863
1512.2,0.04859
1512.6,0.04862
1513.0,0.04864
1513.5,0.04864
1513.9,0.0486
1514.4,0.04862
1514.8,0.04865
1515.3,0.04865
1515.7,0.04867
1516.1,0.04868
1516.6,0.04865
1517.0,0.04865
1517.5,0.04866
1517.9,0.04868
1518.4,0.04866
1518.8,0.04867
1519.3,0.04865
1519.7,0.0486
1520.1,0.04861
1520.6,0.04865
1521.0,0.04866
1521.5,0.04866
1521.9,0.04865
1522.4,0.04863
1522.8,0.04864
1523.3,0.04865
1523.7,0.04865
1524.2,0.04862
1524.6,0.04864
1525.1,0.04869
1525.5,0.0487
1525.9,0.04868
1526.4,0.04869
1526.8,0.04867
1527.3,0.04865
1527.8,0.04865
1528.2,0.04868
1528.7,0.04868
1529.1,0.04868
1529.6,0.0487
1530.0,0.04871
1530.5,0.04869
1530.9,0.04868
1531.4,0.04866
1531.8,0.04868
1532.3,0.04868
1532.7,0.04867
1533.2,0.04868
1533.6,0.0487
1534.1,0.04869
1534.5,0.04865
1535.0,0.04868
1535.4,0.04871
1535.9,0.04871
1536.3,0.04869
1536.8,0.04869
1537.3,0.04871
1537.7,0.04871
1538.2,0.04873
1538.6,0.04875
1539.1,0.0487
1539.6,0.04867
1540.0,0.04868
1540.5,0.04869
1540.9,0.04871
1541.4,0.04873
1541.8,0.04873
1542.3,0.04871
1542.8,0.04867
1543.2,0.04867
1543.7,0.0487
1544.1,0.0487
1544.6,0.04872
1545.1,0.0487
1545.5,0.04867
1546.0,0.04869
1546.4,0.04871
1546.9,0.04872
1547.4,0.0487
1547.8,0.04869
1548.3,0.0487
1548.8,0.04872
1549.2,0.0487
1549.7,0.04869
1550.1,0.0487
1550.6,0.04872
1551.1,0.04871
1551.5,0.04871
1552.0,0.04874
1552.4,0.04876
1552.9,0.04875
1553.4,0.04871
1553.8,0.04869
1554.3,0.04872
1554.8,0.04874
1555.3,0.04873
1555.7,0.0487
1556.2,0.04865
1556.7,0.04865
1557.1,0.04869
1557.6,0.04872
1558.1,0.0487
1558.5,0.04869
1559.0,0.04871
1559.5,0.04873
1559.9,0.04871
1560.4,0.04868
1560.9,0.04866
1561.3,0.04868
1561.8,0.04871
1562.3,0.04873
1562.8,0.04873
1563.2,0.04871
1563.7,0.04872
1564.2,0.04871
1564.6,0.04872
1565.1,0.04872
1565.6,0.04874
1566.1,0.04874
1566.5,0.04874
1567.0,0.04872
1567.5,0.04871
1567.9,0.0487
1568.4,0.04873
1568.9,0.04874
1569.4,0.04872
1569.8,0.04875
1570.3,0.04877
1570.8,0.04877
1571.3,0.04876
1571.8,0.04874
1572.2,0.04876
1572.7,0.04876
1573.2,0.04873
1573.7,0.04872
1574.1,0.04874
1574.6,0.04874
1575.1,0.04874
1575.6,0.04875
1576.1,0.04873
1576.5,0.04871
1577.0,0.04872
1577.5,0.04874
1578.0,0.04877
1578.4,0.04879
1578.9,0.04877
1579.4,0.04877
1579.9,0.04875
1580.4,0.04873
1580.9,0.04874
1581.3,0.04876
1581.8,0.04875
1582.3,0.04874
1582.8,0.04874
1583.3,0.04875
1583.8,0.04875
1584.2,0.04873
1584.7,0.04875
1585.2,0.04875
1585.7,0.04875
1586.2,0.04875
1586.7,0.04875
1587.2,0.04874
1587.6,0.04876
1588.1,0.04875
1588.6,0.04873
1589.1,0.04876
1589.6,0.0488
1590.1,0.04879
1590.6,0.04877
1591.0,0.04874
1591.5,0.04873
1592.0,0.04875
1592.5,0.04875
1593.0,0.04877
1593.5,0.04877
1594.0,0.04873
1594.5,0.04871
1595.0,0.04871
1595.4,0.04875
1595.9,0.0488
1596.4,0.0488
1596.9,0.04878
1597.4,0.04877
1597.9,0.04876
1598.4,0.04873
1598.9,0.04872
1599.4,0.04875
1599.9,0.04878
1600.4,0.04878
1600.9,0.04876
1601.4,0.04876
1601.9,0.04877
1602.3,0.04879
1602.8,0.0488
1603.3,0.04878
1603.8,0.04876
1604.3,0.04876
1604.8,0.04879
1605.3,0.04881
1605.8,0.04879
1606.3,0.04875
1606.8,0.04876
1607.3,0.04878
1607.8,0.04878
1608.3,0.04877
1608.8,0.04874
1609.3,0.04875
1609.8,0.04877
1610.3,0.04877
1610.8,0.04878
1611.3,0.04877
1611.8,0.04877
1612.3,0.0488
1612.8,0.0488
1613.3,0.04878
1613.8,0.04879
1614.3,0.04879
1614.8,0.04878
1615.3,0.04877
1615.8,0.04878
1616.3,0.0488
1616.8,0.04879
1617.3,0.04879
1617.8,0.04876
1618.4,0.04875
1618.9,0.04878
1619.4,0.04877
1619.9,0.0488
1620.4,0.04881
1620.9,0.04878
1621.4,0.04879
1621.9,0.04881
1622.4,0.0488
1622.9,0.04879
1623.4,0.0488
1623.9,0.0488
1624.4,0.04883
1624.9,0.04883
1625.5,0.04883
1626.0,0.04883
1626.5,0.0488
1627.0,0.0488
1627.5,0.04881
1628.0,0.04879
1628.5,0.04879
1629.0,0.0488
1629.6,0.0488
1630.1,0.04881
1630.6,0.04882
1631.1,0.0488
1631.6,0.0488
1632.1,0.04881
1632.6,0.04881
1633.1,0.0488
1633.7,0.04878
1634.2,0.0488
1634.7,0.04879
1635.2,0.04881
1635.7,0.04883
1636.2,0.04881
1636.8,0.04881
1637.3,0.04881
1637.8,0.0488
1638.3,0.0488
1638.8,0.04878
1639.3,0.04876
1639.8,0.04878
1640.4,0.0488
1640.9,0.0488
1641.4,0.04882
1641.9,0.04883
1642.4,0.04881
1643.0,0.04882
1643.5,0.04881
1644.0,0.04877
1644.5,0.04878
1645.1,0.04879
1645.6,0.04882
1646.1,0.04882
1646.6,0.04881
1647.2,0.0488
1647.7,0.04879
1648.2,0.0488
1648.7,0.04883
1649.2,0.04882
1649.8,0.04881
1650.3,0.04881
1650.8,0.0488
1651.3,0.04883
1651.9,0.04885
1652.4,0.04884
1652.9,0.04881
1653.4,0.0488
1654.0,0.0488
1654.5,0.04885
1655.0,0.04888
1655.6,0.04888
1656.1,0.04886
1656.6,0.04884
1657.2,0.04883
1657.7,0.04882
1658.2,0.04882
1658.7,0.04884
1659.3,0.04882
1659.8,0.0488
1660.3,0.04882
1660.9,0.04882
1661.4,0.04882
1661.9,0.04883
1662.5,0.04885
1663.0,0.04882
1663.5,0.04879
1664.1,0.04881
1664.6,0.04882
1665.1,0.04882
1665.7,0.04881
1666.2,0.04884
1666.7,0.04883
1667.3,0.0488
1667.8,0.04879
1668.3,0.04878
1668.9,0.04881
1669.4,0.04886
1670.0,0.04888
1670.5,0.04885
1671.0,0.04886
1671.6,0.04889
1672.1,0.04888
1672.7,0.04885
1673.2,0.04882
1673.7,0.04882
1674.3,0.04885
1674.8,0.04882
1675.4,0.04882
1675.9,0.04885
1676.4,0.04885
1677.0,0.04884
1677.5,0.04884
1678.1,0.04883
1678.6,0.04883
1679.2,0.04882
1679.7,0.04883
1680.2,0.04883
1680.8,0.04884
1681.3,0.04885
1681.9,0.04883
1682.4,0.04883
1683.0,0.04884
1683.5,0.04885
1684.1,0.04886
1684.6,0.04885
1685.2,0.04885
1685.7,0.04887
1686.3,0.04885
1686.8,0.04884
1687.3,0.04885
1687.9,0.04886
1688.4,0.04887
1689.0,0.04886
1689.6,0.04886
1690.1,0.04885
1690.7,0.04882
1691.2,0.04879
1691.8,0.04881
1692.3,0.04884
1692.9,0.04885
1693.4,0.04883
1694.0,0.04881
1694.5,0.04883
1695.1,0.04886
1695.6,0.04889
1696.2,0.04888
1696.7,0.04887
1697.3,0.04887
1697.8,0.04887
1698.4,0.04887
1699.0,0.04884
1699.5,0.04884
1700.1,0.04886
1700.6,0.04885
1701.2,0.04884
1701.8,0.04885
1702.3,0.04887
1702.9,0.04886
1703.4,0.04885
1704.0,0.04882
1704.6,0.04883
1705.1,0.04885
1705.7,0.04886
1706.2,0.04884
1706.8,0.04885
1707.4,0.04888
1707.9,0.04888
1708.5,0.04888
1709.0,0.04886
1709.6,0.04886
1710.2,0.04886
1710.7,0.04885
1711.3,0.04883
1711.9,0.04882
1712.4,0.04884
1713.0,0.04884
1713.6,0.04884
1714.1,0.04885
1714.7,0.04886
1715.3,0.04886
1715.8,0.04886
1716.4,0.04886
1717.0,0.04884
1717.5,0.04882
1718.1,0.04881
1718.7,0.04884
1719.2,0.04887
1719.8,0.04887
1720.4,0.04885
1721.0,0.04884
1721.5,0.04883
1722.1,0.04884
1722.7,0.04886
1723.2,0.04886
1723.8,0.04886
1724.4,0.04887
1725.0,0.04884
1725.5,0.04884
1726.1,0.04887
1726.7,0.04888
1727.3,0.04887
1727.8,0.04888
1728.4,0.04887
1729.0,0.04886
1729.6,0.04886
1730.1,0.04885
1730.7,0.04885
1731.3,0.04887
1731.9,0.04888
1732.5,0.04888
1733.0,0.04887
1733.6,0.04886
1734.2,0.04885
1734.8,0.04885
1735.4,0.04886
1735.9,0.04886
1736.5,0.04883
1737.1,0.04885
1737.7,0.04886
1738.3,0.04887
1738.8,0.04888
1739.4,0.04889
1740.0,0.04888
1740.6,0.04883
1741.2,0.04881
1741.8,0.04882
1742.3,0.04882
1742.9,0.04885
1743.5,0.04886
1744.1,0.04882
1744.7,0.04884
1745.3,0.04888
1745.9,0.04887
1746.5,0.04887
1747.1,0.0489
1747.6,0.0489
1748.2,0.04887
1748.8,0.04885
1749.4,0.04887
1750.0,0.0489
1750.6,0.04885
1751.2,0.04884
1751.8,0.04886
1752.4,0.04888
1753.0,0.0489
1753.6,0.04891
1754.1,0.0489
1754.7,0.0489
1755.3,0.04889
1755.9,0.04888
1756.5,0.04886
1757.1,0.04885
1757.7,0.04887
1758.3,0.0489
1758.9,0.04889
1759.5,0.04888
1760.1,0.04888
1760.7,0.0489
1761.3,0.04889
1761.9,0.04888
1762.5,0.04889
1763.1,0.04887
1763.7,0.04884
1764.3,0.04884
1764.9,0.04884
1765.5,0.04888
1766.1,0.0489
1766.7,0.04886
1767.3,0.04886
1767.9,0.04889
1768.5,0.04889
1769.1,0.04889
1769.7,0.04891
1770.3,0.04891
1770.9,0.04888
1771.5,0.04886
1772.1,0.04887
1772.7,0.04889
1773.3,0.04887
1773.9,0.04886
1774.6,0.04888
1775.2,0.0489
1775.8,0.04889
1776.4,0.04889
1777.0,0.04889
1777.6,0.04886
1778.2,0.04885
1778.8,0.04889
1779.4,0.0489
1780.0,0.0489
1780.7,0.0489
1781.3,0.04886
1781.9,0.04886
1782.5,0.04889
1783.1,0.0489
1783.7,0.0489
1784.3,0.04889
1784.9,0.04887
1785.6,0.04888
1786.2,0.0489
1786.8,0.04891
1787.4,0.0489
1788.0,0.04891
1788.6,0.04892
1789.3,0.0489
1789.9,0.04887
1790.5,0.04888
1791.1,0.04891
1791.7,0.04891
1792.3,0.0489
1793.0,0.04891
1793.6,0.04892
1794.2,0.04892
1794.8,0.04891
1795.4,0.04889
1796.1,0.04888
1796.7,0.04889
1797.3,0.0489
1797.9,0.04891
1798.6,0.04891
1799.2,0.0489
1799.8,0.0489
1800.4,0.0489
1801.1,0.04891
1801.7,0.04892
1802.3,0.0489
1802.9,0.04887
1803.6,0.04885
1804.2,0.04886
1804.8,0.04889
1805.4,0.0489
1806.1,0.04888
1806.7,0.04887
1807.3,0.04887
1808.0,0.04889
1808.6,0.0489
1809.2,0.0489
1809.9,0.04889
1810.5,0.04888
1811.1,0.04889
1811.8,0.04893
1812.4,0.04893
1813.0,0.04891
1813.7,0.0489
1814.3,0.04888
1814.9,0.04887
1815.6,0.04888
1816.2,0.0489
1816.8,0.04889
1817.5,0.04888
1818.1,0.04889
1818.8,0.04889
1819.4,0.0489
1820.0,0.04893
1820.7,0.04891
1821.3,0.04891
1821.9,0.0489
1822.6,0.04892
1823.2,0.04898
1823.9,0.04896
1824.5,0.04893
1825.2,0.04892
1825.8,0.04891
1826.4,0.0489
1827.1,0.0489
1827.7,0.04888
1828.4,0.04889
1829.0,0.04891
1829.7,0.04891
1830.3,0.04889
1831.0,0.04889
1831.6,0.0489
1832.3,0.04891
1832.9,0.04892
1833.6,0.04891
1834.2,0.0489
1834.8,0.04891
1835.5,0.04892
1836.1,0.04892
1836.8,0.04891
1837.4,0.04891
1838.1,0.04892
1838.8,0.04891
1839.4,0.04891
1840.1,0.04893
1840.7,0.04892
1841.4,0.04891
1842.0,0.0489
1842.7,0.04889
1843.3,0.04891
1844.0,0.04893
1844.6,0.04892
1845.3,0.04894
1845.9,0.04895
1846.6,0.04893
1847.3,0.04891
1847.9,0.04891
1848.6,0.0489
1849.2,0.04889
1849.9,0.0489
1850.6,0.04893
1851.2,0.04891
1851.9,0.04891
1852.6,0.04894
1853.2,0.04893
1853.9,0.04893
1854.5,0.04892
1855.2,0.04892
1855.9,0.04892
1856.5,0.04891
1857.2,0.04889
1857.9,0.04888
1858.5,0.04889
1859.2,0.04888
1859.9,0.0489
1860.5,0.04891
1861.2,0.0489
1861.9,0.04893
1862.5,0.04894
1863.2,0.04894
1863.9,0.04892
1864.5,0.04892
1865.2,0.04893
1865.9,0.04893
1866.6,0.04892
1867.2,0.04893
1867.9,0.04893
1868.6,0.04893
1869.2,0.04895
1869.9,0.04895
1870.6,0.04892
1871.3,0.0489
1871.9,0.04893
1872.6,0.04895
1873.3,0.04891
1874.0,0.0489
1874.7,0.04891
1875.3,0.0489
1876.0,0.04891
1876.7,0.04894
1877.4,0.04896
1878.0,0.04894
1878.7,0.04893
1879.4,0.04894
1880.1,0.04894
1880.8,0.04895
1881.4,0.04895
1882.1,0.04893
1882.8,0.04893
1883.5,0.04893
1884.2,0.04893
1884.9,0.04894
1885.6,0.04895
1886.2,0.04893
1886.9,0.04892
1887.6,0.0489
1888.3,0.04891
1889.0,0.04893
1889.7,0.04892
1890.4,0.04891
1891.1,0.04893
1891.8,0.04891
1892.4,0.04889
1893.1,0.0489
1893.8,0.04892
1894.5,0.04892
1895.2,0.0489
1895.9,0.04889
1896.6,0.04889
1897.3,0.04889
1898.0,0.04889
1898.7,0.04889
1899.4,0.04892
1900.1,0.04894
1900.8,0.04893
1901.5,0.04891
1902.2,0.04888
1902.9,0.04889
1903.6,0.04891
1904.3,0.04891
1905.0,0.0489
1905.7,0.04889
1906.4,0.04888
1907.1,0.0489
1907.8,0.04891
1908.5,0.04891
1909.2,0.04889
1909.9,0.04889
1910.6,0.04888
1911.3,0.04888
1912.0,0.04889
1912.7,0.04891
1913.4,0.04893
1914.1,0.04888
1914.8,0.04883
1915.5,0.04884
1916.2,0.04889
1916.9,0.0489
1917.6,0.04886
1918.3,0.04886
1919.1,0.04885
1919.8,0.04883
1920.5,0.04881
1921.2,0.04883
1921.9,0.04884
1922.6,0.04884
1923.3,0.04883
1924.0,0.04883
1924.8,0.04884
1925.5,0.04888
1926.2,0.04886
1926.9,0.04884
1927.6,0.04885
1928.3,0.04883
1929.1,0.04882
1929.8,0.04884
1930.5,0.04884
1931.2,0.04885
1931.9,0.04887
1932.7,0.04885
1933.4,0.04884
1934.1,0.04884
1934.8,0.04882
1935.5,0.04881
1936.3,0.04882
1937.0,0.04882
1937.7,0.04884
1938.4,0.04885
1939.2,0.04883
1939.9,0.04881
1940.6,0.04884
1941.3,0.04885
1942.1,0.04885
1942.8,0.04883
1943.5,0.0488
1944.2,0.0488
1945.0,0.04881
1945.7,0.04882
1946.4,0.04884
1947.2,0.04884
1947.9,0.04883
1948.6,0.04883
1949.4,0.04884
1950.1,0.04883
1950.8,0.04883
1951.6,0.04883
1952.3,0.04883
1953.0,0.04885
1953.8,0.04885
1954.5,0.04886
1955.2,0.04889
1956.0,0.04887
1956.7,0.04886
1957.5,0.04885
1958.2,0.04885
1958.9,0.04887
1959.7,0.04887
1960.4,0.04886
1961.2,0.04884
1961.9,0.04884
1962.6,0.04886
1963.4,0.04888
1964.1,0.04888
1964.9,0.04888
1965.6,0.04886
1966.4,0.04885
1967.1,0.04887
1967.9,0.04888
1968.6,0.04889
1969.3,0.04887
1970.1,0.04886
1970.8,0.04887
1971.6,0.04885
1972.3,0.04886
1973.1,0.04886
1973.8,0.04886
1974.6,0.04888
1975.3,0.04889
1976.1,0.04889
1976.9,0.04889
1977.6,0.04888
1978.4,0.04888
1979.1,0.04888
1979.9,0.04888
1980.6,0.0489
1981.4,0.04891
1982.2,0.04889
1982.9,0.04888
1983.7,0.04889
1984.4,0.04889
1985.2,0.04888
1985.9,0.04888
1986.7,0.04889
1987.5,0.04887
1988.2,0.04888
1989.0,0.04888
1989.8,0.04885
1990.5,0.04887
1991.3,0.04888
1992.1,0.04887
1992.8,0.04887
1993.6,0.0489
1994.3,0.04892
1995.1,0.04891
1995.9,0.04888
1996.7,0.04886
1997.4,0.04889
1998.2,0.04892
1999.0,0.04891
1999.7,0.0489
2000.5,0.0489
2001.3,0.04891
2002.1,0.0489
2002.8,0.04889
2003.6,0.0489
2004.4,0.04889
2005.2,0.04889
2005.9,0.04891
2006.7,0.04891
2007.5,0.04891
2008.3,0.04891
2009.0,0.04892
2009.8,0.04894
2010.6,0.04892
2011.4,0.04891
2012.2,0.04892
2012.9,0.04894
2013.7,0.04892
2014.5,0.04889
2015.3,0.04892
2016.1,0.04893
2016.8,0.04894
2017.6,0.04895
2018.4,0.04893
2019.2,0.04891
2020.0,0.04891
2020.8,0.04892
2021.6,0.04893
2022.3,0.04893
2023.1,0.04892
2023.9,0.04892
2024.7,0.04894
2025.5,0.04892
2026.3,0.0489
2027.1,0.04892
2027.9,0.04893
2028.7,0.04894
2029.5,0.04896
2030.3,0.04897
2031.1,0.04894
2031.9,0.04892
2032.7,0.04891
2033.5,0.04891
2034.3,0.04891
2035.1,0.04892
2035.8,0.04893
2036.7,0.04893
2037.4,0.04894
2038.3,0.04895
2039.1,0.04895
2039.9,0.04896
2040.7,0.04895
2041.5,0.04896
2042.3,0.04897
2043.1,0.04895
2043.9,0.04894
2044.7,0.04895
2045.5,0.04895
2046.3,0.04896
2047.1,0.04897
2047.9,0.04896
2048.7,0.04895
2049.5,0.04897
2050.4,0.04897
2051.2,0.04897
2052.0,0.04895
2052.8,0.04893
2053.6,0.04892
2054.4,0.04895
2055.2,0.04899
2056.0,0.04898
2056.9,0.04896
2057.7,0.04896
2058.5,0.04897
2059.3,0.04898
2060.1,0.04898
2060.9,0.04897
2061.8,0.04899
2062.6,0.04899
2063.4,0.04897
2064.2,0.04897
2065.1,0.04898
2065.9,0.04899
2066.7,0.04899
2067.5,0.049
2068.3,0.04899
2069.2,0.04898
2070.0,0.04899
2070.8,0.04898
2071.6,0.04895
2072.5,0.04896
2073.3,0.049
2074.1,0.049
2075.0,0.04898
2075.8,0.049
2076.6,0.04901
2077.5,0.04901
2078.3,0.04901
2079.1,0.04902
2080.0,0.04902
2080.8,0.04902
2081.6,0.04901
2082.5,0.04901
2083.3,0.04902
2084.1,0.049
2085.0,0.04899
2085.8,0.049
2086.6,0.04901
2087.5,0.04901
2088.3,0.049
2089.2,0.04898
2090.0,0.04895
2090.9,0.04895
2091.7,0.04899
2092.6,0.04899
2093.4,0.04898
2094.2,0.04897
2095.1,0.04897
2095.9,0.04897
2096.8,0.04898
2097.6,0.049
2098.5,0.04901
2099.3,0.049
2100.2,0.04899
2101.0,0.04898
2101.9,0.04896
2102.7,0.04895
2103.6,0.04896
2104.4,0.04897
2105.3,0.04897
2106.1,0.04895
2107.0,0.04896
2107.9,0.04897
2108.7,0.04896
2109.6,0.04897
2110.4,0.04898
2111.3,0.04897
2112.1,0.04899
2113.0,0.049
2113.9,0.04901
2114.7,0.04902
2115.6,0.049
2116.5,0.04899
2117.3,0.04897
2118.2,0.04896
2119.1,0.04897
2119.9,0.04896
2120.8,0.04897
2121.7,0.04899
2122.5,0.04897
2123.4,0.04896
2124.3,0.04896
2125.1,0.04894
2126.0,0.04895
2126.9,0.04893
2127.8,0.04893
2128.6,0.04899
2129.5,0.04898
2130.4,0.04898
2131.3,0.049
2132.1,0.04901
2133.0,0.04901
2133.9,0.04901
2134.8,0.049
2135.6,0.04897
2136.5,0.04895
2137.4,0.04898
2138.3,0.04899
2139.2,0.04899
2140.1,0.04896
2140.9,0.04896
2141.8,0.04896
2142.7,0.04896
2143.6,0.04898
2144.5,0.04896
2145.4,0.04895
2146.3,0.04897
2147.1,0.04899
2148.0,0.04903
2148.9,0.04905
2149.8,0.04904
2150.7,0.049
2151.6,0.04898
2152.5,0.04896
2153.4,0.04892
2154.3,0.04894
2155.2,0.04898
2156.1,0.04899
2157.0,0.04897
2157.9,0.04895
2158.8,0.04898
2159.7,0.04899
2160.6,0.04899
2161.5,0.049
2162.4,0.04902
2163.3,0.04904
2164.2,0.04899
2165.1,0.04897
2166.0,0.04898
2166.9,0.04896
2167.8,0.04897
2168.7,0.04899
2169.6,0.049
2170.5,0.049
2171.4,0.04901
2172.3,0.04898
2173.2,0.04895
2174.1,0.04896
2175.1,0.049
2176.0,0.04901
2176.9,0.049
2177.8,0.04897
2178.7,0.04897
2179.6,0.04897
2180.6,0.04896
2181.5,0.04899
2182.4,0.049
2183.3,0.04898
2184.2,0.04899
2185.1,0.04898
2186.1,0.04897
2187.0,0.04895
2187.9,0.04896
2188.8,0.04898
2189.8,0.04898
2190.7,0.04896
2191.6,0.04899
2192.5,0.04899
2193.5,0.04897
2194.4,0.04897
2195.3,0.04897
2196.3,0.04898
2197.2,0.04895
2198.1,0.04898
2199.1,0.049
2200.0,0.049
2200.9,0.04897
2201.9,0.04896
2202.8,0.04895
2203.7,0.04893
2204.7,0.04895
2205.6,0.04897
2206.5,0.04897
2207.5,0.04897
2208.4,0.04896
2209.4,0.04895
2210.3,0.04895
2211.2,0.04896
2212.2,0.04896
2213.1,0.04895
2214.1,0.04895
2215.0,0.04895
2216.0,0.04894
2216.9,0.04896
2217.9,0.04898
2218.8,0.04896
2219.8,0.04895
2220.7,0.04897
2221.7,0.04896
2222.6,0.04894
2223.6,0.04891
2224.5,0.04892
2225.5,0.04895
2226.4,0.04895
2227.4,0.04891
2228.4,0.04891
2229.3,0.04892
2230.3,0.04893
2231.2,0.04894
2232.2,0.04895
2233.1,0.04896
2234.1,0.04893
2235.1,0.04891
2236.0,0.04891
2237.0,0.0489
2238.0,0.04891
2238.9,0.04892
2239.9,0.04892
2240.9,0.04891
2241.8,0.04892
2242.8,0.0489
2243.8,0.0489
2244.8,0.04889
2245.7,0.04889
2246.7,0.04889
2247.7,0.0489
2248.6,0.04892
2249.6,0.04892
2250.6,0.04888
2251.6,0.04886
2252.6,0.04885
2253.5,0.04884
2254.5,0.04884
2255.5,0.04884
2256.5,0.04884
2257.5,0.04887
2258.4,0.04888
2259.4,0.04886
2260.4,0.04886
2261.4,0.04887
2262.4,0.04886
2263.4,0.04885
2264.4,0.04885
2265.4,0.04886
2266.3,0.04888
2267.3,0.04885
2268.3,0.04881
2269.3,0.04882
2270.3,0.04882
2271.3,0.04882
2272.3,0.04879
2273.3,0.04879
2274.3,0.0488
2275.3,0.04883
2276.3,0.04885
2277.3,0.04883
2278.3,0.0488
2279.3,0.04877
2280.3,0.04877
2281.3,0.04877
2282.3,0.04877
2283.3,0.04874
2284.3,0.04875
2285.3,0.04876
2286.3,0.04874
2287.3,0.04874
2288.3,0.04876
2289.4,0.04877
2290.4,0.04875
2291.4,0.04872
2292.4,0.04872
2293.4,0.04875
2294.4,0.04873
2295.4,0.04868
2296.4,0.04869
2297.5,0.0487
2298.5,0.04871
2299.5,0.04869
2300.5,0.04866
2301.6,0.04866
2302.6,0.04867
2303.6,0.04866
2304.6,0.04864
2305.6,0.04863
2306.7,0.04865
2307.7,0.04866
2308.7,0.04865
2309.8,0.04865
2310.8,0.04862
2311.8,0.04861
2312.8,0.04859
2313.9,0.04856
2314.9,0.04858
2315.9,0.0486
2317.0,0.04857
2318.0,0.04856
2319.1,0.04856
2320.1,0.04854
2321.1,0.04852
2322.2,0.0485
2323.2,0.0485
2324.3,0.0485
2325.3,0.04851
2326.3,0.0485
2327.4,0.04848
2328.4,0.04851
2329.5,0.04853
2330.5,0.04853
2331.6,0.04853
2332.6,0.04853
2333.7,0.04853
2334.7,0.0485
2335.8,0.04848
2336.8,0.0485
2337.9,0.04853
2338.9,0.04854
2340.0,0.04854
2341.0,0.04856
2342.1,0.0486
2343.1,0.04861
2344.2,0.04861
2345.3,0.04863
2346.3,0.04862
2347.4,0.04861
2348.5,0.04863
2349.5,0.04862
2350.6,0.04862
2351.7,0.04866
2352.7,0.04869
2353.8,0.04866
2354.9,0.04864
2355.9,0.04869
2357.0,0.04871
2358.1,0.04871
2359.1,0.0487
2360.2,0.0487
2361.3,0.0487
2362.4,0.04869
2363.4,0.0487
2364.5,0.04872
2365.6,0.04869
2366.7,0.04867
2367.8,0.04867
2368.9,0.04868
2369.9,0.04872
2371.0,0.04872
2372.1,0.0487
2373.2,0.04869
2374.3,0.04867
2375.4,0.04869
2376.4,0.04871
2377.5,0.04869
2378.6,0.0487
2379.7,0.04869
2380.8,0.04867
2381.9,0.04868
2383.0,0.0487
2384.1,0.04868
2385.2,0.04865
2386.3,0.04867
2387.4,0.0487
2388.5,0.04871
2389.6,0.04868
2390.7,0.04869
2391.8,0.04871
2392.9,0.04869
2394.0,0.04867
2395.1,0.04868
2396.2,0.04868
2397.3,0.04868
2398.4,0.04869
2399.5,0.0487
2400.6,0.04871
2401.8,0.0487
2402.9,0.04868
2404.0,0.04867
2405.1,0.04867
2406.2,0.04867
2407.3,0.04867
2408.5,0.04867
2409.6,0.04867
2410.7,0.04871
2411.8,0.04871
2412.9,0.04869
2414.1,0.04867
2415.2,0.04864
2416.3,0.04863
2417.4,0.04866
2418.6,0.04866
2419.7,0.04866
2420.8,0.04865
2422.0,0.04862
2423.1,0.04862
2424.2,0.04862
2425.4,0.04862
2426.5,0.04863
2427.6,0.04862
2428.8,0.04861
2429.9,0.04863
2431.1,0.04862
2432.2,0.04864
2433.3,0.04866
2434.5,0.04865
2435.6,0.04864
2436.8,0.04865
2437.9,0.04866
2439.1,0.04863
2440.2,0.04858
2441.4,0.04858
2442.5,0.0486
2443.6,0.0486
2444.8,0.04858
2445.9,0.04858
2447.1,0.04857
2448.3,0.04857
2449.4,0.04858
2450.6,0.0486
2451.7,0.0486
2452.9,0.04859
2454.1,0.04858
2455.2,0.04856
2456.4,0.04856
2457.6,0.04858
2458.7,0.04858
2459.9,0.04858
2461.1,0.04859
2462.2,0.04858
2463.4,0.04856
2464.6,0.04858
2465.7,0.04858
2466.9,0.04858
2468.1,0.04857
2469.3,0.04857
2470.4,0.04857
2471.6,0.04857
2472.8,0.04857
2474.0,0.04856
2475.1,0.04853
2476.3,0.04851
2477.5,0.0485
2478.7,0.04852
2479.9,0.04855
2481.1,0.04853
2482.3,0.0485
2483.4,0.04851
2484.6,0.04852
2485.8,0.04849
2487.0,0.04847
2488.2,0.04848
2489.4,0.04849
2490.6,0.0485
2491.8,0.04848
2493.0,0.04848
2494.2,0.04846
2495.4,0.04845
2496.6,0.04843
2497.8,0.04842
2499.0,0.04844
2500.2,0.04843
2501.4,0.04842
2502.6,0.04842
2503.8,0.04842
2505.0,0.04842
2506.3,0.04844
2507.5,0.04841
2508.7,0.04837
2509.9,0.04836
2511.1,0.04836
2512.3,0.04838
2513.5,0.04837
2514.8,0.04834
2516.0,0.04834
2517.2,0.04835
2518.4,0.04835
2519.6,0.04835
2520.9,0.04836
2522.1,0.04836
2523.3,0.04834
2524.6,0.04833
2525.8,0.04833
2527.0,0.04834
2528.2,0.04834
2529.5,0.04837
2530.7,0.04837
2531.9,0.04836
2533.2,0.04834
2534.4,0.04833
2535.7,0.04835
2536.9,0.04833
2538.1,0.04835
2539.4,0.04838
2540.6,0.04836
2541.9,0.04833
2543.1,0.04833
2544.4,0.04834
2545.6,0.04835
2546.9,0.04834
2548.1,0.0483
2549.4,0.04829
2550.6,0.04832
2551.9,0.04831
2553.1,0.0483
2554.4,0.04832
2555.6,0.04831
2556.9,0.0483
2558.2,0.04828
2559.4,0.0483
2560.7,0.04833
2562.0,0.04833
2563.2,0.04828
2564.5,0.04828
2565.8,0.0483
2567.0,0.0483
2568.3,0.0483
2569.6,0.04829
2570.9,0.04827
2572.1,0.04828
2573.4,0.0483
2574.7,0.04828
2576.0,0.04829
2577.3,0.04829
2578.5,0.04827
2579.8,0.04829
2581.1,0.04831
2582.4,0.0483
2583.7,0.0483
2585.0,0.04827
2586.2,0.04826
2587.5,0.0483
2588.8,0.04831
2590.1,0.04829
2591.4,0.04829
2592.7,0.0483
2594.0,0.04827
2595.3,0.04823
2596.6,0.04821
2597.9,0.04823
2599.2,0.04824
2600.5,0.04823
2601.8,0.04825
2603.1,0.04825
2604.4,0.0482
2605.7,0.0482
2607.1,0.0482
2608.4,0.0482
2609.7,0.04819
2611.0,0.04818
2612.3,0.04817
2613.6,0.04816
2614.9,0.04814
2616.3,0.04818
2617.6,0.04816
2618.9,0.04811
2620.2,0.04809
2621.6,0.04806
2622.9,0.04804
2624.2,0.04803
2625.5,0.04808
2626.9,0.04812
2628.2,0.04805
2629.5,0.04801
2630.9,0.04798
2632.2,0.04797
2633.5,0.048
2634.9,0.04798
2636.2,0.04796
2637.6,0.04793
2638.9,0.04793
2640.2,0.04793
2641.6,0.04789
2642.9,0.04788
2644.3,0.04789
2645.6,0.04792
2647.0,0.04789
2648.3,0.04784
2649.7,0.04779
2651.0,0.04776
2652.4,0.04775
2653.8,0.04771
2655.1,0.04766
2656.5,0.04764
2657.8,0.04761
2659.2,0.04759
2660.6,0.04756
2661.9,0.04756
2663.3,0.04755
2664.7,0.04754
2666.0,0.04749
2667.4,0.04741
2668.8,0.04735
2670.1,0.04734
2671.5,0.04725
2672.9,0.0472
2674.3,0.04715
2675.6,0.04705
2677.0,0.04691
2678.4,0.04684
2679.8,0.04677
2681.2,0.04662
2682.6,0.04647
2684.0,0.04631
2685.4,0.04613
2686.8,0.0459
2688.1,0.04558
2689.5,0.04526
2690.9,0.04486
2692.3,0.04439
2693.7,0.0438
2695.1,0.04309
2696.5,0.04221
2697.9,0.04106
2699.3,0.03969
2700.7,0.03818
2702.1,0.03667
2703.6,0.03539
2705.0,0.03425
2706.4,0.03309
2707.8,0.03184
2709.2,0.03056
2710.6,0.02924
2712.0,0.028
2713.5,0.02703
2714.9,0.02621
2716.3,0.02557
2717.7,0.02519
2719.1,0.02496
2720.6,0.02489
2722.0,0.02491
2723.4,0.02499
2724.9,0.02507
2726.3,0.02516
2727.7,0.02527
2729.2,0.02539
2730.6,0.02548
2732.0,0.02557
2733.5,0.02567
2734.9,0.0258
2736.4,0.02585
2737.8,0.02589
2739.3,0.02597
2740.7,0.02602
2742.2,0.02612
2743.6,0.02621
2745.1,0.02628
2746.5,0.02636
2748.0,0.02649
2749.4,0.02658
2750.9,0.02666
2752.3,0.02675
2753.8,0.02686
2755.3,0.02695
2756.7,0.027
2758.2,0.02708
2759.7,0.0272
2761.1,0.02732
2762.6,0.02742
2764.1,0.0275
2765.6,0.02757
2767.0,0.02766
2768.5,0.02775
2770.0,0.02781
2771.5,0.02789
2772.9,0.02796
2774.4,0.02803
2775.9,0.02813
2777.4,0.02827
2778.9,0.02838
2780.4,0.02848
2781.9,0.02855
2783.4,0.02857
2784.9,0.02866
2786.4,0.02879
2787.9,0.02889
2789.4,0.02897
2790.9,0.02905
2792.4,0.02914
2793.9,0.02919
2795.4,0.02929
2796.9,0.02943
2798.4,0.02955
2799.9,0.02965
2801.4,0.02973
2802.9,0.02981
2804.4,0.02989
2806.0,0.02999
2807.5,0.03009
2809.0,0.03018
2810.5,0.03028
2812.1,0.03039
2813.6,0.03047
2815.1,0.03061
2816.6,0.03072
2818.2,0.03076
2819.7,0.03086
2821.2,0.03102
2822.8,0.03118
2824.3,0.03131
2825.8,0.03142
2827.4,0.03153
2828.9,0.03163
2830.5,0.03172
2832.0,0.03185
2833.6,0.032
2835.1,0.03211
2836.7,0.0322
2838.2,0.03232
2839.8,0.03246
2841.3,0.03257
2842.9,0.03262
2844.4,0.03271
2846.0,0.0328
2847.6,0.03291
2849.1,0.03304
2850.7,0.03313
2852.3,0.03322
2853.8,0.03328
2855.4,0.03332
2857.0,0.03342
2858.6,0.03356
2860.1,0.03367
2861.7,0.03372
2863.3,0.03381
2864.9,0.03387
2866.4,0.03393
2868.0,0.03401
2869.6,0.03409
2871.2,0.03413
2872.8,0.03422
2874.4,0.03435
2876.0,0.03442
2877.6,0.03447
2879.2,0.03453
2880.8,0.03454
2882.4,0.03461
2884.0,0.0347
2885.6,0.03477
2887.2,0.03482
2888.8,0.0349
2890.4,0.03492
2892.0,0.03495
2893.6,0.03502
2895.3,0.0351
2896.9,0.03515
2898.5,0.03513
2900.1,0.03511
2901.7,0.03516
2903.4,0.03521
2905.0,0.03527
2906.6,0.03529
2908.3,0.03528
2909.9,0.03532
2911.5,0.03538
2913.1,0.0354
2914.8,0.03541
2916.4,0.03544
2918.1,0.03547
2919.7,0.03547
2921.4,0.03551
2923.0,0.0355
2924.7,0.03553
2926.3,0.03558
2928.0,0.0356
2929.6,0.03564
2931.3,0.03565
2932.9,0.03567
2934.6,0.0357
2936.3,0.03573
2937.9,0.03582
2939.6,0.03589
2941.2,0.03596
2942.9,0.03602
2944.6,0.03608
2946.3,0.03613
2947.9,0.0362
2949.6,0.03626
2951.3,0.03632
2953.0,0.03641
2954.6,0.03651
2956.3,0.0366
2958.0,0.03669
2959.7,0.03677
2961.4,0.03687
2963.1,0.03695
2964.8,0.037
2966.5,0.03706
2968.2,0.03712
2969.9,0.03722
2971.6,0.03725
2973.3,0.03729
2975.0,0.03738
2976.7,0.03749
2978.4,0.03759
2980.1,0.03764
2981.8,0.03767
2983.6,0.03772
2985.3,0.03777
2987.0,0.03781
2988.7,0.03783
2990.4,0.03788
2992.2,0.03799
2993.9,0.03805
2995.6,0.0381
2997.4,0.0382
2999.1,0.03824
3000.8,0.03827
3002.6,0.03832
3004.3,0.03837
3006.0,0.03842
3007.8,0.03845
3009.5,0.03853
3011.3,0.03862
3013.0,0.03867
3014.8,0.03871
3016.5,0.03877
3018.3,0.03883
3020.0,0.03891
3021.8,0.03898
3023.6,0.03905
3025.3,0.03912
3027.1,0.03921
3028.9,0.03928
3030.6,0.0393
3032.4,0.03935
3034.2,0.03941
3036.0,0.03948
3037.7,0.03955
3039.5,0.03959
3041.3,0.03965
3043.1,0.03972
3044.9,0.0398
3046.7,0.03988
3048.4,0.03994
3050.2,0.03997
3052.0,0.04001
3053.8,0.04004
3055.6,0.04012
3057.4,0.04015
3059.2,0.04018
3061.1,0.04025
3062.9,0.04031
3064.7,0.04036
3066.5,0.0404
3068.3,0.04041
3070.1,0.04045
3071.9,0.0405
3073.8,0.04054
3075.6,0.04057
3077.4,0.04059
3079.2,0.04063
3081.1,0.04066
3082.9,0.04071
3084.7,0.04075
3086.6,0.04084
3088.4,0.04092
3090.2,0.04099
3092.1,0.04106
3093.9,0.04111
3095.8,0.04116
3097.6,0.04124
3099.5,0.04131
3101.3,0.04135
3103.2,0.04142
3105.0,0.04145
3106.9,0.0415
3108.8,0.04155
3110.6,0.04157
3112.5,0.04165
3114.4,0.0417
3116.2,0.0417
3118.1,0.04175
3120.0,0.04184
3121.9,0.04189
3123.7,0.04195
3125.6,0.04198
3127.5,0.04203
3129.4,0.04209
3131.3,0.04211
3133.2,0.04218
3135.1,0.04227
3137.0,0.04233
3138.9,0.04235
3140.8,0.04238
3142.7,0.04241
3144.6,0.04251
3146.5,0.04259
3148.4,0.04264
3150.3,0.04268
3152.2,0.0427
3154.1,0.04271
3156.1,0.04275
3158.0,0.04277
3159.9,0.04282
3161.8,0.04288
3163.8,0.04294
3165.7,0.04299
3167.6,0.04306
3169.6,0.04308
3171.5,0.04309
3173.4,0.04313
3175.4,0.04316
3177.3,0.04324
3179.3,0.04327
3181.2,0.0433
3183.2,0.04336
3185.1,0.04342
3187.1,0.0435
3189.1,0.04351
3191.0,0.04354
3193.0,0.04358
3194.9,0.04361
3196.9,0.04366
3198.9,0.04373
3200.9,0.04376
3202.9,0.04378
3204.8,0.04383
3206.8,0.04387
3208.8,0.04389
3210.8,0.04391
3212.8,0.04393
3214.8,0.04396
3216.8,0.04398
3218.8,0.04399
3220.8,0.04404
3222.8,0.04406
3224.8,0.04406
3226.8,0.04413
3228.8,0.04418
3230.8,0.04418
3232.8,0.04418
3234.8,0.04421
3236.8,0.04426
3238.9,0.04433
3240.9,0.04436
3242.9,0.04434
3244.9,0.04435
3247.0,0.0444
3249.0,0.04444
3251.0,0.04447
3253.1,0.04447
3255.1,0.04447
3257.2,0.04454
3259.2,0.04459
3261.3,0.04453
3263.3,0.04451
3265.4,0.04458
3267.4,0.04466
3269.5,0.04466
3271.6,0.04466
3273.6,0.04472
3275.7,0.04473
3277.8,0.04478
3279.8,0.0448
3281.9,0.04483
3284.0,0.04483
3286.1,0.04485
3288.1,0.04493
3290.2,0.04494
3292.3,0.04492
3294.4,0.04495
3296.5,0.04496
3298.6,0.04497
3300.7,0.04499
3302.8,0.04501
3304.9,0.04505
3307.0,0.04505
3309.1,0.04506
3311.2,0.04508
3313.4,0.04511
3315.5,0.04514
3317.6,0.04517
3319.7,0.04517
3321.9,0.04513
3324.0,0.04515
3326.1,0.04518
3328.3,0.0452
3330.4,0.04521
3332.5,0.04518
3334.7,0.04521
3336.8,0.04525
3339.0,0.04524
3341.1,0.04521
3343.3,0.04518
3345.4,0.04521
3347.6,0.04521
3349.8,0.04521
3351.9,0.04518
3354.1,0.04517
3356.3,0.04516
3358.4,0.04516
3360.6,0.04512
3362.8,0.04508
3365.0,0.04509
3367.1,0.04505
3369.3,0.04504
3371.5,0.04501
3373.7,0.04497
3375.9,0.04497
3378.1,0.04494
3380.3,0.04495
3382.5,0.04502
3384.7,0.04503
3386.9,0.045
3389.1,0.045
3391.4,0.04503
3393.6,0.04504
3395.8,0.04504
3398.0,0.04502
3400.3,0.04499
3402.5,0.04494
3404.7,0.0449
3407.0,0.04493
3409.2,0.04491
3411.4,0.04489
3413.7,0.04492
3415.9,0.04498
3418.2,0.04501
3420.4,0.04509
3422.7,0.04522
3425.0,0.04531
3427.2,0.04537
3429.5,0.04544
3431.8,0.04545
3434.0,0.04546
3436.3,0.04552
3438.6,0.04556
3440.9,0.04565
3443.2,0.04569
3445.4,0.04574
3447.7,0.0458
3450.0,0.04584
3452.3,0.04585
3454.6,0.04588
3456.9,0.04592
3459.2,0.04593
3461.6,0.04596
3463.9,0.04597
3466.2,0.04598
3468.5,0.04599
3470.8,0.04596
3473.1,0.04594
3475.5,0.04597
3477.8,0.04596
3480.1,0.04591
3482.5,0.04596
3484.8,0.04597
3487.2,0.04592
3489.5,0.04594
3491.9,0.046
3494.2,0.04603
3496.6,0.04605
3498.9,0.04607
3501.3,0.04608
3503.6,0.0461
3506.0,0.04612
3508.4,0.0462
3510.8,0.04628
3513.1,0.04635
3515.5,0.04639
3517.9,0.04639
3520.3,0.04643
3522.7,0.04651
3525.1,0.04658
3527.5,0.04664
3529.9,0.04666
3532.3,0.04669
3534.7,0.04675
3537.1,0.04677
3539.5,0.04675
3541.9,0.04674
3544.4,0.04677
3546.8,0.0468
3549.2,0.04681
3551.6,0.04687
3554.1,0.04693
3556.5,0.04691
3559.0,0.04688
3561.4,0.04688
3563.9,0.04692
3566.3,0.04699
3568.8,0.04692
3571.2,0.0469
3573.7,0.04696
3576.1,0.04696
3578.6,0.04695
3581.1,0.04699
3583.6,0.04701
3586.0,0.04704
3588.5,0.04708
3591.0,0.0471
3593.5,0.04707
3596.0,0.04707
3598.5,0.04705
3601.0,0.04705
3603.5,0.04708
3606.0,0.04711
3608.5,0.04708
3611.0,0.04709
3613.5,0.04715
3616.0,0.0472
3618.6,0.0472
3621.1,0.04717
3623.6,0.04714
3626.1,0.04714
3628.7,0.04713
3631.2,0.04712
3633.8,0.04717
3636.3,0.04725
3638.9,0.04729
3641.4,0.0473
3644.0,0.0473
3646.6,0.04729
3649.1,0.04727
3651.7,0.0472
3654.3,0.04722
3656.8,0.04729
3659.4,0.04732
3662.0,0.04733
3664.6,0.04733
3667.2,0.04731
3669.8,0.04729
3672.4,0.04728
3675.0,0.0473
3677.6,0.04743
3680.2,0.04748
3682.8,0.04739
3685.4,0.04734
3688.1,0.04739
3690.7,0.04744
3693.3,0.04743
3695.9,0.04744
3698.6,0.04744
3701.2,0.04741
3703.9,0.04741
3706.5,0.04742
3709.2,0.04742
3711.8,0.04744
3714.5,0.04747
3717.1,0.04746
3719.8,0.04745
3722.5,0.04746
3725.2,0.04748
3727.8,0.04747
3730.5,0.04748
3733.2,0.0475
3735.9,0.0475
3738.6,0.04748
3741.3,0.04746
3744.0,0.04749
3746.7,0.04753
3749.4,0.04754
3752.1,0.04753
3754.8,0.04753
3757.6,0.04756
3760.3,0.04757
3763.0,0.04757
3765.7,0.04757
3768.5,0.04757
3771.2,0.04759
3774.0,0.04759
3776.7,0.04757
3779.5,0.04757
3782.2,0.04759
3785.0,0.04759
3787.7,0.0476
3790.5,0.04762
3793.3,0.04762
3796.1,0.0476
3798.8,0.04758
3801.6,0.0476
3804.4,0.0476
3807.2,0.0476
3810.0,0.0476
3812.8,0.04761
3815.6,0.04762
3818.4,0.04763
3821.2,0.04763
3824.1,0.04764
3826.9,0.04765
3829.7,0.04766
3832.5,0.04765
3835.4,0.04765
3838.2,0.04766
3841.1,0.04767
3843.9,0.04764
3846.8,0.04763
3849.6,0.04766
3852.5,0.04768
3855.3,0.04766
3858.2,0.04766
3861.1,0.04768
3863.9,0.04768
3866.8,0.04765
3869.7,0.04764
3872.6,0.04767
3875.5,0.0477
3878.4,0.0477
3881.3,0.04767
3884.2,0.04769
3887.1,0.04771
3890.0,0.04769
3893.0,0.04769
3895.9,0.04771
3898.8,0.04771
3901.7,0.04772
3904.7,0.04773
3907.6,0.04772
3910.6,0.04772
3913.5,0.04771
3916.5,0.04769
3919.4,0.04769
3922.4,0.04769
3925.4,0.04772
3928.4,0.04773
3931.3,0.04772
3934.3,0.0477
3937.3,0.04769
3940.3,0.04767
3943.3,0.04766
3946.3,0.04766
3949.3,0.04766
3952.3,0.04763
3955.3,0.04762
3958.3,0.0476
3961.4,0.0476
3964.4,0.0476
3967.4,0.04759
3970.5,0.04761
3973.5,0.0476
3976.6,0.04757
3979.6,0.04756
3982.6,0.04759
3985.7,0.0476
3988.8,0.0476
3991.9,0.04761
3994.9,0.04762
3998.0,0.04765
4001.1,0.04768
4004.2,0.04769
4007.3,0.04769
4010.4,0.04771
4013.5,0.04773
4016.6,0.04772
4019.7,0.04772
4022.8,0.04774
4025.9,0.04774
4029.1,0.04775
4032.2,0.04775
4035.3,0.04774
4038.5,0.04774
4041.6,0.04775
4044.8,0.04775
4047.9,0.04776
4051.1,0.04777
4054.3,0.04776
4057.4,0.04773
4060.6,0.04773
4063.8,0.04773
4067.0,0.04774
4070.2,0.04772
4073.4,0.04772
4076.6,0.04773
4079.8,0.04772
4083.0,0.04771
4086.2,0.04772
4089.4,0.04773
4092.7,0.04773
4095.9,0.04773
4099.1,0.04774
4102.4,0.04774
4105.6,0.0477
4108.9,0.04768
4112.1,0.04768
4115.4,0.04766
4118.7,0.04764
4122.0,0.04767
4125.2,0.04768
4128.5,0.04767
4131.8,0.04766
4135.1,0.04766
4138.4,0.04765
4141.7,0.04765
4145.0,0.04763
4148.3,0.0476
4151.6,0.0476
4155.0,0.04761
4158.3,0.04761
4161.6,0.0476
4165.0,0.04759
4168.3,0.04758
4171.7,0.04757
4175.0,0.04757
4178.4,0.04758
4181.8,0.04758
4185.2,0.04756
4188.5,0.04755
4191.9,0.04755
4195.3,0.04755
4198.7,0.04753
4202.1,0.04751
4205.5,0.04751
4208.9,0.0475
4212.4,0.04745
4215.8,0.04743
4219.2,0.04741
4222.6,0.0474
4226.1,0.04739
4229.5,0.04736
4233.0,0.04735
4236.5,0.04736
4239.9,0.04734
4243.4,0.04734
4246.9,0.04736
4250.3,0.04736
4253.8,0.04736
4257.3,0.04737
4260.8,0.04736
4264.3,0.04733
4267.8,0.04733
4271.3,0.04731
4274.9,0.04728
4278.4,0.04725
4281.9,0.04723
4285.5,0.04721
4289.0,0.0472
4292.6,0.04721
4296.1,0.04721
4299.7,0.04722
4303.3,0.04723
4306.8,0.04722
4310.4,0.04719
4314.0,0.04717
4317.6,0.04716
4321.2,0.04715
4324.8,0.04714
4328.4,0.04714
4332.0,0.04713
4335.6,0.04712
4339.3,0.04711
4342.9,0.04711
4346.5,0.0471
4350.2,0.04709
4353.8,0.04708
4357.5,0.04707
4361.1,0.04707
4364.8,0.04705
4368.5,0.04704
4372.2,0.04702
4375.9,0.047
4379.6,0.04701
4383.3,0.04701
4387.0,0.04698
4390.7,0.04696
4394.4,0.04695
4398.1,0.04693
4401.9,0.04694
4405.6,0.04693
4409.4,0.04692
4413.1,0.04691
4416.9,0.0469
4420.6,0.04689
4424.4,0.04686
4428.2,0.04683
4432.0,0.04683
4435.8,0.04684
4439.6,0.04682
4443.4,0.0468
4447.2,0.04678
4451.0,0.04677
4454.8,0.04677
4458.6,0.04676
4462.5,0.04673
4466.3,0.04673
4470.2,0.04673
4474.0,0.04672
4477.9,0.0467
4481.8,0.04669
4485.6,0.04668
4489.5,0.04667
4493.4,0.04668
4497.3,0.04669
4501.2,0.04669
4505.1,0.04668
4509.0,0.04667
4513.0,0.04667
4516.9,0.04667
4520.9,0.04666
4524.8,0.04666
4528.7,0.04666
4532.7,0.04666
4536.7,0.04665
4540.6,0.04664
4544.6,0.04664
4548.6,0.04663
4552.6,0.04663
4556.6,0.04665
4560.6,0.04665
4564.6,0.04665
4568.6,0.04665
4572.7,0.04664
4576.7,0.04664
4580.8,0.04664
4584.8,0.04664
4588.9,0.04663
4592.9,0.04661
4597.0,0.04661
4601.1,0.04661
4605.2,0.0466
4609.3,0.04659
4613.4,0.0466
4617.5,0.0466
4621.6,0.04659
4625.7,0.04659
4629.8,0.04659
4634.0,0.04658
4638.1,0.04658
4642.3,0.04657
4646.4,0.04655
4650.6,0.04653
4654.8,0.04651
4659.0,0.04648
4663.1,0.04648
4667.3,0.04646
4671.5,0.04645
4675.8,0.04646
4680.0,0.04643
4684.2,0.0464
4688.4,0.04641
4692.7,0.04639
4696.9,0.04637
4701.2,0.04636
4705.5,0.04636
4709.7,0.04636
4714.0,0.04634
4718.3,0.04634
4722.6,0.04633
4726.9,0.04631
4731.2,0.04629
4735.5,0.04627
4739.9,0.04626
4744.2,0.04628
4748.5,0.04629
4752.9,0.04629
4757.3,0.04631
4761.6,0.04631
4766.0,0.04629
4770.4,0.04627
4774.8,0.04629
4779.2,0.04629
4783.6,0.04628
4788.0,0.04627
4792.4,0.04625
4796.9,0.04625
4801.3,0.04625
4805.8,0.04624
4810.2,0.04623
4814.7,0.04622
4819.1,0.04619
4823.6,0.04618
4828.1,0.04616
4832.6,0.04614
4837.1,0.04614
4841.6,0.04613
4846.2,0.04612
4850.7,0.04611
4855.3,0.04609
4859.8,0.04609
4864.4,0.04608
4868.9,0.04606
4873.5,0.04605
4878.1,0.04602
4882.7,0.046
4887.3,0.04598
4891.9,0.04598
4896.5,0.04598
4901.1,0.04597
4905.8,0.04595
4910.4,0.04592
4915.1,0.04589
4919.7,0.04587
4924.4,0.04586
4929.1,0.04585
4933.8,0.04583
4938.5,0.04582
4943.2,0.04581
4947.9,0.04579
4952.6,0.04575
4957.4,0.04573
4962.1,0.04573
4966.9,0.04572
4971.6,0.04569
4976.4,0.04565
4981.2,0.04563
4986.0,0.04563
4990.8,0.04559
4995.6,0.04558
5000.4,0.04557
5005.2,0.04554
5010.0,0.04552
5014.9,0.0455
5019.8,0.04547
5024.6,0.04548
5029.5,0.04546
5034.4,0.04543
5039.3,0.04541
5044.2,0.04538
5049.1,0.04535
5054.0,0.04534
5058.9,0.04532
5063.9,0.04531
5068.8,0.04531
5073.8,0.04529
5078.8,0.04527
5083.7,0.04525
5088.7,0.04523
5093.7,0.04521
5098.7,0.04519
5103.7,0.04518
5108.8,0.04515
5113.8,0.04513
5118.9,0.04512
5123.9,0.04512
5129.0,0.04508
5134.1,0.04506
5139.1,0.04505
5144.3,0.04503
5149.4,0.045
5154.5,0.04497
5159.6,0.04495
5164.7,0.04495
5169.9,0.04493
5175.0,0.0449
5180.2,0.04487
5185.4,0.04485
5190.6,0.04482
5195.8,0.04481
5201.0,0.04479
5206.2,0.04477
5211.5,0.04473
5216.7,0.04471
5222.0,0.0447
5227.2,0.04469
5232.5,0.04465
5237.8,0.04463
5243.1,0.04459
5248.4,0.04457
5253.7,0.04455
5259.0,0.04455
5264.4,0.04451
5269.7,0.04447
5275.1,0.04445
5280.5,0.04443
5285.8,0.0444
5291.2,0.04437
5296.6,0.04435
5302.0,0.04432
5307.5,0.04428
5312.9,0.04427
5318.4,0.04425
5323.8,0.04423
5329.3,0.04422
5334.8,0.04421
5340.3,0.04417
5345.8,0.04413
5351.3,0.04409
5356.8,0.04407
5362.4,0.04404
5367.9,0.04402
5373.5,0.04401
5379.0,0.04399
5384.6,0.04395
5390.2,0.04391
5395.8,0.04388
5401.5,0.04387
5407.1,0.04384
5412.7,0.04381
5418.4,0.04377
5424.1,0.04374
5429.7,0.04372
5435.4,0.0437
5441.1,0.04368
5446.9,0.04367
5452.6,0.04366
5458.3,0.04363
5464.1,0.04357
5469.8,0.04356
5475.6,0.04352
5481.4,0.04348
5487.2,0.04347
5493.0,0.04345
5498.8,0.04341
5504.7,0.04339
5510.5,0.04334
5516.4,0.04328
5522.3,0.04327
5528.1,0.04325
5534.0,0.04319
5540.0,0.04312
5545.9,0.04305
5551.8,0.04297
5557.8,0.04288
5563.7,0.04284
5569.7,0.04283
5575.7,0.04281
5581.7,0.04277
5587.7,0.04278
5593.7,0.04281
5599.8,0.04281
5605.8,0.04279
5611.9,0.04278
5618.0,0.04277
5624.1,0.04274
5630.2,0.04269
5636.3,0.04261
5642.4,0.04256
5648.6,0.04255
5654.7,0.04253
5660.9,0.0425
5667.1,0.04247
5673.3,0.04243
5679.5,0.04237
5685.7,0.04234
5692.0,0.04234
5698.2,0.04233
5704.5,0.04231
5710.8,0.04228
5717.1,0.04226
5723.4,0.04223
5729.7,0.04221
5736.0,0.04218
5742.4,0.04212
5748.8,0.04207
5755.1,0.04203
5761.5,0.04195
5768.0,0.04184
5774.4,0.0418
5780.8,0.04173
5787.3,0.04166
5793.7,0.04156
5800.2,0.04149
5806.7,0.04141
5813.2,0.04133
5819.8,0.04122
5826.3,0.04111
5832.8,0.04102
5839.4,0.04095
5846.0,0.04086
5852.6,0.04077
5859.2,0.04066
5865.8,0.04054
5872.5,0.04046
5879.1,0.04033
5885.8,0.04015
5892.5,0.04002
5899.2,0.03985
5905.9,0.03971
5912.6,0.03956
5919.4,0.03937
5926.2,0.03916
5932.9,0.03898
5939.7,0.03882
5946.5,0.0388
5953.4,0.03882
5960.2,0.03882
5967.1,0.03878
5974.0,0.03877
5980.8,0.03874
5987.8,0.03868
5994.7,0.03861
6001.6,0.03856
6008.6,0.03849
6015.5,0.03841
6022.5,0.03833
6029.5,0.03826
6036.5,0.0382
6043.6,0.03811
6050.6,0.03802
6057.7,0.03802
6064.8,0.03798
6071.9,0.03789
6079.0,0.03781
6086.1,0.03776
6093.3,0.03769
6100.5,0.0376
6107.6,0.03752
6114.9,0.03741
6122.1,0.03732
6129.3,0.03725
6136.5,0.03712
6143.8,0.03694
6151.1,0.03676
6158.4,0.03664
6165.7,0.03667
6173.1,0.03684
6180.4,0.03706
6187.8,0.03734
6195.2,0.0376
6202.6,0.03781
6210.0,0.03799
6217.5,0.03812
6225.0,0.03821
6232.4,0.03829
6239.9,0.03838
6247.5,0.03844
6255.0,0.0385
6262.5,0.03856
6270.1,0.03858
6277.7,0.03863
6285.3,0.03867
6292.9,0.0387
6300.6,0.03873
6308.3,0.03874
6315.9,0.03877
6323.6,0.03882
6331.4,0.03886
6339.1,0.03888
6346.9,0.03893
6354.6,0.03898
6362.4,0.03898
6370.3,0.03897
6378.1,0.039
6385.9,0.03906
6393.8,0.0391
6401.7,0.03911
6409.6,0.0391
6417.6,0.0391
6425.5,0.03916
6433.5,0.0392
6441.5,0.03921
6449.5,0.03923
6457.5,0.03925
6465.6,0.03923
6473.6,0.0392
6481.7,0.03919
6489.8,0.03915
6498.0,0.03915
6506.1,0.03914
6514.3,0.03909
6522.5,0.03907
6530.7,0.03907
6538.9,0.03904
6547.2,0.03901
6555.5,0.03897
6563.8,0.03895
6572.1,0.03887
6580.4,0.03881
6588.8,0.03876
6597.2,0.0387
6605.6,0.03865
6614.0,0.03858
6622.5,0.03848
6630.9,0.03838
6639.4,0.0383
6647.9,0.03826
6656.5,0.0382
6665.0,0.03812
6673.6,0.03801
6682.2,0.03792
6690.8,0.03788
6699.5,0.03783
6708.1,0.03772
6716.8,0.03762
6725.5,0.03753
6734.3,0.03744
6743.0,0.03736
6751.8,0.03728
6760.6,0.03721
6769.4,0.0371
6778.3,0.03699
6787.1,0.03688
6796.0,0.03674
6805.0,0.03665
6813.9,0.03659
6822.9,0.03652
6831.9,0.03643
6840.9,0.03638
6849.9,0.03634
6859.0,0.03629
6868.0,0.03626
6877.2,0.03626
6886.3,0.03627
6895.5,0.03627
6904.6,0.03624
6913.8,0.03622
6923.1,0.03619
6932.3,0.0362
6941.6,0.0362
6950.9,0.03616
6960.2,0.03614
6969.6,0.03616
6979.0,0.03619
6988.4,0.03621
6997.8,0.03622
7007.3,0.03623
7016.8,0.03624
7026.3,0.03625
7035.8,0.03624
7045.4,0.03624
7054.9,0.03624
7064.5,0.03628
7074.2,0.03633
7083.9,0.03636
7093.5,0.03638
7103.3,0.03638
7113.0,0.03633
7122.8,0.0363
7132.6,0.03631
7142.4,0.03632
7152.2,0.03631
7162.1,0.03632
7172.0,0.03632
7182.0,0.03633
7191.9,0.03634
7201.9,0.03632
7211.9,0.03632
7222.0,0.03633
7232.0,0.03632
7242.1,0.03631
7252.3,0.03628
7262.4,0.03626
7272.6,0.03625
7282.8,0.03623
7293.1,0.03622
7303.3,0.03623
7313.6,0.0362
7324.0,0.03617
7334.3,0.03614
7344.7,0.0361
7355.1,0.03608
7365.6,0.03605
7376.1,0.036
7386.6,0.03594
7397.1,0.03589
7407.7,0.03584
7418.3,0.03576
7428.9,0.03569
7439.6,0.03563
7450.3,0.03557
7461.0,0.0355
7471.7,0.03543
7482.5,0.03537
7493.3,0.03535
7504.2,0.03529
7515.0,0.03521
7525.9,0.03512
7536.9,0.03506
7547.9,0.03501
7558.9,0.03494
7569.9,0.03486
7581.0,0.0348
7592.0,0.03478
7603.2,0.03475
7614.4,0.03471
7625.5,0.0347
7636.8,0.03467
7648.0,0.03463
7659.3,0.03461
7670.7,0.0346
7682.0,0.03455
7693.4,0.03451
7704.9,0.03446
7716.3,0.0344
7727.8,0.03435
7739.4,0.03431
7750.9,0.03423
7762.5,0.03417
7774.2,0.03411
7785.8,0.03405
7797.5,0.03398
7809.3,0.03392
7821.1,0.03386
7832.9,0.0338
7844.7,0.03371
7856.6,0.0336
7868.5,0.0335
7880.5,0.03342
7892.5,0.03333
7904.5,0.03323
7916.6,0.0331
7928.7,0.03298
7940.8,0.03286
7953.0,0.03275
7965.2,0.03262
7977.5,0.03248
7989.8,0.03236
8002.1,0.03224
8014.5,0.03209
8026.9,0.03192
8039.3,0.03175
8051.8,0.03159
8064.3,0.03145
8076.9,0.03128
8089.5,0.0311
8102.1,0.03095
8114.8,0.03079
8127.5,0.0306
8140.3,0.0304
8153.1,0.03022
8165.9,0.03004
8178.8,0.02986
8191.7,0.02968
8204.7,0.02952
8217.7,0.02933
8230.7,0.02916
8243.8,0.02898
8257.0,0.02879
8270.1,0.02858
8283.3,0.02839
8296.6,0.02818
8309.9,0.02796
8323.2,0.02773
8336.6,0.02752
8350.0,0.02729
8363.5,0.02706
8377.0,0.02684
8390.5,0.02661
8404.2,0.02638
8417.8,0.02615
8431.5,0.02588
8445.2,0.02563
8459.0,0.02536
8472.8,0.02509
8486.7,0.0248
8500.6,0.02447
8514.5,0.02421
8528.5,0.02397
8542.6,0.02374
8556.7,0.02355
8570.8,0.02336
8585.0,0.02319
8599.3,0.02303
8613.5,0.02288
8627.9,0.02272
8642.3,0.0226
8656.7,0.02247
8671.2,0.02235
8685.7,0.0222
8700.3,0.02208
8714.9,0.02195
8729.6,0.02182
8744.3,0.02172
8759.0,0.02167
8773.9,0.0216
8788.7,0.0215
8803.7,0.02141
8818.6,0.02132
8833.7,0.0212
8848.7,0.02107
8863.8,0.02095
8879.0,0.02089
8894.3,0.02082
8909.5,0.02073
8924.9,0.02064
8940.3,0.02057
8955.7,0.02047
8971.2,0.02037
8986.8,0.02025
9002.3,0.02007
9018.0,0.01991
9033.7,0.01977
9049.5,0.01961
9065.3,0.01947
9081.2,0.01933
9097.1,0.01924
9113.1,0.01921
9129.1,0.01922
9145.2,0.01923
9161.4,0.01926
9177.6,0.01929
9193.9,0.01935
9210.2,0.01943
9226.6,0.01954
9243.0,0.01968
9259.5,0.01988
9276.1,0.02013
9292.7,0.02035
9309.4,0.02055
9326.2,0.02084
9343.0,0.02115
9359.8,0.02148
9376.8,0.02179
9393.7,0.02214
9410.8,0.02248
9427.9,0.02284
9445.1,0.02321
9462.3,0.02359
9479.6,0.02398
9497.0,0.02434
9514.4,0.0247
9531.9,0.0251
9549.4,0.02546
9567.1,0.0258
9584.7,0.02613
9602.5,0.02649
9620.3,0.0268
9638.2,0.02707
9656.1,0.02731
9674.2,0.02749
9692.2,0.02765
9710.4,0.02779
9728.6,0.02787
9746.9,0.02794
9765.2,0.02801
9783.7,0.02805
9802.2,0.02805
9820.7,0.02803
9839.4,0.02799
9858.1,0.02795
9876.8,0.02794
9895.7,0.02793
9914.6,0.02791
9933.6,0.02789
9952.7,0.02786
9971.8,0.02782
9991.0,0.0278
10010.3,0.02779
10029.7,0.02773
10049.1,0.02767
10068.6,0.02763
10088.2,0.02759
10107.9,0.02757
10127.6,0.02757
10147.4,0.02753
10167.3,0.02753
10187.3,0.02752
10207.4,0.02753
10227.5,0.02758
10247.7,0.02759
10268.0,0.0276
10288.4,0.02765
10308.8,0.02772
10329.4,0.02779
10350.0,0.02783
10370.7,0.02792
10391.5,0.028
10412.3,0.02809
10433.3,0.02815
10454.3,0.02821
10475.5,0.02831
10496.7,0.02841
10517.9,0.0285
10539.3,0.02866
10560.8,0.0288
10582.3,0.02888
10604.0,0.02899
10625.7,0.0291
10647.5,0.02919
10669.4,0.02937
10691.4,0.02959
10713.5,0.02979
10735.7,0.02995
10758.0,0.03013
10780.3,0.03038
10802.8,0.03063
10825.4,0.03086
10848.0,0.03108
10870.8,0.03134
10893.6,0.03165
10916.5,0.03194
10939.5,0.03226
10962.7,0.03256
10985.9,0.03286
11009.2,0.03319
11032.7,0.03346
11056.2,0.03367
11079.8,0.03392
11103.5,0.03418
11127.3,0.03442
11151.3,0.03459
11175.3,0.0347
11199.5,0.03486
11223.7,0.035
11248.0,0.03505
11272.5,0.03507
11297.1,0.03507
11321.7,0.03503
11346.5,0.035
11371.4,0.03498
11396.4,0.03491
11421.5,0.03486
11446.7,0.03484
11472.0,0.03494
11497.5,0.03507
11523.0,0.03509
11548.7,0.03505
11574.4,0.035
11600.3,0.03494
11626.3,0.03481
11652.5,0.03465
11678.7,0.03457
11705.1,0.03452
11731.6,0.03437
11758.2,0.03414
11784.9,0.03398
11811.7,0.03387
11838.7,0.03373
11865.8,0.03358
11893.0,0.03344
11920.3,0.03329
11947.8,0.0331
11975.4,0.03293
12003.1,0.03272
12031.0,0.03252
12059.0,0.03237
12087.1,0.0322
12115.3,0.03199
12143.7,0.03182
12172.2,0.03162
12200.8,0.0314
12229.6,0.03115
12258.5,0.03095
12287.6,0.03076
12316.8,0.03055
12346.1,0.03034
12375.5,0.03013
12405.2,0.0299
12434.9,0.02971
12464.8,0.02963
12494.8,0.02945
12525.0,0.02918
12555.3,0.029
12585.8,0.0288
12616.4,0.02858
12647.2,0.02838
12678.1,0.02814
12709.2,0.02794
12740.4,0.02776
12771.8,0.02756
12803.3,0.02737
12835.0,0.02719
12866.9,0.02697
12898.9,0.02685
12931.1,0.02676
12963.4,0.02662
12995.9,0.02644
13028.5,0.02622
13061.3,0.02605
13094.3,0.02589
13127.5,0.0257
13160.8,0.02559
13194.3,0.02544
13228.0,0.02528
13261.8,0.02519
13295.8,0.0251
13330.0,0.02493
13364.3,0.02479
13398.9,0.0247
13433.6,0.02453
13468.5,0.02432
13503.5,0.02421
13538.8,0.02408
13574.2,0.02394
13609.9,0.0238
13645.7,0.02368
13681.7,0.02353
13717.9,0.02332
13754.3,0.0231
13790.8,0.02297
13827.6,0.02286
13864.6,0.02272
13901.8,0.02259
13939.1,0.02247
13976.7,0.02239
14014.5,0.02227
14052.5,0.02212
14090.7,0.02198
14129.0,0.0219
14167.7,0.02188
14206.5,0.02185
14245.5,0.02173
14284.7,0.0216
14324.2,0.02159
14363.9,0.02155
14403.8,0.02157
14443.9,0.02162
14484.2,0.02171
14524.8,0.02178
14565.6,0.02187
14606.7,0.02201
14647.9,0.02217
14689.4,0.02235
14731.2,0.02257
14773.1,0.02277
14815.3,0.02304
14857.8,0.02331
14900.5,0.02351
14943.4,0.02365
14986.6,0.02384
15030.0,0.02402
15073.7,0.02433
15117.7,0.02464
15161.9,0.02477
15206.3,0.02486
15251.1,0.02512
15296.1,0.02533
15341.3,0.02552
15386.8,0.02576
15432.6,0.02592
15478.7,0.02593
15525.0,0.02614
15571.7,0.02627
15618.6,0.02626
15665.8,0.02639
15713.2,0.02649
15761.0,0.02647
15809.0,0.0266
15857.4,0.02675
15906.0,0.02677
15955.0,0.02666
16004.2,0.02662
16053.8,0.02661
16103.6,0.02672
16153.8,0.02675
16204.3,0.02656
16255.1,0.02642
16306.2,0.02653
16357.6,0.02646
16409.4,0.02646
16461.5,0.02646
16513.9,0.02634
16566.7,0.02621
16619.8,0.02627
16673.2,0.02624
16727.0,0.0262
16781.1,0.02599
16835.6,0.02587
16890.5,0.02591
16945.7,0.02585
17001.2,0.02562
17057.2,0.02543
17113.4,0.02521
17170.1,0.02515
17227.2,0.02509
17284.6,0.02495
17342.4,0.02481
17400.6,0.02464
17459.2,0.02472
17518.2,0.02473
17577.6,0.02446
17637.3,0.02432
17697.5,0.0244
17758.1,0.02465
17819.2,0.02447
17880.6,0.02428
17942.5,0.02447
18004.8,0.02471
18067.5,0.02438
18130.7,0.02432
18194.3,0.0246
18258.4,0.02474
18322.9,0.02468
18387.9,0.02482
18453.3,0.02494
18519.2,0.02491
18585.6,0.025
18652.4,0.02521
18719.8,0.02549
18787.6,0.02596
18855.9,0.02633
18924.7,0.02678
18994.1,0.0275
19063.9,0.02806
19134.3,0.02847
19205.1,0.02907
19276.5,0.02989
19348.5,0.03112
19420.9,0.03218
19493.9,0.0331
19567.5,0.03414
19641.6,0.03499
19716.3,0.03579
19791.6,0.03651
19867.4,0.03717
19943.8,0.03783
20020.8,0.03836
20098.4,0.03899
20176.6,0.03969
20255.4,0.04026
20334.8,0.0408
20414.9,0.04129
20495.6,0.04174
20576.9,0.04221
20658.9,0.04258
20741.6,0.04291
20824.8,0.0432
20908.8,0.04348
20993.5,0.0438
21078.8,0.04394
21164.8,0.04402
21251.6,0.04436
21339.1,0.04462
21427.2,0.04454
21516.1,0.04434
21605.8,0.04442
21696.2,0.04457
21787.3,0.04454
21879.3,0.04447
21972.0,0.0446
22065.4,0.0445
22159.7,0.04458
22254.8,0.04466
22350.8,0.04474
22447.5,0.04471
22545.1,0.04478
22643.6,0.04458
22742.9,0.04464
22843.1,0.0448
22944.2,0.045
23046.1,0.04484
23149.0,0.0445
23252.8,0.04421
23357.6,0.04405
23463.3,0.04367
23569.9,0.0434
23677.5,0.04319
23786.1,0.04306
23895.8,0.04275
24006.4,0.04237
24118.0,0.04227
24230.7,0.042
24344.5,0.04161
24459.3,0.04142
24575.3,0.04136
24692.3,0.04148
24810.4,0.04136
24929.7,0.04136
25050.1,0.04151
25171.7,0.04153
25294.5,0.04117
25418.5,0.04116
25543.7,0.04128
25670.2,0.04125
25797.9,0.04133
25926.9,0.04166
26057.2,0.04211
26188.8,0.04238
26321.7,0.04226
26456.0,0.04248
26591.7,0.04293
26728.8,0.04318
26867.2,0.0431
27007.2,0.04359
27148.6,0.04392
27291.5,0.0441
27435.9,0.04416
27581.8,0.04432
27729.3,0.04466
27878.4,0.04475
28029.1,0.0445
28181.4,0.04444
28335.4,0.04475
28491.1,0.04525
28648.5,0.04536
28807.7,0.04535
28968.6,0.04543
29131.3,0.04577
29295.9,0.04608
29462.4,0.04638
29630.7,0.0463
29801.0,0.04644
29973.3,0.04676
30147.5,0.04674
30323.8,0.04664
30502.2,0.04698
30682.7,0.04722
30865.3,0.04736
31050.2,0.0473
31237.2,0.0472
31426.5,0.047
31618.2,0.04695
31812.1,0.04689
32008.5,0.04696
32207.3,0.04707
32408.6,0.04685
32612.4,0.04665
32818.8,0.04685
33027.9,0.04671
33239.6,0.04704
33454.1,0.04737
33671.3,0.04775
33891.4,0.04795
34114.3,0.04816
34340.3,0.04832
34569.2,0.04881
34801.2,0.04894
35036.3,0.04885
35274.7,0.04886
35516.3,0.04913
35761.2,0.04949
36009.6,0.04921
36261.4,0.04876
36516.7,0.04866
36775.7,0.04871
37038.4,0.04873
37304.9,0.04839
37575.2,0.04849
37849.5,0.04863
38127.8,0.04855
38410.2,0.04846
38696.8,0.04873
38987.8,0.04886
39283.2,0.04893
39583.0,0.04864
39887.5,0.04879
40196.7,0.04799
40510.8,0.04753
40829.8,0.04732
41153.8,0.04721
41483.0,0.04682
41817.6,0.04668
42157.5,0.04696
42503.1,0.04726
42854.4,0.04705
43211.5,0.04648
43574.6,0.04629
43943.9,0.04796
44319.5,0.04883
44701.5,0.04974
45090.2,0.04991
45485.8,0.05011
45888.3,0.05038
46298.0,0.05091
46715.1,0.0523
47139.8,0.054
47572.3,0.05419
48012.8,0.05453
48461.5,0.05421
48918.7,0.0544
49384.6,0.05523
49859.4,0.05344
