Database of Origin,University of Winnipeg Spectrophotometer Facility
Sample Description,8. Sulfates: RELAB + Nicolet spectra / Spectra all made consistently merged: Jan. / 10 / 2005
Date Added,2016-07-15 22:05:54.759920

Data ID,RPN_SUL_09          
Sample ID,SPT102
Mineral Name,Boussingalutite
Grain Size,45-90
Viewing Geometry,30 / 0 | 30
Resolution,5 / 1.3-129
Material Class,Sulfate

Wavelength
305.0,0.171687
310.0,0.171261
315.0,0.174075
320.0,0.176941
325.0,0.181364
330.0,0.187585
335.0,0.1948
340.0,0.203699
345.0,0.214411
350.0,0.225107
355.0,0.238012
360.0,0.251041
365.0,0.26478
370.0,0.278307
375.0,0.290735
380.0,0.304451
385.0,0.318126
390.0,0.331762
395.0,0.347129
400.0,0.361914
405.0,0.376109
410.0,0.389391
415.0,0.401019
420.0,0.410819
425.0,0.419402
430.0,0.427786
435.0,0.437832
440.0,0.44589
445.0,0.453528
450.0,0.460023
455.0,0.466594
460.0,0.472652
465.0,0.478925
470.0,0.483821
475.0,0.488958
480.0,0.496623
485.0,0.501225
490.0,0.506781
495.0,0.511622
500.0,0.517253
505.0,0.522772
510.0,0.527501
515.0,0.532819
520.0,0.537445
525.0,0.543777
530.0,0.546018
535.0,0.553062
540.0,0.557657
545.0,0.562184
550.0,0.567019
555.0,0.571811
560.0,0.577105
565.0,0.58245
570.0,0.585348
575.0,0.591496
580.0,0.595244
585.0,0.600827
590.0,0.605503
595.0,0.610408
600.0,0.615764
605.0,0.620081
610.0,0.62362
615.0,0.628275
620.0,0.632742
625.0,0.637307
630.0,0.640213
635.0,0.64544
640.0,0.649752
645.0,0.653012
650.0,0.656169
655.0,0.661479
660.0,0.66579
665.0,0.671332
670.0,0.67409
675.0,0.676958
680.0,0.68223
685.0,0.685115
690.0,0.689037
695.0,0.693301
700.0,0.695619
705.0,0.696892
710.0,0.701823
715.0,0.703676
720.0,0.706259
725.0,0.709878
730.0,0.711746
735.0,0.71429
740.0,0.717807
745.0,0.721988
750.0,0.721569
755.0,0.72514
760.0,0.727632
765.0,0.73015
770.0,0.732696
775.0,0.734265
780.0,0.736611
785.0,0.739166
790.0,0.739935
795.0,0.740666
800.0,0.744704
805.0,0.746364
810.0,0.745896
815.0,0.746863
820.0,0.748829
825.0,0.750824
830.0,0.751414
835.0,0.750464
840.0,0.753316
845.0,0.751516
850.0,0.753998
855.0,0.752904
860.0,0.752872
865.0,0.755138
870.0,0.755354
875.0,0.754799
880.0,0.753026
885.0,0.755842
890.0,0.755442
895.0,0.754167
900.0,0.754147
905.0,0.7541
910.0,0.75304
915.0,0.754609
920.0,0.753321
925.0,0.75371
930.0,0.753528
935.0,0.751241
940.0,0.754449
945.0,0.752402
950.0,0.754081
955.0,0.751452
960.0,0.750415
965.0,0.748807
970.0,0.748409
975.0,0.745771
980.0,0.746678
985.0,0.744734
990.0,0.746534
995.0,0.742827
1000.0,0.741068
1005.0,0.74088
1010.0,0.741993
1015.0,0.742851
1020.0,0.740071
1025.0,0.740067
1030.0,0.739918
1035.0,0.739281
1040.0,0.737598
1045.0,0.739892
1050.0,0.738341
1055.0,0.740046
1060.0,0.737622
1065.0,0.738602
1070.0,0.737529
1075.0,0.739785
1080.0,0.738841
1085.0,0.741276
1090.0,0.74078
1095.0,0.741933
1100.0,0.74143
1105.0,0.738688
1110.0,0.739568
1115.0,0.741422
1120.0,0.74254
1125.0,0.738971
1130.0,0.739667
1135.0,0.737897
1140.0,0.737914
1145.0,0.739516
1150.0,0.735207
1155.0,0.732739
1160.0,0.731965
1165.0,0.727548
1170.0,0.721874
1175.0,0.717869
1180.0,0.716577
1185.0,0.714979
1190.0,0.713163
1195.0,0.709787
1200.0,0.706077
1205.0,0.702921
1210.0,0.699034
1215.0,0.695743
1220.0,0.692209
1225.0,0.689197
1230.0,0.683897
1235.0,0.681728
1240.0,0.676431
1245.0,0.673739
1250.0,0.672357
1255.0,0.670573
1260.0,0.668133
1265.0,0.666811
1270.0,0.667481
1275.0,0.666069
1280.0,0.66779
1285.0,0.671389
1290.0,0.669629
1295.0,0.672209
1300.0,0.67473
1305.0,0.673152
1310.0,0.675196
1315.0,0.676822
1320.0,0.675288
1325.0,0.675234
1330.0,0.674357
1335.0,0.670395
1340.0,0.668869
1345.0,0.666132
1350.0,0.661553
1355.0,0.658454
1360.0,0.655175
1365.0,0.654349
1370.0,0.652146
1375.0,0.647183
1380.0,0.642984
1385.0,0.640871
1390.0,0.6377
1395.0,0.6291
1400.0,0.623759
1405.0,0.612893
1410.0,0.60524
1415.0,0.592472
1420.0,0.579194
1425.0,0.561065
1430.0,0.54095
1435.0,0.519527
1440.0,0.49694
1445.0,0.482537
1450.0,0.478313
1455.0,0.475165
1460.0,0.4674
1465.0,0.456318
1470.0,0.442603
1475.0,0.428803
1480.0,0.416593
1485.0,0.402161
1490.0,0.392839
1495.0,0.38647
1500.0,0.383085
1505.0,0.382266
1510.0,0.379788
1515.0,0.380867
1520.0,0.380366
1525.0,0.376932
1530.0,0.373919
1535.0,0.370368
1540.0,0.365746
1545.0,0.362089
1550.0,0.358543
1555.0,0.354185
1560.0,0.351529
1565.0,0.349664
1570.0,0.348946
1575.0,0.347844
1580.0,0.347701
1585.0,0.349188
1590.0,0.347715
1595.0,0.348504
1600.0,0.350392
1605.0,0.352096
1610.0,0.353691
1615.0,0.355611
1620.0,0.357932
1625.0,0.361233
1630.0,0.364507
1635.0,0.369479
1640.0,0.373063
1645.0,0.374515
1650.0,0.379456
1655.0,0.382988
1660.0,0.38735
1665.0,0.39228
1670.0,0.397791
1675.0,0.401468
1680.0,0.40353
1685.0,0.406664
1690.0,0.410052
1695.0,0.412918
1700.0,0.416637
1705.0,0.419517
1710.0,0.424395
1715.0,0.427403
1720.0,0.431619
1725.0,0.433212
1730.0,0.436023
1735.0,0.436083
1740.0,0.437077
1745.0,0.438433
1750.0,0.437685
1755.0,0.436062
1760.0,0.435431
1765.0,0.432718
1770.0,0.43304
1775.0,0.432475
1780.0,0.431809
1785.0,0.432
1790.0,0.432291
1795.0,0.433387
1800.0,0.435134
1805.0,0.436474
1810.0,0.437733
1815.0,0.439133
1820.0,0.440166
1825.0,0.442881
1830.0,0.441342
1835.0,0.442325
1840.0,0.441351
1845.0,0.441145
1850.0,0.439133
1855.0,0.434883
1860.0,0.431468
1865.0,0.426176
1870.0,0.417388
1875.0,0.409608
1880.0,0.39613
1885.0,0.382243
1890.0,0.36637
1895.0,0.346677
1900.0,0.327632
1905.0,0.307512
1910.0,0.287597
1915.0,0.266112
1920.0,0.245137
1925.0,0.223318
1930.0,0.20321
1935.0,0.182019
1940.0,0.166585
1945.0,0.16252
1950.0,0.163208
1955.0,0.161404
1960.0,0.153792
1965.0,0.146494
1970.0,0.138572
1975.0,0.13206
1980.0,0.127527
1985.0,0.123175
1990.0,0.121231
1995.0,0.119199
2000.0,0.119763
2005.0,0.118876
2010.0,0.118709
2015.0,0.116987
2020.0,0.11627
2025.0,0.114478
2030.0,0.114079
2035.0,0.11328
2040.0,0.113123
2045.0,0.113459
2050.0,0.114687
2055.0,0.116388
2060.0,0.118234
2065.0,0.120005
2070.0,0.120933
2075.0,0.122764
2080.0,0.124436
2085.0,0.124834
2090.0,0.12454
2095.0,0.123206
2100.0,0.121014
2105.0,0.118214
2110.0,0.115653
2115.0,0.112091
2120.0,0.107654
2125.0,0.104949
2130.0,0.103109
2135.0,0.101609
2140.0,0.099755
2145.0,0.098926
2150.0,0.098871
2155.0,0.099006
2160.0,0.1001
2165.0,0.10077
2170.0,0.102659
2175.0,0.10521
2180.0,0.108147
2185.0,0.112594
2190.0,0.117805
2195.0,0.123909
2200.0,0.13014
2205.0,0.136153
2210.0,0.140544
2215.0,0.144725
2220.0,0.14794
2225.0,0.152712
2230.0,0.159273
2235.0,0.164716
2240.0,0.170666
2245.0,0.176548
2250.0,0.182447
2255.0,0.188288
2260.0,0.194361
2265.0,0.200227
2270.0,0.205862
2275.0,0.208763
2280.0,0.210326
2285.0,0.209901
2290.0,0.209372
2295.0,0.207094
2300.0,0.204198
2305.0,0.202092
2310.0,0.200686
2315.0,0.199374
2320.0,0.197279
2325.0,0.194451
2330.0,0.191857
2335.0,0.187852
2340.0,0.183386
2345.0,0.178742
2350.0,0.173692
2355.0,0.168348
2360.0,0.163291
2365.0,0.157224
2370.0,0.150506
2375.0,0.14413
2380.0,0.137796
2385.0,0.132335
2390.0,0.126891
2395.0,0.122043
2400.0,0.117202
2405.0,0.113946
2410.0,0.11204
2415.0,0.110123
2420.0,0.108382
2425.0,0.108059
2430.0,0.109367
2435.0,0.111427
2440.0,0.113851
2445.0,0.116353
2450.0,0.12001
2455.0,0.122341
2460.0,0.124399
2465.0,0.124966
2470.0,0.12521
2475.0,0.124258
2480.0,0.123039
2485.0,0.120258
2490.0,0.117978
2495.0,0.114134
2500.0,0.111841
2505.0,0.108723
2510.0,0.106591
2515.0,0.105223
2520.0,0.10407
2525.0,0.103361
2530.0,0.102676
2535.0,0.10236
2540.0,0.102768
2545.0,0.1017
2550.0,0.10152
2555.0,0.09981
2560.0,0.099
2565.13,0.100819
2570.22,0.098882
2575.33,0.098992
2580.46,0.096285
2581.74,0.096095
2583.03,0.097364
2584.31,0.097943
2585.6,0.098147
2586.89,0.097501
2588.19,0.09707
2589.48,0.096643
2590.77,0.096099
2592.07,0.096141
2593.36,0.09589
2594.66,0.094723
2595.96,0.094613
2597.26,0.095427
2598.56,0.095857
2599.87,0.095646
2601.17,0.095724
2602.48,0.094736
2603.78,0.094089
2605.09,0.093174
2606.4,0.093228
2607.71,0.094412
2609.03,0.094244
2610.34,0.093359
2611.66,0.09335
2612.97,0.09317
2614.29,0.092771
2615.61,0.092122
2616.93,0.091981
2618.25,0.092285
2619.57,0.091789
2620.9,0.091878
2622.22,0.091467
2623.55,0.090719
2624.88,0.090369
2626.21,0.089792
2627.54,0.089298
2628.87,0.08935
2630.21,0.089196
2631.54,0.088818
2632.88,0.08758
2634.21,0.087652
2635.55,0.087751
2636.89,0.086849
2638.24,0.08681
2639.58,0.086567
2640.92,0.086035
2642.27,0.085259
2643.62,0.084249
2644.97,0.083749
2646.32,0.083872
2647.67,0.083617
2649.02,0.082561
2650.38,0.081702
2651.73,0.080726
2653.09,0.079996
2654.45,0.080286
2655.81,0.079394
2657.17,0.078282
2658.53,0.077573
2659.89,0.076602
2661.26,0.076506
2662.63,0.07581
2664.0,0.074992
2665.36,0.074197
2666.74,0.07313
2668.11,0.072196
2669.48,0.071323
2670.86,0.070454
2672.23,0.069633
2673.61,0.068458
2674.99,0.06742
2676.37,0.066658
2677.76,0.065917
2679.14,0.064222
2680.52,0.063297
2681.91,0.063313
2683.3,0.062419
2684.69,0.061656
2686.08,0.060355
2687.47,0.059196
2688.87,0.058911
2690.26,0.058445
2691.66,0.0572
2693.06,0.056288
2694.46,0.055084
2695.86,0.053507
2697.26,0.052324
2698.66,0.051841
2700.07,0.051272
2701.48,0.050811
2702.89,0.050479
2704.3,0.049334
2705.71,0.048251
2707.12,0.047348
2708.53,0.045989
2709.95,0.044876
2711.37,0.043436
2712.79,0.042364
2714.21,0.041602
2715.63,0.041546
2717.05,0.04062
2718.48,0.039072
2719.9,0.038477
2721.33,0.038269
2722.76,0.037486
2724.19,0.036606
2725.62,0.03597
2727.06,0.034514
2728.49,0.03295
2729.93,0.032528
2731.37,0.032193
2732.81,0.031614
2734.25,0.030084
2735.69,0.028586
2737.14,0.027868
2738.58,0.027777
2740.03,0.027643
2741.48,0.026324
2742.93,0.025661
2744.38,0.025142
2745.83,0.023965
2747.29,0.022534
2748.75,0.021915
2750.2,0.021361
2751.66,0.020589
2753.13,0.020054
2754.59,0.020346
2756.05,0.020351
2757.52,0.018832
2758.99,0.017575
2760.46,0.016537
2761.93,0.016188
2763.4,0.01598
2764.87,0.015609
2766.35,0.014829
2767.82,0.014305
2769.3,0.014147
2770.78,0.013613
2772.26,0.013835
2773.75,0.014015
2775.23,0.013034
2776.72,0.012201
2778.21,0.011337
2779.7,0.010446
2781.19,0.010435
2782.68,0.010698
2784.18,0.010665
2785.67,0.010464
2787.17,0.010069
2788.67,0.009205
2790.17,0.009142
2791.67,0.009069
2793.18,0.009126
2794.68,0.008662
2796.19,0.007873
2797.7,0.007921
2799.21,0.008068
2800.72,0.008391
2802.24,0.008647
2803.75,0.008182
2805.27,0.007746
2806.79,0.007865
2808.31,0.00788
2809.83,0.007652
2811.35,0.007414
2812.88,0.007617
2814.41,0.007693
2815.93,0.007723
2817.46,0.00782
2819.0,0.007437
2820.53,0.007086
2822.07,0.007366
2823.6,0.007321
2825.14,0.00689
2826.68,0.006876
2828.22,0.007572
2829.77,0.007229
2831.31,0.006381
2832.86,0.005747
2834.41,0.005785
2835.96,0.006204
2837.51,0.006702
2839.07,0.006477
2840.62,0.006703
2842.18,0.007013
2843.74,0.006454
2845.3,0.00658
2846.86,0.006585
2848.43,0.006126
2849.99,0.006113
2851.56,0.005963
2853.13,0.006024
2854.7,0.005878
2856.27,0.005957
2857.85,0.006326
2859.42,0.006685
2861.0,0.006563
2862.58,0.005804
2864.16,0.005577
2865.75,0.005475
2867.33,0.005621
2868.92,0.005935
2870.51,0.005723
2872.1,0.005427
2873.69,0.00542
2875.28,0.005473
2876.88,0.005476
2878.48,0.005766
2880.07,0.00532
2881.68,0.005346
2883.28,0.005868
2884.88,0.006103
2886.49,0.005775
2888.1,0.005717
2889.71,0.006496
2891.32,0.006255
2892.93,0.005302
2894.55,0.0049
2896.16,0.005622
2897.78,0.005957
2899.4,0.00549
2901.03,0.005443
2902.65,0.005248
2904.28,0.005031
2905.91,0.005139
2907.54,0.005306
2909.17,0.005238
2910.8,0.005168
2912.44,0.004879
2914.07,0.004836
2915.71,0.005496
2917.35,0.006059
2918.99,0.005988
2920.64,0.005574
2922.29,0.005446
2923.93,0.005408
2925.58,0.005538
2927.24,0.005355
2928.89,0.004927
2930.55,0.005259
2932.2,0.005482
2933.86,0.005397
2935.52,0.005405
2937.19,0.005685
2938.85,0.005792
2940.52,0.005518
2942.19,0.005075
2943.86,0.00513
2945.53,0.005847
2947.21,0.005988
2948.88,0.005583
2950.56,0.005773
2952.24,0.006007
2953.92,0.005764
2955.61,0.005779
2957.29,0.005848
2958.98,0.006013
2960.67,0.006265
2962.36,0.006311
2964.06,0.005953
2965.75,0.005541
2967.45,0.005377
2969.15,0.005549
2970.85,0.005568
2972.55,0.005391
2974.26,0.005476
2975.97,0.005905
2977.68,0.005867
2979.39,0.005999
2981.1,0.006082
2982.82,0.005838
2984.53,0.00578
2986.25,0.00574
2987.97,0.005836
2989.7,0.005706
2991.42,0.005879
2993.15,0.005736
2994.88,0.005802
2996.61,0.006351
2998.34,0.006034
3000.08,0.005737
3001.82,0.005822
3003.55,0.006426
3005.3,0.006261
3007.04,0.005691
3008.78,0.005867
3010.53,0.005785
3012.28,0.005947
3014.03,0.006064
3015.79,0.006034
3017.54,0.006244
3019.3,0.006225
3021.06,0.006173
3022.82,0.00663
3024.58,0.006927
3026.35,0.00676
3028.12,0.006899
3029.89,0.007061
3031.66,0.007283
3033.43,0.00738
3035.21,0.007226
3036.99,0.00707
3038.77,0.007028
3040.55,0.007059
3042.33,0.007021
3044.12,0.006755
3045.91,0.006765
3047.7,0.007127
3049.49,0.006911
3051.29,0.00645
3053.08,0.006595
3054.88,0.00681
3056.68,0.007229
3058.49,0.007795
3060.29,0.008
3062.1,0.007862
3063.91,0.007819
3065.72,0.008229
3067.54,0.008616
3069.35,0.008481
3071.17,0.00807
3072.99,0.008202
3074.81,0.007921
3076.64,0.007467
3078.47,0.007757
3080.29,0.008006
3082.13,0.008072
3083.96,0.008144
3085.79,0.008129
3087.63,0.008267
3089.47,0.008664
3091.31,0.008705
3093.16,0.008737
3095.01,0.008932
3096.85,0.008818
3098.71,0.008242
3100.56,0.008277
3102.41,0.008742
3104.27,0.008669
3106.13,0.00863
3107.99,0.008456
3109.86,0.008376
3111.73,0.008468
3113.59,0.008628
3115.47,0.008706
3117.34,0.008751
3119.21,0.008994
3121.09,0.009162
3122.97,0.008942
3124.86,0.009173
3126.74,0.009225
3128.63,0.009229
3130.52,0.009055
3132.41,0.008838
3134.3,0.009133
3136.2,0.009423
3138.1,0.009062
3140.0,0.008816
3141.9,0.008959
3143.81,0.009068
3145.71,0.009325
3147.62,0.009192
3149.54,0.009162
3151.45,0.00924
3153.37,0.00913
3155.29,0.009216
3157.21,0.009282
3159.13,0.008983
3161.06,0.009066
3162.99,0.00943
3164.92,0.009542
3166.85,0.009434
3168.79,0.009159
3170.72,0.008631
3172.67,0.008779
3174.61,0.009353
3176.55,0.009381
3178.5,0.009103
3180.45,0.00884
3182.4,0.008489
3184.36,0.008536
3186.32,0.008849
3188.27,0.008949
3190.24,0.009456
3192.2,0.009795
3194.17,0.009767
3196.14,0.010038
3198.11,0.010261
3200.08,0.009929
3202.06,0.009155
3204.04,0.009135
3206.02,0.009251
3208.0,0.009057
3209.99,0.008914
3211.98,0.008561
3213.97,0.008655
3215.96,0.008864
3217.96,0.008979
3219.96,0.008976
3221.96,0.009013
3223.96,0.008806
3225.97,0.008745
3227.98,0.00856
3229.99,0.008514
3232.0,0.009032
3234.02,0.009238
3236.04,0.009101
3238.06,0.009041
3240.08,0.009116
3242.11,0.00917
3244.14,0.00923
3246.17,0.009294
3248.2,0.009326
3250.24,0.008937
3252.28,0.008784
3254.32,0.00906
3256.37,0.009239
3258.41,0.009577
3260.46,0.010093
3262.51,0.009941
3264.57,0.009424
3266.63,0.009827
3268.69,0.010097
3270.75,0.010243
3272.81,0.010131
3274.88,0.009812
3276.95,0.009613
3279.02,0.009552
3281.1,0.009665
3283.18,0.009647
3285.26,0.009602
3287.34,0.00982
3289.43,0.009651
3291.51,0.009818
3293.61,0.009818
3295.7,0.009747
3297.8,0.009811
3299.9,0.010047
3302.0,0.010293
3304.1,0.010629
3306.21,0.010934
3308.32,0.010933
3310.43,0.010599
3312.55,0.0105
3314.66,0.010453
3316.79,0.010032
3318.91,0.009633
3321.03,0.009826
3323.16,0.009949
3325.29,0.009621
3327.43,0.009799
3329.57,0.010123
3331.71,0.010186
3333.85,0.010607
3335.99,0.010886
3338.14,0.011022
3340.29,0.010606
3342.45,0.010316
3344.6,0.010077
3346.76,0.010328
3348.92,0.01057
3351.09,0.010321
3353.26,0.010647
3355.43,0.011142
3357.6,0.011189
3359.78,0.010905
3361.96,0.01085
3364.14,0.011147
3366.32,0.011044
3368.51,0.010507
3370.7,0.010394
3372.89,0.010322
3375.09,0.010414
3377.29,0.010753
3379.49,0.010949
3381.69,0.010924
3383.9,0.011264
3386.11,0.011494
3388.32,0.011187
3390.54,0.010951
3392.76,0.010856
3394.98,0.010845
3397.21,0.011087
3399.43,0.011166
3401.66,0.011083
3403.9,0.010989
3406.13,0.011059
3408.37,0.011381
3410.61,0.01139
3412.86,0.011355
3415.11,0.011391
3417.36,0.010992
3419.61,0.010767
3421.87,0.01088
3424.13,0.011099
3426.39,0.010905
3428.66,0.010506
3430.93,0.010544
3433.2,0.010855
3435.48,0.011062
3437.76,0.011158
3440.04,0.011374
3442.32,0.011708
3444.61,0.011543
3446.9,0.011521
3449.19,0.011282
3451.49,0.01127
3453.79,0.011184
3456.09,0.010893
3458.4,0.0109
3460.7,0.011217
3463.02,0.011522
3465.33,0.011614
3467.65,0.011732
3469.97,0.011721
3472.29,0.011335
3474.62,0.010936
3476.95,0.010985
3479.29,0.011183
3481.62,0.01125
3483.96,0.011201
3486.3,0.011021
3488.65,0.011121
3491.0,0.010957
3493.35,0.010853
3495.71,0.011318
3498.07,0.011404
3500.43,0.011728
3502.79,0.011926
3505.16,0.011903
3507.53,0.012232
3509.91,0.012151
3512.29,0.011837
3514.67,0.011706
3517.05,0.011981
3519.44,0.012079
3521.83,0.011708
3524.23,0.011755
3526.62,0.012209
3529.02,0.012375
3531.43,0.012041
3533.83,0.012059
3536.24,0.012476
3538.66,0.012852
3541.08,0.01291
3543.5,0.012647
3545.92,0.013135
3548.35,0.013131
3550.78,0.012624
3553.21,0.012881
3555.65,0.013356
3558.09,0.013607
3560.53,0.013535
3562.98,0.013378
3565.43,0.01355
3567.88,0.014013
3570.34,0.014127
3572.8,0.013929
3575.27,0.013837
3577.73,0.013752
3580.2,0.013844
3582.68,0.014
3585.16,0.014024
3587.64,0.014413
3590.12,0.014782
3592.61,0.014646
3595.1,0.014831
3597.6,0.015222
3600.09,0.015188
3602.6,0.015051
3605.1,0.01488
3607.61,0.015035
3610.12,0.015095
3612.64,0.014963
3615.16,0.014961
3617.68,0.015189
3620.21,0.015373
3622.74,0.015656
3625.27,0.015967
3627.81,0.01601
3630.35,0.01618
3632.89,0.016302
3635.44,0.016072
3637.99,0.016096
3640.54,0.01676
3643.1,0.017125
3645.66,0.017092
3648.23,0.017134
3650.8,0.016878
3653.37,0.01715
3655.95,0.017435
3658.53,0.017457
3661.11,0.017573
3663.7,0.017694
3666.29,0.017694
3668.89,0.017889
3671.48,0.017967
3674.09,0.017823
3676.69,0.018019
3679.3,0.018163
3681.91,0.018064
3684.53,0.018369
3687.15,0.018758
3689.78,0.019074
3692.4,0.01904
3695.04,0.019105
3697.67,0.019064
3700.31,0.01934
3702.95,0.019439
3705.6,0.019363
3708.25,0.019619
3710.91,0.020091
3713.56,0.02006
3716.23,0.019911
3718.89,0.019923
3721.56,0.02014
3724.23,0.020403
3726.91,0.020807
3729.59,0.020849
3732.28,0.021118
3734.97,0.021467
3737.66,0.021297
3740.36,0.021255
3743.06,0.021385
3745.76,0.021716
3748.47,0.02195
3751.18,0.022067
3753.9,0.022111
3756.62,0.022031
3759.34,0.022353
3762.07,0.022796
3764.8,0.022669
3767.54,0.022435
3770.28,0.022602
3773.02,0.022994
3775.77,0.023258
3778.52,0.023048
3781.28,0.023173
3784.04,0.023653
3786.8,0.023741
3789.57,0.023765
3792.34,0.024156
3795.12,0.024488
3797.9,0.024652
3800.69,0.024681
3803.47,0.024944
3806.27,0.025187
3809.06,0.025265
3811.86,0.025351
3814.67,0.025591
3817.48,0.025651
3820.29,0.025851
3823.11,0.026271
3825.93,0.026474
3828.76,0.026299
3831.59,0.026473
3834.42,0.026672
3837.26,0.026565
3840.1,0.026611
3842.95,0.026997
3845.8,0.027378
3848.65,0.027492
3851.51,0.027703
3854.38,0.027913
3857.24,0.027751
3860.12,0.027709
3862.99,0.027843
3865.87,0.02792
3868.76,0.028217
3871.65,0.028543
3874.54,0.028706
3877.44,0.02899
3880.34,0.028893
3883.25,0.02892
3886.16,0.028936
3889.07,0.029021
3891.99,0.029025
3894.92,0.029186
3897.85,0.029426
3900.78,0.029418
3903.72,0.029219
3906.66,0.029256
3909.6,0.029471
3912.55,0.029708
3915.51,0.029668
3918.47,0.029572
3921.43,0.029545
3924.4,0.029664
3927.38,0.029854
3930.35,0.02997
3933.33,0.029887
3936.32,0.029666
3939.31,0.029714
3942.31,0.029958
3945.31,0.029792
3948.31,0.029929
3951.32,0.030106
3954.34,0.029914
3957.35,0.029841
3960.38,0.030003
3963.41,0.029851
3966.44,0.029614
3969.48,0.029809
3972.52,0.029794
3975.56,0.029764
3978.61,0.029804
3981.67,0.029991
3984.73,0.030015
3987.8,0.030147
3990.87,0.030177
3993.94,0.029668
3997.02,0.029387
4000.1,0.029476
4003.19,0.029764
4006.29,0.029757
4009.39,0.029658
4012.49,0.029738
4015.6,0.029928
4018.71,0.029821
4021.83,0.029517
4024.95,0.029538
4028.08,0.029789
4031.21,0.029941
4034.35,0.030011
4037.49,0.029923
4040.64,0.030058
4043.79,0.030103
4046.94,0.029903
4050.11,0.029995
4053.27,0.030092
4056.44,0.029971
4059.62,0.029819
4062.8,0.029754
4065.99,0.02977
4069.18,0.029773
4072.38,0.029783
4075.58,0.029739
4078.78,0.029628
4082.0,0.029634
4085.21,0.029789
4088.43,0.030041
4091.66,0.030005
4094.89,0.02991
4098.13,0.029781
4101.37,0.029503
4104.62,0.029423
4107.87,0.029535
4111.13,0.029755
4114.39,0.02975
4117.66,0.029642
4120.93,0.029548
4124.21,0.029538
4127.5,0.02958
4130.79,0.029432
4134.08,0.029418
4137.38,0.029622
4140.68,0.029811
4143.99,0.029474
4147.31,0.029241
4150.63,0.02943
4153.95,0.029423
4157.29,0.029444
4160.62,0.029383
4163.96,0.029052
4167.31,0.028918
4170.66,0.029079
4174.02,0.029274
4177.39,0.029317
4180.75,0.02927
4184.13,0.029318
4187.51,0.029213
4190.89,0.028972
4194.28,0.028793
4197.68,0.028821
4201.08,0.028973
4204.49,0.029163
4207.9,0.029042
4211.32,0.028898
4214.74,0.029053
4218.17,0.029059
4221.61,0.028854
4225.05,0.028724
4228.5,0.028431
4231.95,0.028289
4235.4,0.028241
4238.87,0.028227
4242.34,0.027831
4245.81,0.02767
4249.29,0.027805
4252.78,0.027495
4256.27,0.027327
4259.77,0.027643
4263.27,0.027527
4266.78,0.027104
4270.29,0.026926
4273.81,0.026902
4277.34,0.027163
4280.87,0.027144
4284.41,0.027034
4287.95,0.0271
4291.5,0.026691
4295.06,0.026158
4298.62,0.026243
4302.19,0.026618
4305.76,0.026276
4309.34,0.025929
4312.92,0.025684
4316.52,0.02541
4320.11,0.025489
4323.72,0.02546
4327.32,0.025393
4330.94,0.025291
4334.56,0.025166
4338.19,0.025108
4341.82,0.02509
4345.46,0.024926
4349.11,0.024882
4352.76,0.024876
4356.42,0.024585
4360.08,0.024392
4363.75,0.024565
4367.43,0.024217
4371.11,0.023953
4374.8,0.024036
4378.49,0.023863
4382.19,0.023895
4385.9,0.024111
4389.61,0.023912
4393.33,0.023638
4397.06,0.023442
4400.79,0.023435
4404.53,0.02346
4408.28,0.023185
4412.03,0.022957
4415.79,0.022913
4419.55,0.023203
4423.32,0.023164
4427.1,0.022983
4430.88,0.023065
4434.68,0.023017
4438.47,0.022831
4442.28,0.022731
4446.08,0.022596
4449.9,0.022432
4453.72,0.022453
4457.55,0.02226
4461.39,0.022121
4465.23,0.022256
4469.08,0.022405
4472.94,0.022527
4476.8,0.022516
4480.67,0.022583
4484.55,0.02257
4488.43,0.022504
4492.32,0.022528
4496.21,0.022273
4500.12,0.022186
4504.03,0.022404
4507.94,0.022485
4511.87,0.022482
4515.8,0.022653
4519.73,0.02263
4523.68,0.022518
4527.63,0.02242
4531.59,0.022388
4535.55,0.022416
4539.52,0.022481
4543.5,0.022418
4547.49,0.022483
4551.48,0.022432
4555.48,0.022323
4559.49,0.022407
4563.5,0.022552
4567.52,0.022724
4571.55,0.022696
4575.58,0.022574
4579.63,0.022568
4583.67,0.022919
4587.73,0.023061
4591.79,0.022943
4595.86,0.022861
4599.94,0.022948
4604.03,0.022827
4608.12,0.022693
4612.22,0.022669
4616.33,0.022905
4620.44,0.022967
4624.56,0.022932
4628.69,0.022858
4632.83,0.022738
4636.97,0.02273
4641.12,0.022899
4645.28,0.02308
4649.45,0.023075
4653.62,0.022743
4657.8,0.022702
4661.99,0.02285
4666.19,0.022799
4670.39,0.022524
4674.6,0.022361
4678.82,0.022175
4683.05,0.022094
4687.28,0.0222
4691.52,0.022343
4695.77,0.022275
4700.03,0.021924
4704.3,0.021684
4708.57,0.021759
4712.85,0.022011
4717.14,0.022063
4721.43,0.02202
4725.74,0.022018
4730.05,0.021835
4734.37,0.022024
4738.7,0.022116
4743.03,0.022021
4747.38,0.022051
4751.73,0.022132
4756.09,0.022241
4760.45,0.022305
4764.83,0.02208
4769.21,0.022027
4773.6,0.021887
4778.0,0.021887
4782.41,0.021969
4786.83,0.021998
4791.25,0.022107
4795.68,0.022106
4800.13,0.021782
4804.57,0.021754
4809.03,0.021891
4813.5,0.021935
4817.97,0.021759
4822.45,0.021729
4826.94,0.021663
4831.44,0.02148
4835.95,0.021464
4840.46,0.021415
4844.99,0.021442
4849.52,0.021617
4854.06,0.021379
4858.61,0.020988
4863.17,0.021016
4867.73,0.02107
4872.31,0.020901
4876.89,0.020744
4881.48,0.020406
4886.08,0.020233
4890.69,0.020435
4895.31,0.020595
4899.94,0.020767
4904.57,0.021042
4909.22,0.021102
4913.87,0.021014
4918.53,0.021105
4923.21,0.021477
4927.88,0.021515
4932.57,0.021406
4937.27,0.02168
4941.98,0.021932
4946.69,0.02197
4951.42,0.022227
4956.15,0.022279
4960.9,0.022108
4965.65,0.022233
4970.41,0.022517
4975.18,0.022452
4979.96,0.02231
4984.75,0.022437
4989.54,0.022465
4994.35,0.022572
4999.17,0.022865
5003.99,0.023091
5008.83,0.02308
5013.67,0.02294
5018.52,0.022927
5023.39,0.023085
5028.26,0.023246
5033.14,0.023446
5038.03,0.023364
5042.93,0.023358
5047.84,0.023514
5052.76,0.023528
5057.69,0.02358
5062.63,0.023887
5067.58,0.024007
5072.54,0.023975
5077.51,0.024032
5082.49,0.023867
5087.47,0.023935
5092.47,0.024005
5097.48,0.024169
5102.5,0.024177
5107.52,0.024099
5112.56,0.024247
5117.61,0.024135
5122.66,0.024209
5127.73,0.024498
5132.81,0.0245
5137.89,0.024463
5142.99,0.024433
5148.1,0.024444
5153.22,0.024587
5158.34,0.024628
5163.48,0.024515
5168.63,0.024485
5173.79,0.024646
5178.96,0.024598
5184.13,0.024403
5189.32,0.024429
5194.52,0.024445
5199.73,0.024349
5204.96,0.023947
5210.19,0.023896
5215.43,0.024059
5220.68,0.024028
5225.94,0.023906
5231.22,0.023786
5236.5,0.023747
5241.79,0.023723
5247.1,0.023453
5252.42,0.023135
5257.74,0.023088
5263.08,0.022939
5268.43,0.022776
5273.79,0.022692
5279.16,0.022606
5284.54,0.022487
5289.93,0.022033
5295.34,0.021761
5300.75,0.021935
5306.18,0.021921
5311.61,0.02153
5317.06,0.021237
5322.52,0.021104
5327.99,0.020901
5333.47,0.020884
5338.96,0.020791
5344.47,0.020384
5349.98,0.020197
5355.51,0.020113
5361.05,0.01996
5366.6,0.019848
5372.16,0.019665
5377.73,0.019473
5383.32,0.019305
5388.91,0.019162
5394.52,0.019073
5400.14,0.01906
5405.77,0.01913
5411.41,0.018887
5417.07,0.018526
5422.74,0.018356
5428.41,0.018225
5434.1,0.018148
5439.81,0.018088
5445.52,0.018067
5451.25,0.01795
5456.98,0.017836
5462.73,0.017646
5468.5,0.017557
5474.27,0.017499
5480.06,0.017363
5485.86,0.017188
5491.67,0.016924
5497.49,0.016893
5503.33,0.016883
5509.18,0.016619
5515.04,0.016579
5520.91,0.016635
5526.8,0.016538
5532.69,0.016298
5538.61,0.016081
5544.53,0.016032
5550.47,0.015816
5556.41,0.015691
5562.38,0.015673
5568.35,0.015618
5574.34,0.01555
5580.34,0.015352
5586.35,0.015133
5592.38,0.015077
5598.42,0.015063
5604.47,0.014884
5610.54,0.014778
5616.61,0.014675
5622.71,0.014454
5628.81,0.014432
5634.93,0.0144
5641.06,0.014245
5647.21,0.014113
5653.36,0.014082
5659.54,0.01402
5665.72,0.013812
5671.92,0.013611
5678.13,0.013584
5684.36,0.013393
5690.6,0.013295
5696.85,0.013047
5703.12,0.012806
5709.4,0.012806
5715.69,0.012872
5722.0,0.012843
5728.33,0.012576
5734.66,0.012139
5741.01,0.012075
5747.38,0.012169
5753.76,0.011869
5760.15,0.011363
5766.56,0.011242
5772.98,0.011147
5779.41,0.011067
5785.86,0.011147
5792.33,0.011067
5798.81,0.010803
5805.3,0.010646
5811.81,0.010454
5818.33,0.01025
5824.87,0.010004
5831.42,0.009944
5837.99,0.009927
5844.57,0.009755
5851.17,0.00961
5857.78,0.009368
5864.41,0.009114
5871.05,0.009119
5877.7,0.009371
5884.38,0.009356
5891.06,0.009034
5897.76,0.008863
5904.48,0.008795
5911.21,0.008681
5917.96,0.008758
5924.73,0.008693
5931.5,0.008772
5938.3,0.008934
5945.11,0.009029
5951.93,0.008979
5958.78,0.008889
5965.63,0.008795
5972.51,0.00859
5979.39,0.008579
5986.3,0.008739
5993.22,0.008893
6000.16,0.008859
6007.11,0.008808
6014.08,0.00893
6021.06,0.008919
6028.06,0.009036
6035.08,0.009369
6042.12,0.009395
6049.17,0.009184
6056.23,0.009102
6063.32,0.009301
6070.42,0.009351
6077.53,0.009571
6084.67,0.009692
6091.82,0.009673
6098.98,0.009694
6106.17,0.009866
6113.37,0.009812
6120.58,0.009554
6127.82,0.009647
6135.07,0.009905
6142.34,0.009948
6149.63,0.009807
6156.93,0.009889
6164.25,0.00995
6171.59,0.00986
6178.95,0.009872
6186.32,0.00981
6193.71,0.009946
6201.12,0.010175
6208.54,0.010215
6215.99,0.010248
6223.45,0.010274
6230.93,0.010212
6238.43,0.0102
6245.95,0.010291
6253.48,0.010295
6261.03,0.010233
6268.6,0.01023
6276.19,0.010443
6283.8,0.010503
6291.43,0.010567
6299.07,0.010785
6306.73,0.010837
6314.42,0.010586
6322.12,0.010603
6329.84,0.010844
6337.57,0.010799
6345.33,0.010473
6353.11,0.010255
6360.9,0.010386
6368.72,0.01057
6376.55,0.010414
6384.4,0.010192
6392.27,0.010335
6400.17,0.01044
6408.08,0.01046
6416.01,0.01021
6423.96,0.009948
6431.93,0.009861
6439.92,0.009788
6447.93,0.009932
6455.96,0.009989
6464.01,0.009881
6472.08,0.009694
6480.17,0.009438
6488.28,0.009262
6496.41,0.009061
6504.56,0.009112
6512.73,0.009047
6520.92,0.008912
6529.14,0.008773
6537.37,0.008554
6545.63,0.008477
6553.9,0.008609
6562.2,0.008498
6570.51,0.008117
6578.85,0.007722
6587.21,0.00748
6595.59,0.007244
6603.99,0.007101
6612.42,0.007081
6620.86,0.007193
6629.33,0.00723
6637.82,0.006868
6646.33,0.006479
6654.86,0.00614
6663.41,0.005922
6671.99,0.005834
6680.59,0.005783
6689.21,0.005585
6697.85,0.005388
6706.51,0.005152
6715.2,0.004993
6723.91,0.005083
6732.64,0.005189
6741.4,0.005239
6750.18,0.005217
6758.98,0.005331
6767.8,0.00546
6776.65,0.005638
6785.52,0.005709
6794.41,0.005884
6803.33,0.006139
6812.27,0.006132
6821.23,0.006245
6830.22,0.006376
6839.23,0.006373
6848.26,0.006324
6857.32,0.006336
6866.4,0.006416
6875.51,0.006616
6884.64,0.006802
6893.8,0.006867
6902.98,0.00687
6912.18,0.006959
6921.41,0.007267
6930.66,0.007685
6939.94,0.008084
6949.24,0.008391
6958.57,0.008936
6967.92,0.009596
6977.3,0.009997
6986.7,0.010331
6996.13,0.010634
7005.59,0.010735
7015.07,0.010738
7024.57,0.01074
7034.1,0.01075
7043.66,0.010841
7053.25,0.010928
7062.85,0.010845
7072.49,0.010774
7082.15,0.010507
7091.84,0.010353
7101.55,0.010337
7111.3,0.010299
7121.06,0.010381
7130.86,0.010308
7140.68,0.010116
7150.53,0.009929
7160.41,0.00975
7170.31,0.009636
7180.24,0.009573
7190.2,0.009481
7200.19,0.009463
7210.2,0.009476
7220.24,0.009496
7230.31,0.009404
7240.41,0.009151
7250.54,0.00911
7260.69,0.009145
7270.88,0.009186
7281.09,0.009195
7291.33,0.009134
7301.6,0.009005
7311.9,0.008972
7322.22,0.009095
7332.58,0.009041
7342.97,0.008976
7353.38,0.009156
7363.83,0.009337
7374.3,0.00926
7384.81,0.00927
7395.34,0.009317
7405.91,0.009439
7416.5,0.009528
7427.13,0.009515
7437.78,0.00944
7448.47,0.009497
7459.19,0.009412
7469.94,0.009286
7480.71,0.009317
7491.52,0.009433
7502.37,0.009495
7513.24,0.009432
7524.14,0.009345
7535.08,0.009326
7546.05,0.009292
7557.05,0.009128
7568.08,0.009037
7579.15,0.008863
7590.24,0.008839
7601.37,0.008907
7612.53,0.008815
7623.73,0.008805
7634.96,0.008839
7646.22,0.008769
7657.51,0.008644
7668.84,0.008692
7680.2,0.008839
7691.59,0.008773
7703.02,0.008664
7714.49,0.008568
7725.98,0.008579
7737.52,0.008644
7749.08,0.008711
7760.68,0.00874
7772.32,0.008579
7783.99,0.008522
7795.69,0.008604
7807.43,0.008637
7819.21,0.008643
7831.02,0.008644
7842.87,0.008656
7854.75,0.008897
7866.67,0.009022
7878.62,0.00905
7890.62,0.008996
7902.64,0.009192
7914.71,0.009589
7926.81,0.009849
7938.95,0.0098
7951.13,0.009794
7963.34,0.010009
7975.59,0.010029
7987.88,0.010161
8000.21,0.010527
8012.57,0.010714
8024.98,0.010822
8037.42,0.010988
8049.9,0.01114
8062.42,0.011341
8074.98,0.011641
8087.57,0.012068
8100.21,0.012229
8112.89,0.012331
8125.6,0.012666
8138.36,0.012945
8151.16,0.012943
8163.99,0.012909
8176.87,0.01327
8189.79,0.013717
8202.75,0.014011
8215.75,0.014283
8228.79,0.014555
8241.87,0.014765
8254.99,0.015077
8268.16,0.015396
8281.37,0.015609
8294.62,0.015881
8307.91,0.016149
8321.24,0.016483
8334.62,0.016825
8348.04,0.017069
8361.51,0.017379
8375.02,0.017866
8388.57,0.018449
8402.16,0.018754
8415.8,0.019012
8429.49,0.019458
8443.22,0.019968
8456.99,0.020639
8470.81,0.021447
8484.67,0.022521
8498.58,0.02348
8512.54,0.024066
8526.54,0.024945
8540.58,0.025863
8554.68,0.026838
8568.82,0.027752
8583.0,0.02851
8597.24,0.02925
8611.52,0.030116
8625.85,0.030852
8640.23,0.031637
8654.65,0.032328
8669.12,0.032754
8683.64,0.033191
8698.21,0.033617
8712.83,0.033814
8727.5,0.033692
8742.22,0.033329
8756.99,0.033037
8771.8,0.032744
8786.67,0.032611
8801.59,0.032566
8816.56,0.03245
8831.58,0.03239
8846.65,0.032028
8861.77,0.031687
8876.94,0.031745
8892.17,0.031642
8907.45,0.031505
8922.78,0.031645
8938.16,0.031627
8953.6,0.031633
8969.09,0.032191
8984.64,0.03264
9000.23,0.032658
9015.89,0.032644
9031.59,0.032804
9047.36,0.032682
9063.17,0.032953
9079.05,0.033503
9094.97,0.033761
9110.96,0.033678
9127.0,0.033593
9143.1,0.03374
9159.25,0.034175
9175.46,0.034358
9191.73,0.034565
9208.06,0.034626
9224.44,0.034536
9240.88,0.034715
9257.38,0.034698
9273.94,0.034482
9290.56,0.034046
9307.24,0.033636
9323.98,0.033252
9340.78,0.03253
9357.64,0.031885
9374.57,0.031406
9391.55,0.030574
9408.59,0.029735
9425.7,0.029145
9442.87,0.028438
9460.1,0.027695
9477.4,0.027033
9494.75,0.026656
9512.17,0.026458
9529.66,0.025945
9547.21,0.025287
9564.83,0.025063
9582.5,0.024772
9600.25,0.024253
9618.06,0.023578
9635.94,0.023045
9653.88,0.022761
9671.89,0.022661
9689.97,0.022231
9708.12,0.021655
9726.33,0.021436
9744.62,0.021113
9762.97,0.020498
9781.39,0.020519
9799.88,0.020591
9818.44,0.02023
9837.07,0.01989
9855.77,0.019808
9874.54,0.019488
9893.39,0.019334
9912.3,0.019078
9931.29,0.018828
9950.36,0.018943
9969.49,0.018953
9988.7,0.018742
10007.98,0.018295
10027.34,0.018192
10046.77,0.018288
10066.28,0.018254
10085.87,0.018049
10105.53,0.017795
10125.26,0.017524
10145.08,0.017092
10164.97,0.016317
10184.94,0.015697
10204.99,0.016069
10225.12,0.01697
10245.33,0.017153
10265.61,0.016954
10285.98,0.017099
10306.43,0.01731
10326.96,0.017568
10347.57,0.017727
10368.27,0.017583
10389.05,0.017364
10409.91,0.017388
10430.86,0.01774
10451.88,0.018023
10473.0,0.018153
10494.2,0.018162
10515.49,0.018168
10536.86,0.018306
10558.32,0.018421
10579.87,0.018395
10601.5,0.018332
10623.23,0.018099
10645.04,0.017897
10666.94,0.018037
10688.94,0.018374
10711.02,0.018266
10733.2,0.017986
10755.47,0.017728
10777.83,0.018111
10800.28,0.018285
10822.83,0.017591
10845.47,0.017477
10868.21,0.017706
10891.04,0.017698
10913.97,0.017615
10936.99,0.017735
10960.12,0.01746
10983.34,0.017215
11006.66,0.017108
11030.07,0.01692
11053.59,0.016641
11077.21,0.016514
11100.93,0.016421
11124.75,0.016179
11148.68,0.016405
11172.71,0.016571
11196.84,0.016252
11221.07,0.015784
11245.41,0.015591
11269.86,0.015794
11294.41,0.01558
11319.07,0.015134
11343.84,0.015232
11368.72,0.015181
11393.7,0.014903
11418.8,0.014878
11444.01,0.015018
11469.33,0.014941
11494.76,0.014756
11520.3,0.014525
11545.96,0.01428
11571.73,0.014305
11597.62,0.01421
11623.62,0.014041
11649.74,0.013995
11675.98,0.013632
11702.34,0.01383
11728.81,0.013628
11755.41,0.013262
11782.13,0.013352
11808.96,0.013229
11835.92,0.013099
11863.01,0.013481
11890.22,0.013368
11917.55,0.012805
11945.01,0.012649
11972.6,0.01303
12000.31,0.013235
12028.16,0.013136
12056.13,0.012831
12084.23,0.012307
12112.46,0.012071
12140.83,0.012208
12169.33,0.012193
12197.96,0.012075
12226.73,0.01186
12255.64,0.01207
12284.68,0.012578
12313.86,0.012251
12343.18,0.011964
12372.64,0.012436
12402.24,0.012272
12431.98,0.011949
12461.86,0.012062
12491.89,0.01187
12522.07,0.011832
12552.38,0.011927
12582.85,0.01198
12613.47,0.012243
12644.23,0.012261
12675.15,0.011959
12706.21,0.012133
12737.43,0.012089
12768.81,0.01169
12800.33,0.011745
12832.02,0.011877
12863.86,0.011525
12895.86,0.011498
12928.02,0.011765
12960.34,0.012237
12992.82,0.012418
13025.46,0.011872
13058.27,0.01108
13091.25,0.011138
13124.39,0.01119
13157.7,0.011287
13191.18,0.011415
13224.83,0.011554
13258.66,0.011634
13292.65,0.011715
13326.83,0.011575
13361.17,0.011567
13395.7,0.011689
13430.4,0.011307
13465.29,0.011299
13500.35,0.011469
13535.6,0.0117
13571.03,0.011551
13606.65,0.011383
13642.46,0.011079
13678.46,0.010838
13714.64,0.011219
13751.02,0.011295
13787.59,0.011077
13824.36,0.011515
13861.32,0.011749
13898.49,0.011648
13935.85,0.011778
13973.41,0.011647
14011.17,0.011202
14049.15,0.010846
14087.32,0.010701
14125.71,0.010611
14164.3,0.010678
14203.11,0.010925
14242.13,0.011109
14281.36,0.010786
14320.81,0.010684
14360.49,0.010742
14400.38,0.010703
14440.49,0.010765
14480.82,0.010452
14521.39,0.010227
14562.18,0.010215
14603.2,0.010071
14644.45,0.010031
14685.93,0.010478
14727.66,0.010861
14769.62,0.010557
14811.81,0.010272
14854.25,0.01008
14896.94,0.010214
14939.87,0.010148
14983.05,0.009984
15026.48,0.010485
15070.16,0.010774
15114.1,0.010814
15158.29,0.010681
15202.74,0.010844
15247.46,0.010982
15292.43,0.011061
15337.68,0.01108
15383.19,0.01129
15428.97,0.011423
15475.03,0.01164
15521.36,0.011975
15567.97,0.012155
15614.87,0.01215
15662.04,0.012082
15709.5,0.012218
15757.25,0.013083
15805.29,0.01367
15853.62,0.01438
15902.26,0.015853
15951.19,0.016517
16000.42,0.016449
16049.95,0.017055
16099.8,0.017569
16149.95,0.017811
16200.42,0.018199
16251.21,0.01834
16302.31,0.018631
16353.74,0.01919
16405.49,0.019361
16457.57,0.01904
16509.98,0.018542
16562.73,0.018105
16615.82,0.018297
16669.24,0.018624
16723.02,0.01803
16777.14,0.017461
16831.61,0.016869
16886.43,0.016823
16941.62,0.016757
16997.16,0.016308
17053.08,0.016342
17109.36,0.016097
17166.01,0.015404
17223.04,0.014759
17280.45,0.015282
17338.24,0.016335
17396.43,0.016178
17455.0,0.015617
17513.97,0.015755
17573.34,0.015333
17633.11,0.014951
17693.29,0.015191
17753.89,0.015736
17814.9,0.015718
17876.33,0.015937
17938.18,0.016446
18000.47,0.016952
18063.19,0.016476
18126.35,0.015655
18189.95,0.015291
18254.0,0.015988
18318.5,0.01583
18383.46,0.014998
18448.88,0.015693
18514.77,0.016159
18581.13,0.015117
18647.97,0.015525
18715.29,0.016437
18783.1,0.015976
18851.4,0.01593
18920.2,0.015803
18989.51,0.015727
19059.32,0.016148
19129.65,0.015788
19200.5,0.015372
19271.88,0.015297
19343.79,0.014979
19416.24,0.01466
19489.23,0.014842
19562.77,0.014552
19636.88,0.014063
19711.54,0.01475
19786.78,0.015433
19862.59,0.015764
19938.98,0.015433
20015.96,0.014076
20093.55,0.013841
20171.73,0.016008
20250.53,0.01656
20329.94,0.015777
20409.98,0.016026
20490.65,0.016808
20571.96,0.016706
20653.92,0.016079
20736.54,0.016347
20819.82,0.016861
20903.77,0.016758
20988.4,0.016174
21073.72,0.017145
21159.73,0.017471
21246.46,0.01702
21333.89,0.01651
21422.04,0.016278
21510.93,0.017406
21600.56,0.018378
21690.94,0.016874
21782.08,0.016354
21873.99,0.01496
21966.67,0.014945
22060.15,0.016291
22154.42,0.015654
22249.51,0.015192
22345.41,0.015392
22442.14,0.016385
22539.72,0.015562
22638.14,0.014309
22737.43,0.013297
22837.6,0.012589
22938.65,0.013165
23040.6,0.013935
23143.46,0.01409
23247.24,0.013273
23351.96,0.012967
23457.63,0.013218
23564.25,0.014676
23671.85,0.014777
23780.44,0.010887
23890.02,0.009946
24000.63,0.011671
24112.26,0.011195
24224.93,0.011469
24338.66,0.012797
24453.47,0.012436
24569.36,0.016251
24686.36,0.020172
24804.47,0.019238
24923.73,0.016526
25044.13,0.016638
25165.71,0.016671
25288.46,0.016841
25412.43,0.011909
25537.61,0.007792
25664.04,0.010095
25791.72,0.013101
25920.68,0.014462
