Database of Origin,University of Winnipeg Spectrophotometer Facility
Sample Description,9.2. MAGNETITE: Merged RELAB & Nicole / Merged at 2.5 um / different viewing geometry
Date Added,2016-07-15 22:03:00.066254

Data ID,RPN_MAG_04          
Sample ID,MAG104
Mineral Name,Magnetite
Grain Size,<45
Viewing Geometry,30 / 0 | 30
Resolution,1.2-129
Material Class,Magnetite

Wavelength
305.0,0.044921
310.0,0.045399
315.0,0.045383
320.0,0.04733
325.0,0.049061
330.0,0.048418
335.0,0.049114
340.0,0.050068
345.0,0.050617
350.0,0.050589
355.0,0.050773
360.0,0.051758
365.0,0.051876
370.0,0.051988
375.0,0.052691
380.0,0.052105
385.0,0.052575
390.0,0.052442
395.0,0.05256
400.0,0.05251
405.0,0.052667
410.0,0.052416
415.0,0.052378
420.0,0.051942
425.0,0.051979
430.0,0.051838
435.0,0.05173
440.0,0.051375
445.0,0.051075
450.0,0.050935
455.0,0.050862
460.0,0.050593
465.0,0.050457
470.0,0.050325
475.0,0.050321
480.0,0.05036
485.0,0.05027
490.0,0.050236
495.0,0.050134
500.0,0.050032
505.0,0.049936
510.0,0.049906
515.0,0.049905
520.0,0.049874
525.0,0.050278
530.0,0.050281
535.0,0.050335
540.0,0.050525
545.0,0.050502
550.0,0.05059
555.0,0.05058
560.0,0.050611
565.0,0.050546
570.0,0.050518
575.0,0.050543
580.0,0.050546
585.0,0.050597
590.0,0.050594
595.0,0.050573
600.0,0.050611
605.0,0.050623
610.0,0.050847
615.0,0.05098
620.0,0.051065
625.0,0.051144
630.0,0.051297
635.0,0.051217
640.0,0.051271
645.0,0.051093
650.0,0.051131
655.0,0.050987
660.0,0.050746
665.0,0.050659
670.0,0.050539
675.0,0.050348
680.0,0.05024
685.0,0.050057
690.0,0.049871
695.0,0.049589
700.0,0.049121
705.0,0.049001
710.0,0.048942
715.0,0.048687
720.0,0.0485
725.0,0.048586
730.0,0.048479
735.0,0.048072
740.0,0.047803
745.0,0.047611
750.0,0.047569
755.0,0.047281
760.0,0.047181
765.0,0.047079
770.0,0.046871
775.0,0.046542
780.0,0.046432
785.0,0.046186
790.0,0.046051
795.0,0.045735
800.0,0.045685
805.0,0.045249
810.0,0.045436
815.0,0.045053
820.0,0.044695
825.0,0.044677
830.0,0.044318
835.0,0.044112
840.0,0.043773
845.0,0.043962
850.0,0.043698
855.0,0.043038
860.0,0.042252
865.0,0.04288
870.0,0.04236
875.0,0.04227
880.0,0.041548
885.0,0.04183
890.0,0.041447
895.0,0.041002
900.0,0.041054
905.0,0.040775
910.0,0.040553
915.0,0.039912
920.0,0.040093
925.0,0.039551
930.0,0.039351
935.0,0.039689
940.0,0.039776
945.0,0.039344
950.0,0.039068
955.0,0.038977
960.0,0.038739
965.0,0.038534
970.0,0.038747
975.0,0.038423
980.0,0.038399
985.0,0.03828
990.0,0.038411
995.0,0.038553
1000.0,0.038149
1005.0,0.037929
1010.0,0.038059
1015.0,0.037724
1020.0,0.037897
1025.0,0.037601
1030.0,0.037661
1035.0,0.037881
1040.0,0.037941
1045.0,0.037688
1050.0,0.037747
1055.0,0.03771
1060.0,0.037471
1065.0,0.037456
1070.0,0.037588
1075.0,0.03761
1080.0,0.037725
1085.0,0.0376
1090.0,0.037574
1095.0,0.037652
1100.0,0.037714
1105.0,0.037908
1110.0,0.037834
1115.0,0.037966
1120.0,0.037931
1125.0,0.03818
1130.0,0.038102
1135.0,0.038178
1140.0,0.038087
1145.0,0.0383
1150.0,0.038358
1155.0,0.038344
1160.0,0.038572
1165.0,0.038648
1170.0,0.038827
1175.0,0.038798
1180.0,0.038896
1185.0,0.039067
1190.0,0.039144
1195.0,0.039341
1200.0,0.03945
1205.0,0.039441
1210.0,0.039566
1215.0,0.039637
1220.0,0.039652
1225.0,0.040204
1230.0,0.040066
1235.0,0.039985
1240.0,0.040317
1245.0,0.040313
1250.0,0.040422
1255.0,0.04055
1260.0,0.040613
1265.0,0.040701
1270.0,0.040907
1275.0,0.040821
1280.0,0.040975
1285.0,0.041042
1290.0,0.041125
1295.0,0.041271
1300.0,0.041562
1305.0,0.041531
1310.0,0.041738
1315.0,0.042027
1320.0,0.04207
1325.0,0.042467
1330.0,0.042177
1335.0,0.042677
1340.0,0.042778
1345.0,0.042924
1350.0,0.043053
1355.0,0.043233
1360.0,0.043525
1365.0,0.04341
1370.0,0.043678
1375.0,0.043905
1380.0,0.044225
1385.0,0.044107
1390.0,0.04433
1395.0,0.044667
1400.0,0.044947
1405.0,0.045102
1410.0,0.045055
1415.0,0.045212
1420.0,0.045486
1425.0,0.045438
1430.0,0.045565
1435.0,0.045872
1440.0,0.045982
1445.0,0.046251
1450.0,0.046401
1455.0,0.046317
1460.0,0.046729
1465.0,0.046895
1470.0,0.046935
1475.0,0.046949
1480.0,0.047378
1485.0,0.04738
1490.0,0.047584
1495.0,0.048053
1500.0,0.047845
1505.0,0.047884
1510.0,0.048077
1515.0,0.048397
1520.0,0.048605
1525.0,0.048749
1530.0,0.048962
1535.0,0.049019
1540.0,0.049615
1545.0,0.049604
1550.0,0.049712
1555.0,0.049957
1560.0,0.049973
1565.0,0.050387
1570.0,0.050613
1575.0,0.050503
1580.0,0.05059
1585.0,0.05075
1590.0,0.051141
1595.0,0.051535
1600.0,0.051228
1605.0,0.05135
1610.0,0.051484
1615.0,0.051606
1620.0,0.05191
1625.0,0.051716
1630.0,0.052323
1635.0,0.05229
1640.0,0.052545
1645.0,0.052615
1650.0,0.052419
1655.0,0.052632
1660.0,0.052649
1665.0,0.053279
1670.0,0.053228
1675.0,0.053146
1680.0,0.053383
1685.0,0.053774
1690.0,0.053789
1695.0,0.053823
1700.0,0.054165
1705.0,0.054344
1710.0,0.054527
1715.0,0.05451
1720.0,0.054707
1725.0,0.0548
1730.0,0.054929
1735.0,0.055005
1740.0,0.055224
1745.0,0.055287
1750.0,0.055231
1755.0,0.05529
1760.0,0.05542
1765.0,0.055393
1770.0,0.055351
1775.0,0.055653
1780.0,0.055967
1785.0,0.055686
1790.0,0.055999
1795.0,0.05618
1800.0,0.056124
1805.0,0.056595
1810.0,0.056224
1815.0,0.056471
1820.0,0.056416
1825.0,0.05656
1830.0,0.056709
1835.0,0.056663
1840.0,0.05681
1845.0,0.056777
1850.0,0.056848
1855.0,0.056979
1860.0,0.05702
1865.0,0.057332
1870.0,0.057043
1875.0,0.057262
1880.0,0.057566
1885.0,0.057539
1890.0,0.057895
1895.0,0.05794
1900.0,0.058034
1905.0,0.058082
1910.0,0.058103
1915.0,0.05813
1920.0,0.058368
1925.0,0.058657
1930.0,0.058685
1935.0,0.058661
1940.0,0.058866
1945.0,0.05873
1950.0,0.058934
1955.0,0.059043
1960.0,0.059247
1965.0,0.05928
1970.0,0.059436
1975.0,0.059599
1980.0,0.059611
1985.0,0.059879
1990.0,0.059748
1995.0,0.059912
2000.0,0.059932
2005.0,0.060165
2010.0,0.060145
2015.0,0.060201
2020.0,0.060286
2025.0,0.060554
2030.0,0.060716
2035.0,0.060593
2040.0,0.06074
2045.0,0.060722
2050.0,0.06079
2055.0,0.061053
2060.0,0.061067
2065.0,0.061143
2070.0,0.061166
2075.0,0.061201
2080.0,0.061463
2085.0,0.06134
2090.0,0.061757
2095.0,0.061736
2100.0,0.061731
2105.0,0.061928
2110.0,0.061872
2115.0,0.062117
2120.0,0.062217
2125.0,0.062241
2130.0,0.062178
2135.0,0.062053
2140.0,0.062269
2145.0,0.062264
2150.0,0.062448
2155.0,0.062264
2160.0,0.062339
2165.0,0.062394
2170.0,0.062424
2175.0,0.062479
2180.0,0.062514
2185.0,0.062761
2190.0,0.062711
2195.0,0.06281
2200.0,0.062783
2205.0,0.062782
2210.0,0.062849
2215.0,0.062851
2220.0,0.063047
2225.0,0.063262
2230.0,0.062824
2235.0,0.063001
2240.0,0.063216
2245.0,0.063363
2250.0,0.063433
2255.0,0.063641
2260.0,0.063643
2265.0,0.063583
2270.0,0.06365
2275.0,0.063728
2280.0,0.063907
2285.0,0.063911
2290.0,0.063832
2295.0,0.064074
2300.0,0.064367
2305.0,0.064488
2310.0,0.064381
2315.0,0.064284
2320.0,0.064594
2325.0,0.064394
2330.0,0.064756
2335.0,0.064761
2340.0,0.064708
2345.0,0.064781
2350.0,0.064917
2355.0,0.065168
2360.0,0.065052
2365.0,0.065005
2370.0,0.065082
2375.0,0.065306
2380.0,0.065304
2385.0,0.065402
2390.0,0.06549
2395.0,0.065688
2400.0,0.065735
2405.0,0.065527
2410.0,0.065452
2415.0,0.065686
2420.0,0.065778
2425.0,0.065469
2430.0,0.065804
2435.0,0.065731
2440.0,0.065918
2445.0,0.0658
2450.0,0.06595
2455.0,0.066031
2460.0,0.065879
2465.0,0.066055
2470.0,0.066219
2475.0,0.066237
2480.0,0.066337
2485.0,0.066125
2490.0,0.066339
2495.0,0.066581
2500.0,0.066525
2502.0,0.066404
2503.2,0.066456
2504.41,0.066494
2505.62,0.06663
2506.83,0.066649
2508.05,0.066344
2509.26,0.066164
2510.48,0.066305
2511.69,0.066318
2512.91,0.066259
2514.13,0.066173
2515.35,0.066289
2516.57,0.06648
2517.79,0.066427
2519.02,0.0665
2520.24,0.066558
2521.47,0.066427
2522.69,0.066465
2523.92,0.066441
2525.15,0.066029
2526.38,0.065972
2527.61,0.066152
2528.85,0.06635
2530.08,0.066564
2531.32,0.066659
2532.55,0.066544
2533.79,0.066344
2535.03,0.06615
2536.27,0.06626
2537.51,0.066463
2538.75,0.066243
2540.0,0.066158
2541.24,0.06634
2542.49,0.066304
2543.74,0.066178
2544.99,0.066261
2546.24,0.066456
2547.49,0.066463
2548.74,0.066218
2549.99,0.066053
2551.25,0.06639
2552.5,0.066587
2553.76,0.066379
2555.02,0.066213
2556.28,0.066081
2557.54,0.06585
2558.8,0.06594
2560.07,0.066195
2561.33,0.06637
2562.6,0.066541
2563.86,0.066648
2565.13,0.06673
2566.4,0.066734
2567.67,0.066419
2568.95,0.066208
2570.22,0.066233
2571.5,0.066293
2572.77,0.066403
2574.05,0.066216
2575.33,0.066074
2576.61,0.066274
2577.89,0.066178
2579.17,0.066388
2580.46,0.066756
2581.74,0.066452
2583.03,0.066166
2584.31,0.066231
2585.6,0.066407
2586.89,0.066387
2588.19,0.066339
2589.48,0.066505
2590.77,0.066628
2592.07,0.066546
2593.36,0.066517
2594.66,0.066467
2595.96,0.066297
2597.26,0.066252
2598.56,0.066396
2599.87,0.066383
2601.17,0.066137
2602.48,0.066073
2603.78,0.066522
2605.09,0.066577
2606.4,0.066342
2607.71,0.066439
2609.03,0.066469
2610.34,0.06654
2611.66,0.066509
2612.97,0.066199
2614.29,0.066117
2615.61,0.066399
2616.93,0.066657
2618.25,0.066494
2619.57,0.066556
2620.9,0.066745
2622.22,0.0667
2623.55,0.066589
2624.88,0.06657
2626.21,0.066591
2627.54,0.066515
2628.87,0.06663
2630.21,0.066407
2631.54,0.066134
2632.88,0.066249
2634.21,0.066499
2635.55,0.066562
2636.89,0.066484
2638.24,0.066118
2639.58,0.066153
2640.92,0.066524
2642.27,0.066555
2643.62,0.066121
2644.97,0.066024
2646.32,0.066252
2647.67,0.066588
2649.02,0.066497
2650.38,0.066278
2651.73,0.066152
2653.09,0.065972
2654.45,0.066032
2655.81,0.066073
2657.17,0.065985
2658.53,0.066161
2659.89,0.066216
2661.26,0.066057
2662.63,0.06591
2664.0,0.065935
2665.36,0.066004
2666.74,0.06621
2668.11,0.066227
2669.48,0.066045
2670.86,0.065851
2672.23,0.065901
2673.61,0.0663
2674.99,0.066191
2676.37,0.06594
2677.76,0.065959
2679.14,0.066002
2680.52,0.065845
2681.91,0.065954
2683.3,0.065914
2684.69,0.065862
2686.08,0.065979
2687.47,0.066173
2688.87,0.066111
2690.26,0.065999
2691.66,0.065902
2693.06,0.065844
2694.46,0.066063
2695.86,0.066172
2697.26,0.066069
2698.66,0.065914
2700.07,0.065746
2701.48,0.065645
2702.89,0.065678
2704.3,0.065785
2705.71,0.06575
2707.12,0.065816
2708.53,0.065975
2709.95,0.066048
2711.37,0.065814
2712.79,0.065849
2714.21,0.066035
2715.63,0.065978
2717.05,0.06583
2718.48,0.065807
2719.9,0.065738
2721.33,0.065788
2722.76,0.066261
2724.19,0.06632
2725.62,0.066166
2727.06,0.066092
2728.49,0.06596
2729.93,0.065988
2731.37,0.066034
2732.81,0.065887
2734.25,0.065827
2735.69,0.065664
2737.14,0.065871
2738.58,0.065911
2740.03,0.065742
2741.48,0.065904
2742.93,0.066046
2744.38,0.066099
2745.83,0.066157
2747.29,0.066074
2748.75,0.065826
2750.2,0.065688
2751.66,0.065549
2753.13,0.065635
2754.59,0.065822
2756.05,0.065759
2757.52,0.065698
2758.99,0.065857
2760.46,0.06597
2761.93,0.066022
2763.4,0.066065
2764.87,0.065932
2766.35,0.065716
2767.82,0.065648
2769.3,0.065614
2770.78,0.065515
2772.26,0.065549
2773.75,0.065632
2775.23,0.065525
2776.72,0.065507
2778.21,0.065595
2779.7,0.065567
2781.19,0.065382
2782.68,0.065243
2784.18,0.065251
2785.67,0.065392
2787.17,0.065534
2788.67,0.065595
2790.17,0.065546
2791.67,0.065315
2793.18,0.065281
2794.68,0.065341
2796.19,0.0651
2797.7,0.065008
2799.21,0.065073
2800.72,0.065308
2802.24,0.065349
2803.75,0.065151
2805.27,0.065116
2806.79,0.065081
2808.31,0.065099
2809.83,0.065193
2811.35,0.065113
2812.88,0.065085
2814.41,0.064935
2815.93,0.064848
2817.46,0.064941
2819.0,0.064855
2820.53,0.064721
2822.07,0.064828
2823.6,0.065049
2825.14,0.06496
2826.68,0.064746
2828.22,0.064578
2829.77,0.064534
2831.31,0.06472
2832.86,0.064739
2834.41,0.064668
2835.96,0.064888
2837.51,0.06486
2839.07,0.064716
2840.62,0.064663
2842.18,0.064789
2843.74,0.064697
2845.3,0.064553
2846.86,0.064548
2848.43,0.064713
2849.99,0.064705
2851.56,0.064586
2853.13,0.064643
2854.7,0.064527
2856.27,0.064521
2857.85,0.064717
2859.42,0.064587
2861.0,0.064433
2862.58,0.064487
2864.16,0.064488
2865.75,0.064457
2867.33,0.064415
2868.92,0.064286
2870.51,0.064332
2872.1,0.064483
2873.69,0.06442
2875.28,0.06431
2876.88,0.064358
2878.48,0.064394
2880.07,0.064573
2881.68,0.064694
2883.28,0.064517
2884.88,0.064396
2886.49,0.064309
2888.1,0.064358
2889.71,0.064431
2891.32,0.064233
2892.93,0.064291
2894.55,0.064538
2896.16,0.064515
2897.78,0.064361
2899.4,0.064197
2901.03,0.064214
2902.65,0.064366
2904.28,0.064328
2905.91,0.06438
2907.54,0.064391
2909.17,0.064235
2910.8,0.064118
2912.44,0.064146
2914.07,0.064216
2915.71,0.06427
2917.35,0.064177
2918.99,0.064171
2920.64,0.064287
2922.29,0.064237
2923.93,0.064014
2925.58,0.064144
2927.24,0.064367
2928.89,0.064339
2930.55,0.064235
2932.2,0.064119
2933.86,0.064018
2935.52,0.064018
2937.19,0.064165
2938.85,0.064258
2940.52,0.064254
2942.19,0.064151
2943.86,0.064114
2945.53,0.064182
2947.21,0.064046
2948.88,0.063787
2950.56,0.063868
2952.24,0.064153
2953.92,0.064224
2955.61,0.064112
2957.29,0.06411
2958.98,0.064055
2960.67,0.063914
2962.36,0.063799
2964.06,0.063921
2965.75,0.064031
2967.45,0.063912
2969.15,0.063854
2970.85,0.063984
2972.55,0.063923
2974.26,0.06375
2975.97,0.063812
2977.68,0.063726
2979.39,0.063749
2981.1,0.063773
2982.82,0.063672
2984.53,0.063727
2986.25,0.063899
2987.97,0.063846
2989.7,0.063875
2991.42,0.063843
2993.15,0.063787
2994.88,0.063795
2996.61,0.063636
2998.34,0.063699
3000.08,0.063756
3001.82,0.063766
3003.55,0.063915
3005.3,0.063969
3007.04,0.063883
3008.78,0.064026
3010.53,0.064058
3012.28,0.063893
3014.03,0.063763
3015.79,0.063763
3017.54,0.063843
3019.3,0.063833
3021.06,0.063767
3022.82,0.063774
3024.58,0.063792
3026.35,0.063704
3028.12,0.063695
3029.89,0.06387
3031.66,0.063952
3033.43,0.063895
3035.21,0.063903
3036.99,0.064031
3038.77,0.064104
3040.55,0.064063
3042.33,0.064047
3044.12,0.064042
3045.91,0.06403
3047.7,0.064039
3049.49,0.064027
3051.29,0.064049
3053.08,0.064
3054.88,0.063878
3056.68,0.063795
3058.49,0.063939
3060.29,0.06412
3062.1,0.064237
3063.91,0.064171
3065.72,0.064092
3067.54,0.06406
3069.35,0.064083
3071.17,0.064058
3072.99,0.064065
3074.81,0.064007
3076.64,0.063824
3078.47,0.063729
3080.29,0.063795
3082.13,0.06385
3083.96,0.063891
3085.79,0.063826
3087.63,0.063926
3089.47,0.064136
3091.31,0.064044
3093.16,0.063812
3095.01,0.063821
3096.85,0.06409
3098.71,0.064131
3100.56,0.064084
3102.41,0.064029
3104.27,0.064034
3106.13,0.064002
3107.99,0.064005
3109.86,0.064037
3111.73,0.064103
3113.59,0.06405
3115.47,0.063932
3117.34,0.063968
3119.21,0.064155
3121.09,0.064119
3122.97,0.06405
3124.86,0.064088
3126.74,0.06386
3128.63,0.063783
3130.52,0.063951
3132.41,0.063924
3134.3,0.063839
3136.2,0.064046
3138.1,0.0642
3140.0,0.064194
3141.9,0.06412
3143.81,0.064148
3145.71,0.064193
3147.62,0.064107
3149.54,0.063938
3151.45,0.063929
3153.37,0.063964
3155.29,0.064057
3157.21,0.064003
3159.13,0.063983
3161.06,0.064014
3162.99,0.064077
3164.92,0.064002
3166.85,0.063885
3168.79,0.064021
3170.72,0.064077
3172.67,0.064043
3174.61,0.063965
3176.55,0.064016
3178.5,0.064019
3180.45,0.063909
3182.4,0.063949
3184.36,0.064
3186.32,0.063962
3188.27,0.063964
3190.24,0.064092
3192.2,0.064149
3194.17,0.064072
3196.14,0.064037
3198.11,0.064028
3200.08,0.064034
3202.06,0.064058
3204.04,0.063995
3206.02,0.063977
3208.0,0.063965
3209.99,0.063986
3211.98,0.064006
3213.97,0.063976
3215.96,0.063991
3217.96,0.064043
3219.96,0.064107
3221.96,0.064047
3223.96,0.063938
3225.97,0.063923
3227.98,0.063909
3229.99,0.064058
3232.0,0.064124
3234.02,0.064145
3236.04,0.064117
3238.06,0.064132
3240.08,0.064049
3242.11,0.063912
3244.14,0.063895
3246.17,0.064058
3248.2,0.064125
3250.24,0.064107
3252.28,0.064085
3254.32,0.064014
3256.37,0.063955
3258.41,0.064001
3260.46,0.063978
3262.51,0.063955
3264.57,0.063916
3266.63,0.063864
3268.69,0.063865
3270.75,0.063887
3272.81,0.063998
3274.88,0.064037
3276.95,0.064041
3279.02,0.064036
3281.1,0.063982
3283.18,0.063991
3285.26,0.06394
3287.34,0.063935
3289.43,0.063971
3291.51,0.06395
3293.61,0.064027
3295.7,0.064139
3297.8,0.064075
3299.9,0.063988
3302.0,0.063994
3304.1,0.064033
3306.21,0.064071
3308.32,0.064041
3310.43,0.063904
3312.55,0.063896
3314.66,0.06402
3316.79,0.064021
3318.91,0.063975
3321.03,0.064
3323.16,0.064041
3325.29,0.064043
3327.43,0.064025
3329.57,0.064121
3331.71,0.064106
3333.85,0.064063
3335.99,0.064117
3338.14,0.064072
3340.29,0.064104
3342.45,0.06409
3344.6,0.064021
3346.76,0.063955
3348.92,0.063917
3351.09,0.063943
3353.26,0.063884
3355.43,0.063912
3357.6,0.063833
3359.78,0.063773
3361.96,0.06389
3364.14,0.064014
3366.32,0.063998
3368.51,0.063966
3370.7,0.063985
3372.89,0.064099
3375.09,0.064147
3377.29,0.064123
3379.49,0.064037
3381.69,0.064014
3383.9,0.064042
3386.11,0.064073
3388.32,0.063984
3390.54,0.063899
3392.76,0.064008
3394.98,0.064056
3397.21,0.063949
3399.43,0.063893
3401.66,0.063948
3403.9,0.063992
3406.13,0.064047
3408.37,0.064074
3410.61,0.06401
3412.86,0.063985
3415.11,0.063916
3417.36,0.063974
3419.61,0.064052
3421.87,0.064038
3424.13,0.064078
3426.39,0.064019
3428.66,0.063872
3430.93,0.063842
3433.2,0.063831
3435.48,0.063913
3437.76,0.064046
3440.04,0.064029
3442.32,0.063979
3444.61,0.063955
3446.9,0.063892
3449.19,0.063893
3451.49,0.063835
3453.79,0.063847
3456.09,0.063947
3458.4,0.063913
3460.7,0.063823
3463.02,0.063936
3465.33,0.063982
3467.65,0.063892
3469.97,0.064004
3472.29,0.064092
3474.62,0.064071
3476.95,0.06401
3479.29,0.063887
3481.62,0.063859
3483.96,0.063966
3486.3,0.064096
3488.65,0.06414
3491.0,0.064113
3493.35,0.064137
3495.71,0.064152
3498.07,0.064074
3500.43,0.064058
3502.79,0.064178
3505.16,0.064174
3507.53,0.064207
3509.91,0.064281
3512.29,0.064294
3514.67,0.064265
3517.05,0.064374
3519.44,0.064388
3521.83,0.064285
3524.23,0.064253
3526.62,0.064345
3529.02,0.064433
3531.43,0.064353
3533.83,0.064268
3536.24,0.064227
3538.66,0.064252
3541.08,0.064296
3543.5,0.064341
3545.92,0.064392
3548.35,0.064339
3550.78,0.064391
3553.21,0.064509
3555.65,0.064529
3558.09,0.064481
3560.53,0.064463
3562.98,0.064522
3565.43,0.06455
3567.88,0.06449
3570.34,0.064525
3572.8,0.064523
3575.27,0.064522
3577.73,0.064622
3580.2,0.064671
3582.68,0.064649
3585.16,0.064572
3587.64,0.064489
3590.12,0.064602
3592.61,0.064722
3595.1,0.064724
3597.6,0.064765
3600.09,0.064848
3602.6,0.06472
3605.1,0.064687
3607.61,0.064772
3610.12,0.064754
3612.64,0.064801
3615.16,0.064823
3617.68,0.064836
3620.21,0.064883
3622.74,0.064908
3625.27,0.064875
3627.81,0.064849
3630.35,0.064926
3632.89,0.065012
3635.44,0.064996
3637.99,0.06488
3640.54,0.064826
3643.1,0.064923
3645.66,0.064957
3648.23,0.064983
3650.8,0.064955
3653.37,0.064918
3655.95,0.065
3658.53,0.065087
3661.11,0.065067
3663.7,0.064979
3666.29,0.064968
3668.89,0.065113
3671.48,0.065115
3674.09,0.065093
3676.69,0.065112
3679.3,0.065133
3681.91,0.06517
3684.53,0.065207
3687.15,0.065179
3689.78,0.06508
3692.4,0.065071
3695.04,0.065085
3697.67,0.065118
3700.31,0.065174
3702.95,0.065231
3705.6,0.065304
3708.25,0.065322
3710.91,0.065281
3713.56,0.065286
3716.23,0.065293
3718.89,0.065228
3721.56,0.065252
3724.23,0.065324
3726.91,0.065409
3729.59,0.065428
3732.28,0.065382
3734.97,0.065415
3737.66,0.065444
3740.36,0.065416
3743.06,0.065487
3745.76,0.065544
3748.47,0.065471
3751.18,0.065475
3753.9,0.06547
3756.62,0.065457
3759.34,0.065527
3762.07,0.065569
3764.8,0.065532
3767.54,0.065597
3770.28,0.065655
3773.02,0.065709
3775.77,0.065681
3778.52,0.06557
3781.28,0.065549
3784.04,0.065584
3786.8,0.065681
3789.57,0.065806
3792.34,0.065913
3795.12,0.065923
3797.9,0.065869
3800.69,0.065867
3803.47,0.065865
3806.27,0.065936
3809.06,0.065979
3811.86,0.065958
3814.67,0.065933
3817.48,0.065967
3820.29,0.065937
3823.11,0.065944
3825.93,0.065989
3828.76,0.06604
3831.59,0.066112
3834.42,0.066171
3837.26,0.066174
3840.1,0.066166
3842.95,0.066104
3845.8,0.066104
3848.65,0.066211
3851.51,0.06623
3854.38,0.066241
3857.24,0.066303
3860.12,0.066257
3862.99,0.066224
3865.87,0.066321
3868.76,0.066329
3871.65,0.066269
3874.54,0.066293
3877.44,0.066352
3880.34,0.066416
3883.25,0.066413
3886.16,0.06636
3889.07,0.066357
3891.99,0.066452
3894.92,0.066523
3897.85,0.066486
3900.78,0.066449
3903.72,0.066485
3906.66,0.06654
3909.6,0.066593
3912.55,0.066658
3915.51,0.066659
3918.47,0.066617
3921.43,0.06656
3924.4,0.066619
3927.38,0.066674
3930.35,0.066728
3933.33,0.06681
3936.32,0.066756
3939.31,0.066732
3942.31,0.066758
3945.31,0.066808
3948.31,0.066902
3951.32,0.066866
3954.34,0.06682
3957.35,0.066907
3960.38,0.066979
3963.41,0.066996
3966.44,0.067017
3969.48,0.066994
3972.52,0.066979
3975.56,0.067036
3978.61,0.067134
3981.67,0.067132
3984.73,0.067085
3987.8,0.067065
3990.87,0.067071
3993.94,0.067157
3997.02,0.067236
4000.1,0.067292
4003.19,0.067305
4006.29,0.067357
4009.39,0.067333
4012.49,0.067295
4015.6,0.06729
4018.71,0.067282
4021.83,0.067312
4024.95,0.067387
4028.08,0.067503
4031.21,0.067566
4034.35,0.067601
4037.49,0.067567
4040.64,0.067542
4043.79,0.067548
4046.94,0.067621
4050.11,0.067633
4053.27,0.067573
4056.44,0.067645
4059.62,0.067758
4062.8,0.067736
4065.99,0.067707
4069.18,0.067738
4072.38,0.067733
4075.58,0.067772
4078.78,0.067844
4082.0,0.067892
4085.21,0.0679
4088.43,0.067981
4091.66,0.067975
4094.89,0.068019
4098.13,0.068027
4101.37,0.067974
4104.62,0.068014
4107.87,0.068037
4111.13,0.068079
4114.39,0.068108
4117.66,0.06812
4120.93,0.068146
4124.21,0.068221
4127.5,0.068258
4130.79,0.068205
4134.08,0.068203
4137.38,0.068226
4140.68,0.068253
4143.99,0.068265
4147.31,0.068373
4150.63,0.068476
4153.95,0.068477
4157.29,0.068473
4160.62,0.068486
4163.96,0.068485
4167.31,0.068491
4170.66,0.068511
4174.02,0.068443
4177.39,0.068475
4180.75,0.068584
4184.13,0.068618
4187.51,0.068623
4190.89,0.068699
4194.28,0.06877
4197.68,0.06876
4201.08,0.068837
4204.49,0.068912
4207.9,0.068866
4211.32,0.068836
4214.74,0.068834
4218.17,0.068781
4221.61,0.068813
4225.05,0.068808
4228.5,0.068809
4231.95,0.068941
4235.4,0.069016
4238.87,0.068962
4242.34,0.068979
4245.81,0.069102
4249.29,0.069169
4252.78,0.069212
4256.27,0.069265
4259.77,0.069218
4263.27,0.06916
4266.78,0.06916
4270.29,0.069275
4273.81,0.0693
4277.34,0.069255
4280.87,0.069283
4284.41,0.069316
4287.95,0.069323
4291.5,0.069379
4295.06,0.069365
4298.62,0.069413
4302.19,0.069488
4305.76,0.069503
4309.34,0.069578
4312.92,0.069626
4316.52,0.06964
4320.11,0.069702
4323.72,0.069714
4327.32,0.069687
4330.94,0.069713
4334.56,0.069807
4338.19,0.069854
4341.82,0.069869
4345.46,0.069883
4349.11,0.069867
4352.76,0.069872
4356.42,0.069964
4360.08,0.070047
4363.75,0.070066
4367.43,0.070086
4371.11,0.07011
4374.8,0.07017
4378.49,0.070209
4382.19,0.070206
4385.9,0.070227
4389.61,0.070233
4393.33,0.070284
4397.06,0.070366
4400.79,0.070429
4404.53,0.070427
4408.28,0.07046
4412.03,0.070452
4415.79,0.070479
4419.55,0.070544
4423.32,0.070546
4427.1,0.070554
4430.88,0.070587
4434.68,0.070623
4438.47,0.070678
4442.28,0.070711
4446.08,0.070761
4449.9,0.070819
4453.72,0.070785
4457.55,0.070771
4461.39,0.070815
4465.23,0.070832
4469.08,0.070847
4472.94,0.070905
4476.8,0.070971
4480.67,0.070985
4484.55,0.070987
4488.43,0.070994
4492.32,0.071019
4496.21,0.071074
4500.12,0.071096
4504.03,0.071102
4507.94,0.071155
4511.87,0.071263
4515.8,0.071299
4519.73,0.071307
4523.68,0.071335
4527.63,0.071368
4531.59,0.071463
4535.55,0.071472
4539.52,0.071478
4543.5,0.071468
4547.49,0.071527
4551.48,0.071569
4555.48,0.071611
4559.49,0.071662
4563.5,0.071707
4567.52,0.071701
4571.55,0.071704
4575.58,0.071757
4579.63,0.071824
4583.67,0.071842
4587.73,0.071833
4591.79,0.071852
4595.86,0.071871
4599.94,0.071948
4604.03,0.071997
4608.12,0.071982
4612.22,0.072061
4616.33,0.0721
4620.44,0.072089
4624.56,0.072153
4628.69,0.072201
4632.83,0.072208
4636.97,0.072252
4641.12,0.072252
4645.28,0.072262
4649.45,0.072335
4653.62,0.072358
4657.8,0.072337
4661.99,0.072356
4666.19,0.072405
4670.39,0.072433
4674.6,0.072447
4678.82,0.07246
4683.05,0.07248
4687.28,0.072504
4691.52,0.072535
4695.77,0.072569
4700.03,0.072619
4704.3,0.072672
4708.57,0.072717
4712.85,0.072795
4717.14,0.072855
4721.43,0.072912
4725.74,0.072935
4730.05,0.073015
4734.37,0.073118
4738.7,0.073179
4743.03,0.073212
4747.38,0.073246
4751.73,0.073288
4756.09,0.073332
4760.45,0.073299
4764.83,0.073301
4769.21,0.073356
4773.6,0.073414
4778.0,0.07345
4782.41,0.073529
4786.83,0.073576
4791.25,0.073646
4795.68,0.07371
4800.13,0.073697
4804.57,0.073727
4809.03,0.073726
4813.5,0.073742
4817.97,0.07379
4822.45,0.073818
4826.94,0.073889
4831.44,0.073927
4835.95,0.073961
4840.46,0.073963
4844.99,0.07399
4849.52,0.074063
4854.06,0.074095
4858.61,0.074099
4863.17,0.074135
4867.73,0.074178
4872.31,0.0742
4876.89,0.074207
4881.48,0.074257
4886.08,0.074294
4890.69,0.074305
4895.31,0.074369
4899.94,0.074486
4904.57,0.074526
4909.22,0.074545
4913.87,0.074563
4918.53,0.074569
4923.21,0.074561
4927.88,0.074589
4932.57,0.074656
4937.27,0.07468
4941.98,0.074713
4946.69,0.074747
4951.42,0.074791
4956.15,0.074851
4960.9,0.074873
4965.65,0.074927
4970.41,0.075011
4975.18,0.075049
4979.96,0.075123
4984.75,0.075159
4989.54,0.075185
4994.35,0.075237
4999.17,0.075246
5003.99,0.075254
5008.83,0.07528
5013.67,0.07531
5018.52,0.075373
5023.39,0.075431
5028.26,0.075465
5033.14,0.075514
5038.03,0.07555
5042.93,0.07556
5047.84,0.075599
5052.76,0.075636
5057.69,0.075685
5062.63,0.075765
5067.58,0.075755
5072.54,0.075767
5077.51,0.075877
5082.49,0.075928
5087.47,0.07594
5092.47,0.075988
5097.48,0.076038
5102.5,0.076035
5107.52,0.076008
5112.56,0.076058
5117.61,0.076132
5122.66,0.076172
5127.73,0.076179
5132.81,0.076237
5137.89,0.076324
5142.99,0.076342
5148.1,0.076338
5153.22,0.076357
5158.34,0.076432
5163.48,0.076461
5168.63,0.076484
5173.79,0.076519
5178.96,0.076537
5184.13,0.07659
5189.32,0.076633
5194.52,0.076688
5199.73,0.076723
5204.96,0.076771
5210.19,0.076812
5215.43,0.076844
5220.68,0.076868
5225.94,0.076851
5231.22,0.076872
5236.5,0.07695
5241.79,0.076994
5247.1,0.077038
5252.42,0.077032
5257.74,0.077073
5263.08,0.077138
5268.43,0.077169
5273.79,0.077189
5279.16,0.077247
5284.54,0.077287
5289.93,0.077287
5295.34,0.077307
5300.75,0.077347
5306.18,0.077339
5311.61,0.07738
5317.06,0.077448
5322.52,0.077454
5327.99,0.077501
5333.47,0.077539
5338.96,0.077594
5344.47,0.077635
5349.98,0.077648
5355.51,0.077709
5361.05,0.077762
5366.6,0.077764
5372.16,0.07779
5377.73,0.077841
5383.32,0.077864
5388.91,0.0779
5394.52,0.077933
5400.14,0.077959
5405.77,0.077997
5411.41,0.077983
5417.07,0.078015
5422.74,0.078093
5428.41,0.078105
5434.1,0.078114
5439.81,0.078206
5445.52,0.07824
5451.25,0.078219
5456.98,0.078291
5462.73,0.078372
5468.5,0.078411
5474.27,0.078419
5480.06,0.07846
5485.86,0.078514
5491.67,0.078546
5497.49,0.078587
5503.33,0.07863
5509.18,0.078659
5515.04,0.078671
5520.91,0.078745
5526.8,0.078819
5532.69,0.078816
5538.61,0.078867
5544.53,0.078918
5550.47,0.078935
5556.41,0.078962
5562.38,0.079007
5568.35,0.078986
5574.34,0.078975
5580.34,0.079065
5586.35,0.079169
5592.38,0.079207
5598.42,0.079221
5604.47,0.079211
5610.54,0.079269
5616.61,0.0793
5622.71,0.079309
5628.81,0.079312
5634.93,0.079381
5641.06,0.079424
5647.21,0.079488
5653.36,0.079526
5659.54,0.079533
5665.72,0.079567
5671.92,0.079594
5678.13,0.079644
5684.36,0.07967
5690.6,0.079732
5696.85,0.079797
5703.12,0.079857
5709.4,0.079953
5715.69,0.080045
5722.0,0.080037
5728.33,0.080066
5734.66,0.08011
5741.01,0.080149
5747.38,0.080178
5753.76,0.080269
5760.15,0.080263
5766.56,0.080275
5772.98,0.080399
5779.41,0.080465
5785.86,0.08044
5792.33,0.080413
5798.81,0.08046
5805.3,0.080525
5811.81,0.080541
5818.33,0.080537
5824.87,0.080638
5831.42,0.080706
5837.99,0.080718
5844.57,0.08072
5851.17,0.080763
5857.78,0.080856
5864.41,0.080899
5871.05,0.080937
5877.7,0.080915
5884.38,0.081087
5891.06,0.081156
5897.76,0.081128
5904.48,0.081197
5911.21,0.081164
5917.96,0.081151
5924.73,0.08113
5931.5,0.08115
5938.3,0.081255
5945.11,0.081382
5951.93,0.081347
5958.78,0.081317
5965.63,0.081292
5972.51,0.081417
5979.39,0.081469
5986.3,0.081474
5993.22,0.081546
6000.16,0.081586
6007.11,0.081541
6014.08,0.081502
6021.06,0.081583
6028.06,0.081684
6035.08,0.081709
6042.12,0.081708
6049.17,0.081818
6056.23,0.082022
6063.32,0.081956
6070.42,0.081874
6077.53,0.081861
6084.67,0.081937
6091.82,0.081948
6098.98,0.081974
6106.17,0.081979
6113.37,0.082009
6120.58,0.08209
6127.82,0.082054
6135.07,0.082011
6142.34,0.082022
6149.63,0.082103
6156.93,0.082123
6164.25,0.082102
6171.59,0.082139
6178.95,0.082167
6186.32,0.082261
6193.71,0.082393
6201.12,0.082377
6208.54,0.082359
6215.99,0.082357
6223.45,0.08238
6230.93,0.082436
6238.43,0.082484
6245.95,0.082512
6253.48,0.082519
6261.03,0.08251
6268.6,0.082523
6276.19,0.082592
6283.8,0.082655
6291.43,0.082702
6299.07,0.082739
6306.73,0.082738
6314.42,0.082804
6322.12,0.082859
6329.84,0.082865
6337.57,0.082876
6345.33,0.082973
6353.11,0.083116
6360.9,0.083101
6368.72,0.083109
6376.55,0.083147
6384.4,0.083158
6392.27,0.083158
6400.17,0.08321
6408.08,0.083289
6416.01,0.083412
6423.96,0.083488
6431.93,0.083416
6439.92,0.083445
6447.93,0.083474
6455.96,0.083464
6464.01,0.083475
6472.08,0.083539
6480.17,0.083578
6488.28,0.083626
6496.41,0.083714
6504.56,0.083721
6512.73,0.083654
6520.92,0.083701
6529.14,0.083821
6537.37,0.083789
6545.63,0.083759
6553.9,0.083811
6562.2,0.083865
6570.51,0.083846
6578.85,0.083962
6587.21,0.083946
6595.59,0.083892
6603.99,0.083888
6612.42,0.083875
6620.86,0.08392
6629.33,0.083966
6637.82,0.084074
6646.33,0.084211
6654.86,0.08419
6663.41,0.084127
6671.99,0.084121
6680.59,0.084124
6689.21,0.08418
6697.85,0.084198
6706.51,0.084174
6715.2,0.084228
6723.91,0.084275
6732.64,0.084274
6741.4,0.084219
6750.18,0.084229
6758.98,0.084271
6767.8,0.084294
6776.65,0.084342
6785.52,0.084351
6794.41,0.084372
6803.33,0.08438
6812.27,0.084381
6821.23,0.084406
6830.22,0.084417
6839.23,0.084406
6848.26,0.084385
6857.32,0.08445
6866.4,0.084576
6875.51,0.084553
6884.64,0.084401
6893.8,0.084365
6902.98,0.084414
6912.18,0.084481
6921.41,0.084466
6930.66,0.08448
6939.94,0.084469
6949.24,0.084474
6958.57,0.084526
6967.92,0.084606
6977.3,0.084526
6986.7,0.084469
6996.13,0.084476
7005.59,0.084513
7015.07,0.084536
7024.57,0.084559
7034.1,0.084594
7043.66,0.08466
7053.25,0.084775
7062.85,0.08482
7072.49,0.084935
7082.15,0.08505
7091.84,0.085119
7101.55,0.085162
7111.3,0.085195
7121.06,0.085265
7130.86,0.085312
7140.68,0.0853
7150.53,0.085319
7160.41,0.085407
7170.31,0.085471
7180.24,0.08548
7190.2,0.085469
7200.19,0.085495
7210.2,0.085489
7220.24,0.085475
7230.31,0.085478
7240.41,0.085519
7250.54,0.085491
7260.69,0.085474
7270.88,0.085473
7281.09,0.085535
7291.33,0.085573
7301.6,0.085557
7311.9,0.085614
7322.22,0.08567
7332.58,0.085655
7342.97,0.085736
7353.38,0.08582
7363.83,0.085868
7374.3,0.085889
7384.81,0.08592
7395.34,0.085968
7405.91,0.086023
7416.5,0.08604
7427.13,0.086055
7437.78,0.086093
7448.47,0.086116
7459.19,0.086116
7469.94,0.086132
7480.71,0.086189
7491.52,0.086191
7502.37,0.086193
7513.24,0.086224
7524.14,0.086227
7535.08,0.086266
7546.05,0.086301
7557.05,0.08632
7568.08,0.086337
7579.15,0.086345
7590.24,0.086328
7601.37,0.086352
7612.53,0.086397
7623.73,0.08646
7634.96,0.086485
7646.22,0.08657
7657.51,0.08666
7668.84,0.086714
7680.2,0.086771
7691.59,0.086903
7703.02,0.087003
7714.49,0.087042
7725.98,0.087084
7737.52,0.087163
7749.08,0.087206
7760.68,0.087213
7772.32,0.087229
7783.99,0.087236
7795.69,0.087204
7807.43,0.087214
7819.21,0.087302
7831.02,0.087399
7842.87,0.087457
7854.75,0.087525
7866.67,0.087594
7878.62,0.087634
7890.62,0.087718
7902.64,0.087844
7914.71,0.087936
7926.81,0.087908
7938.95,0.087927
7951.13,0.087976
7963.34,0.087955
7975.59,0.087955
7987.88,0.087945
8000.21,0.087975
8012.57,0.088082
8024.98,0.08815
8037.42,0.08814
8049.9,0.088135
8062.42,0.088146
8074.98,0.088199
8087.57,0.088269
8100.21,0.088291
8112.89,0.088308
8125.6,0.088378
8138.36,0.088447
8151.16,0.088453
8163.99,0.088486
8176.87,0.088527
8189.79,0.088631
8202.75,0.08876
8215.75,0.088813
8228.79,0.088881
8241.87,0.088935
8254.99,0.088924
8268.16,0.088876
8281.37,0.08889
8294.62,0.088908
8307.91,0.088852
8321.24,0.088838
8334.62,0.088845
8348.04,0.088784
8361.51,0.088678
8375.02,0.088594
8388.57,0.088533
8402.16,0.08851
8415.8,0.088472
8429.49,0.088458
8443.22,0.088411
8456.99,0.088359
8470.81,0.088327
8484.67,0.088267
8498.58,0.088191
8512.54,0.088125
8526.54,0.088093
8540.58,0.088028
8554.68,0.087947
8568.82,0.087906
8583.0,0.087849
8597.24,0.087809
8611.52,0.087898
8625.85,0.088021
8640.23,0.088102
8654.65,0.08817
8669.12,0.088193
8683.64,0.088276
8698.21,0.088404
8712.83,0.088498
8727.5,0.08859
8742.22,0.088635
8756.99,0.08859
8771.8,0.088574
8786.67,0.08857
8801.59,0.08856
8816.56,0.088505
8831.58,0.088507
8846.65,0.088478
8861.77,0.088442
8876.94,0.088435
8892.17,0.088407
8907.45,0.088422
8922.78,0.088438
8938.16,0.08849
8953.6,0.088559
8969.09,0.088527
8984.64,0.088518
9000.23,0.088576
9015.89,0.088564
9031.59,0.088604
9047.36,0.08872
9063.17,0.088767
9079.05,0.088716
9094.97,0.088715
9110.96,0.088743
9127.0,0.088804
9143.1,0.088808
9159.25,0.088755
9175.46,0.088744
9191.73,0.088823
9208.06,0.088868
9224.44,0.08888
9240.88,0.08896
9257.38,0.08898
9273.94,0.089047
9290.56,0.089177
9307.24,0.089259
9323.98,0.089292
9340.78,0.089289
9357.64,0.089339
9374.57,0.089445
9391.55,0.089572
9408.59,0.089631
9425.7,0.089741
9442.87,0.089861
9460.1,0.089883
9477.4,0.089909
9494.75,0.090018
9512.17,0.090032
9529.66,0.089982
9547.21,0.089993
9564.83,0.090024
9582.5,0.090052
9600.25,0.090032
9618.06,0.090037
9635.94,0.09018
9653.88,0.090283
9671.89,0.090311
9689.97,0.090384
9708.12,0.090471
9726.33,0.090533
9744.62,0.090652
9762.97,0.090684
9781.39,0.090728
9799.88,0.090793
9818.44,0.090805
9837.07,0.090825
9855.77,0.090831
9874.54,0.090891
9893.39,0.090933
9912.3,0.090958
9931.29,0.091033
9950.36,0.091076
9969.49,0.091141
9988.7,0.091277
10007.98,0.091392
10027.34,0.091414
10046.77,0.091456
10066.28,0.091562
10085.87,0.091666
10105.53,0.091669
10125.26,0.091724
10145.08,0.091788
10164.97,0.091802
10184.94,0.091919
10204.99,0.092064
10225.12,0.092153
10245.33,0.092308
10265.61,0.092399
10285.98,0.092462
10306.43,0.092531
10326.96,0.092532
10347.57,0.092544
10368.27,0.092589
10389.05,0.092643
10409.91,0.092759
10430.86,0.092847
10451.88,0.0929
10473.0,0.09292
10494.2,0.092972
10515.49,0.09302
10536.86,0.093113
10558.32,0.093162
10579.87,0.093157
10601.5,0.093264
10623.23,0.093325
10645.04,0.093326
10666.94,0.093403
10688.94,0.093462
10711.02,0.093504
10733.2,0.093541
10755.47,0.093543
10777.83,0.093606
10800.28,0.093755
10822.83,0.09381
10845.47,0.093813
10868.21,0.093834
10891.04,0.093873
10913.97,0.09393
10936.99,0.094004
10960.12,0.094049
10983.34,0.094091
11006.66,0.094157
11030.07,0.094122
11053.59,0.094059
11077.21,0.094074
11100.93,0.0941
11124.75,0.09407
11148.68,0.094104
11172.71,0.094151
11196.84,0.094299
11221.07,0.094385
11245.41,0.094391
11269.86,0.094446
11294.41,0.094506
11319.07,0.094549
11343.84,0.0946
11368.72,0.094688
11393.7,0.094763
11418.8,0.094738
11444.01,0.094796
11469.33,0.094863
11494.76,0.094904
11520.3,0.094955
11545.96,0.094983
11571.73,0.095047
11597.62,0.095017
11623.62,0.094972
11649.74,0.09502
11675.98,0.095132
11702.34,0.095191
11728.81,0.095174
11755.41,0.095185
11782.13,0.095229
11808.96,0.095218
11835.92,0.095198
11863.01,0.09513
11890.22,0.095132
11917.55,0.095184
11945.01,0.095214
11972.6,0.095216
12000.31,0.095254
12028.16,0.095264
12056.13,0.095198
12084.23,0.095156
12112.46,0.095254
12140.83,0.095428
12169.33,0.095512
12197.96,0.095532
12226.73,0.095575
12255.64,0.095586
12284.68,0.095642
12313.86,0.095692
12343.18,0.095683
12372.64,0.095623
12402.24,0.095598
12431.98,0.095605
12461.86,0.09558
12491.89,0.095561
12522.07,0.095585
12552.38,0.095593
12582.85,0.095623
12613.47,0.095617
12644.23,0.095598
12675.15,0.095569
12706.21,0.095531
12737.43,0.095569
12768.81,0.095552
12800.33,0.095548
12832.02,0.095634
12863.86,0.095683
12895.86,0.095658
12928.02,0.095683
12960.34,0.095782
12992.82,0.09573
13025.46,0.095635
13058.27,0.095599
13091.25,0.095614
13124.39,0.095651
13157.7,0.095641
13191.18,0.095668
13224.83,0.095753
13258.66,0.095806
13292.65,0.095774
13326.83,0.095804
13361.17,0.095908
13395.7,0.095969
13430.4,0.095977
13465.29,0.095952
13500.35,0.095897
13535.6,0.095951
13571.03,0.09597
13606.65,0.096034
13642.46,0.096121
13678.46,0.096218
13714.64,0.096139
13751.02,0.096084
13787.59,0.096224
13824.36,0.0963
13861.32,0.096267
13898.49,0.096207
13935.85,0.096235
13973.41,0.096389
14011.17,0.096447
14049.15,0.096475
14087.32,0.096534
14125.71,0.096587
14164.3,0.09663
14203.11,0.09674
14242.13,0.096871
14281.36,0.096936
14320.81,0.096866
14360.49,0.096884
14400.38,0.097094
14440.49,0.097316
14480.82,0.097326
14521.39,0.097208
14562.18,0.097314
14603.2,0.097338
14644.45,0.097335
14685.93,0.09734
14727.66,0.097351
14769.62,0.097329
14811.81,0.097436
14854.25,0.097558
14896.94,0.097569
14939.87,0.097697
14983.05,0.097771
15026.48,0.097967
15070.16,0.098293
15114.1,0.098413
15158.29,0.098459
15202.74,0.098565
15247.46,0.098857
15292.43,0.099135
15337.68,0.099216
15383.19,0.09931
15428.97,0.099542
15475.03,0.099766
15521.36,0.09984
15567.97,0.100001
15614.87,0.100182
15662.04,0.100302
15709.5,0.100453
15757.25,0.100584
15805.29,0.100834
15853.62,0.10099
15902.26,0.101239
15951.19,0.101507
16000.42,0.1017
16049.95,0.101934
16099.8,0.102244
16149.95,0.102492
16200.42,0.102713
16251.21,0.103021
16302.31,0.103422
16353.74,0.103795
16405.49,0.104152
16457.57,0.104635
16509.98,0.105058
16562.73,0.105567
16615.82,0.106189
16669.24,0.106784
16723.02,0.107417
16777.14,0.10808
16831.61,0.108761
16886.43,0.109693
16941.62,0.110521
16997.16,0.111282
17053.08,0.11218
17109.36,0.113281
17166.01,0.114477
17223.04,0.115952
17280.45,0.117704
17338.24,0.119342
17396.43,0.121014
17455.0,0.122881
17513.97,0.124855
17573.34,0.126878
17633.11,0.128982
17693.29,0.131129
17753.89,0.133001
17814.9,0.134751
17876.33,0.136432
17938.18,0.137608
18000.47,0.138045
18063.19,0.137947
18126.35,0.137296
18189.95,0.135896
18254.0,0.134397
18318.5,0.132838
18383.46,0.130899
18448.88,0.128867
18514.77,0.126841
18581.13,0.124941
18647.97,0.123459
18715.29,0.122274
18783.1,0.121104
18851.4,0.119826
18920.2,0.11891
18989.51,0.117929
19059.32,0.11702
19129.65,0.116208
19200.5,0.115509
19271.88,0.115134
19343.79,0.11469
19416.24,0.11382
19489.23,0.113336
19562.77,0.112915
19636.88,0.112575
19711.54,0.112085
19786.78,0.111685
19862.59,0.111252
19938.98,0.110968
20015.96,0.11072
20093.55,0.110494
20171.73,0.110415
20250.53,0.110276
20329.94,0.110055
20409.98,0.10983
20490.65,0.110074
20571.96,0.110082
20653.92,0.109802
20736.54,0.109463
20819.82,0.109338
20903.77,0.109552
20988.4,0.109905
21073.72,0.109917
21159.73,0.109743
21246.46,0.109495
21333.89,0.109678
21422.04,0.109724
21510.93,0.109566
21600.56,0.110023
21690.94,0.110399
21782.08,0.110243
21873.99,0.110713
21966.67,0.111631
22060.15,0.111452
22154.42,0.111516
22249.51,0.111344
22345.41,0.111471
22442.14,0.111716
22539.72,0.111778
22638.14,0.112222
22737.43,0.112546
22837.6,0.11289
22938.65,0.113402
23040.6,0.113747
23143.46,0.113538
23247.24,0.113764
23351.96,0.11422
23457.63,0.114421
23564.25,0.115482
23671.85,0.116169
23780.44,0.116704
23890.02,0.116566
24000.63,0.117156
24112.26,0.117846
24224.93,0.118303
24338.66,0.118327
24453.47,0.117896
24569.36,0.1185
24686.36,0.119557
24804.47,0.119351
24923.73,0.119485
25044.13,0.120916
25165.71,0.123006
25288.46,0.123718
25412.43,0.123407
25537.61,0.122944
25664.04,0.125042
25791.72,0.126076
25920.68,0.126809
