Database of Origin,University of Winnipeg Spectrophotometer Facility
Sample Description,8. Sulfates: RELAB + Nicolet spectra / Spectra all made consistently merged: Jan. / 10 / 2005
Date Added,2016-07-15 22:05:54.746662

Data ID,RPN_SUL_08          
Sample ID,SPT102
Mineral Name,Boussingaultite
Grain Size,45-90
Viewing Geometry,30 / 0 | 30
Resolution,5 / 1.3-129
Material Class,Sulfate

Wavelength
305.0,0.171687
310.0,0.171261
315.0,0.174075
320.0,0.176941
325.0,0.181364
330.0,0.187585
335.0,0.1948
340.0,0.203699
345.0,0.214411
350.0,0.225107
355.0,0.238012
360.0,0.251041
365.0,0.26478
370.0,0.278307
375.0,0.290735
380.0,0.304451
385.0,0.318126
390.0,0.331762
395.0,0.347129
400.0,0.361914
405.0,0.376109
410.0,0.389391
415.0,0.401019
420.0,0.410819
425.0,0.419402
430.0,0.427786
435.0,0.437832
440.0,0.44589
445.0,0.453528
450.0,0.460023
455.0,0.466594
460.0,0.472652
465.0,0.478925
470.0,0.483821
475.0,0.488958
480.0,0.496623
485.0,0.501225
490.0,0.506781
495.0,0.511622
500.0,0.517253
505.0,0.522772
510.0,0.527501
515.0,0.532819
520.0,0.537445
525.0,0.543777
530.0,0.546018
535.0,0.553062
540.0,0.557657
545.0,0.562184
550.0,0.567019
555.0,0.571811
560.0,0.577105
565.0,0.58245
570.0,0.585348
575.0,0.591496
580.0,0.595244
585.0,0.600827
590.0,0.605503
595.0,0.610408
600.0,0.615764
605.0,0.620081
610.0,0.62362
615.0,0.628275
620.0,0.632742
625.0,0.637307
630.0,0.640213
635.0,0.64544
640.0,0.649752
645.0,0.653012
650.0,0.656169
655.0,0.661479
660.0,0.66579
665.0,0.671332
670.0,0.67409
675.0,0.676958
680.0,0.68223
685.0,0.685115
690.0,0.689037
695.0,0.693301
700.0,0.695619
705.0,0.696892
710.0,0.701823
715.0,0.703676
720.0,0.706259
725.0,0.709878
730.0,0.711746
735.0,0.71429
740.0,0.717807
745.0,0.721988
750.0,0.721569
755.0,0.72514
760.0,0.727632
765.0,0.73015
770.0,0.732696
775.0,0.734265
780.0,0.736611
785.0,0.739166
790.0,0.739935
795.0,0.740666
800.0,0.744704
805.0,0.746364
810.0,0.745896
815.0,0.746863
820.0,0.748829
825.0,0.750824
830.0,0.751414
835.0,0.750464
840.0,0.753316
845.0,0.751516
850.0,0.753998
855.0,0.752904
860.0,0.752872
865.0,0.755138
870.0,0.755354
875.0,0.754799
880.0,0.753026
885.0,0.755842
890.0,0.755442
895.0,0.754167
900.0,0.754147
905.0,0.7541
910.0,0.75304
915.0,0.754609
920.0,0.753321
925.0,0.75371
930.0,0.753528
935.0,0.751241
940.0,0.754449
945.0,0.752402
950.0,0.754081
955.0,0.751452
960.0,0.750415
965.0,0.748807
970.0,0.748409
975.0,0.745771
980.0,0.746678
985.0,0.744734
990.0,0.746534
995.0,0.742827
1000.0,0.741068
1005.0,0.74088
1010.0,0.741993
1015.0,0.742851
1020.0,0.740071
1025.0,0.740067
1030.0,0.739918
1035.0,0.739281
1040.0,0.737598
1045.0,0.739892
1050.0,0.738341
1055.0,0.740046
1060.0,0.737622
1065.0,0.738602
1070.0,0.737529
1075.0,0.739785
1080.0,0.738841
1085.0,0.741276
1090.0,0.74078
1095.0,0.741933
1100.0,0.74143
1105.0,0.738688
1110.0,0.739568
1115.0,0.741422
1120.0,0.74254
1125.0,0.738971
1130.0,0.739667
1135.0,0.737897
1140.0,0.737914
1145.0,0.739516
1150.0,0.735207
1155.0,0.732739
1160.0,0.731965
1165.0,0.727548
1170.0,0.721874
1175.0,0.717869
1180.0,0.716577
1185.0,0.714979
1190.0,0.713163
1195.0,0.709787
1200.0,0.706077
1205.0,0.702921
1210.0,0.699034
1215.0,0.695743
1220.0,0.692209
1225.0,0.689197
1230.0,0.683897
1235.0,0.681728
1240.0,0.676431
1245.0,0.673739
1250.0,0.672357
1255.0,0.670573
1260.0,0.668133
1265.0,0.666811
1270.0,0.667481
1275.0,0.666069
1280.0,0.66779
1285.0,0.671389
1290.0,0.669629
1295.0,0.672209
1300.0,0.67473
1305.0,0.673152
1310.0,0.675196
1315.0,0.676822
1320.0,0.675288
1325.0,0.675234
1330.0,0.674357
1335.0,0.670395
1340.0,0.668869
1345.0,0.666132
1350.0,0.661553
1355.0,0.658454
1360.0,0.655175
1365.0,0.654349
1370.0,0.652146
1375.0,0.647183
1380.0,0.642984
1385.0,0.640871
1390.0,0.6377
1395.0,0.6291
1400.0,0.623759
1405.0,0.612893
1410.0,0.60524
1415.0,0.592472
1420.0,0.579194
1425.0,0.561065
1430.0,0.54095
1435.0,0.519527
1440.0,0.49694
1445.0,0.482537
1450.0,0.478313
1455.0,0.475165
1460.0,0.4674
1465.0,0.456318
1470.0,0.442603
1475.0,0.428803
1480.0,0.416593
1485.0,0.402161
1490.0,0.392839
1495.0,0.38647
1500.0,0.383085
1505.0,0.382266
1510.0,0.379788
1515.0,0.380867
1520.0,0.380366
1525.0,0.376932
1530.0,0.373919
1535.0,0.370368
1540.0,0.365746
1545.0,0.362089
1550.0,0.358543
1555.0,0.354185
1560.0,0.351529
1565.0,0.349664
1570.0,0.348946
1575.0,0.347844
1580.0,0.347701
1585.0,0.349188
1590.0,0.347715
1595.0,0.348504
1600.0,0.350392
1605.0,0.352096
1610.0,0.353691
1615.0,0.355611
1620.0,0.357932
1625.0,0.361233
1630.0,0.364507
1635.0,0.369479
1640.0,0.373063
1645.0,0.374515
1650.0,0.379456
1655.0,0.382988
1660.0,0.38735
1665.0,0.39228
1670.0,0.397791
1675.0,0.401468
1680.0,0.40353
1685.0,0.406664
1690.0,0.410052
1695.0,0.412918
1700.0,0.416637
1705.0,0.419517
1710.0,0.424395
1715.0,0.427403
1720.0,0.431619
1725.0,0.433212
1730.0,0.436023
1735.0,0.436083
1740.0,0.437077
1745.0,0.438433
1750.0,0.437685
1755.0,0.436062
1760.0,0.435431
1765.0,0.432718
1770.0,0.43304
1775.0,0.432475
1780.0,0.431809
1785.0,0.432
1790.0,0.432291
1795.0,0.433387
1800.0,0.435134
1805.0,0.436474
1810.0,0.437733
1815.0,0.439133
1820.0,0.440166
1825.0,0.442881
1830.0,0.441342
1835.0,0.442325
1840.0,0.441351
1845.0,0.441145
1850.0,0.439133
1855.0,0.434883
1860.0,0.431468
1865.0,0.426176
1870.0,0.417388
1875.0,0.409608
1880.0,0.39613
1885.0,0.382243
1890.0,0.36637
1895.0,0.346677
1900.0,0.327632
1905.0,0.307512
1910.0,0.287597
1915.0,0.266112
1920.0,0.245137
1925.0,0.223318
1930.0,0.20321
1935.0,0.182019
1940.0,0.166585
1945.0,0.16252
1950.0,0.163208
1955.0,0.161404
1960.0,0.153792
1965.0,0.146494
1970.0,0.138572
1975.0,0.13206
1980.0,0.127527
1985.0,0.123175
1990.0,0.121231
1995.0,0.119199
2000.0,0.119763
2005.0,0.118876
2010.0,0.118709
2015.0,0.116987
2020.0,0.11627
2025.0,0.114478
2030.0,0.114079
2035.0,0.11328
2040.0,0.113123
2045.0,0.113459
2050.0,0.114687
2055.0,0.116388
2060.0,0.118234
2065.0,0.120005
2070.0,0.120933
2075.0,0.122764
2080.0,0.124436
2085.0,0.124834
2090.0,0.12454
2095.0,0.123206
2100.0,0.121014
2105.0,0.118214
2110.0,0.115653
2115.0,0.112091
2120.0,0.107654
2125.0,0.104949
2130.0,0.103109
2135.0,0.101609
2140.0,0.099755
2145.0,0.098926
2150.0,0.098871
2155.0,0.099006
2160.0,0.1001
2165.0,0.10077
2170.0,0.102659
2175.0,0.10521
2180.0,0.108147
2185.0,0.112594
2190.0,0.117805
2195.0,0.123909
2200.0,0.13014
2205.0,0.136153
2210.0,0.140544
2215.0,0.144725
2220.0,0.14794
2225.0,0.152712
2230.0,0.159273
2235.0,0.164716
2240.0,0.170666
2245.0,0.176548
2250.0,0.182447
2255.0,0.188288
2260.0,0.194361
2265.0,0.200227
2270.0,0.205862
2275.0,0.208763
2280.0,0.210326
2285.0,0.209901
2290.0,0.209372
2295.0,0.207094
2300.0,0.204198
2305.0,0.202092
2310.0,0.200686
2315.0,0.199374
2320.0,0.197279
2325.0,0.194451
2330.0,0.191857
2335.0,0.187852
2340.0,0.183386
2345.0,0.178742
2350.0,0.173692
2355.0,0.168348
2360.0,0.163291
2365.0,0.157224
2370.0,0.150506
2375.0,0.14413
2380.0,0.137796
2385.0,0.132335
2390.0,0.126891
2395.0,0.122043
2400.0,0.117202
2405.0,0.113946
2410.0,0.11204
2415.0,0.110123
2420.0,0.108382
2425.0,0.108059
2430.0,0.109367
2435.0,0.111427
2440.0,0.113851
2445.0,0.116353
2450.0,0.12001
2455.0,0.122341
2460.0,0.124399
2465.0,0.124966
2470.0,0.12521
2475.0,0.124258
2480.0,0.123039
2485.0,0.120258
2490.0,0.117978
2495.0,0.114134
2500.0,0.111841
2505.0,0.108723
2510.0,0.106591
2515.0,0.105223
2520.0,0.10407
2525.0,0.103361
2530.0,0.102676
2535.0,0.10236
2540.0,0.102768
2545.0,0.1017
2550.0,0.10152
2555.0,0.100835
2560.0,0.10043
2565.13,0.100239
2570.22,0.099088
2575.33,0.09879
2580.46,0.097701
2581.74,0.097063
2583.03,0.097059
2584.31,0.097092
2585.6,0.097616
2586.89,0.097526
2588.19,0.096813
2589.48,0.096687
2590.77,0.096464
2592.07,0.096154
2593.36,0.095751
2594.66,0.095439
2595.96,0.095657
2597.26,0.095794
2598.56,0.095761
2599.87,0.095586
2601.17,0.095332
2602.48,0.094952
2603.78,0.094682
2605.09,0.094457
2606.4,0.094363
2607.71,0.0945
2609.03,0.094116
2610.34,0.093473
2611.66,0.093072
2612.97,0.093169
2614.29,0.093049
2615.61,0.092565
2616.93,0.092093
2618.25,0.092148
2619.57,0.091947
2620.9,0.091173
2622.22,0.091395
2623.55,0.091501
2624.88,0.090879
2626.21,0.089947
2627.54,0.089314
2628.87,0.089534
2630.21,0.089166
2631.54,0.088433
2632.88,0.088119
2634.21,0.087676
2635.55,0.087377
2636.89,0.087045
2638.24,0.086577
2639.58,0.086353
2640.92,0.086016
2642.27,0.085094
2643.62,0.084465
2644.97,0.084212
2646.32,0.083517
2647.67,0.083286
2649.02,0.083119
2650.38,0.082587
2651.73,0.081707
2653.09,0.080739
2654.45,0.080187
2655.81,0.079766
2657.17,0.079034
2658.53,0.078286
2659.89,0.077704
2661.26,0.077284
2662.63,0.076817
2664.0,0.076088
2665.36,0.075052
2666.74,0.074347
2668.11,0.074046
2669.48,0.073489
2670.86,0.072191
2672.23,0.071562
2673.61,0.070738
2674.99,0.069224
2676.37,0.067843
2677.76,0.066863
2679.14,0.066063
2680.52,0.065313
2681.91,0.064418
2683.3,0.063224
2684.69,0.062467
2686.08,0.061885
2687.47,0.061022
2688.87,0.060327
2690.26,0.059738
2691.66,0.058989
2693.06,0.057897
2694.46,0.056905
2695.86,0.056351
2697.26,0.056003
2698.66,0.05533
2700.07,0.054222
2701.48,0.0533
2702.89,0.05258
2704.3,0.051853
2705.71,0.050906
2707.12,0.050101
2708.53,0.049367
2709.95,0.048444
2711.37,0.047571
2712.79,0.046719
2714.21,0.046159
2715.63,0.04567
2717.05,0.044799
2718.48,0.043683
2719.9,0.042805
2721.33,0.042111
2722.76,0.041828
2724.19,0.04085
2725.62,0.039898
2727.06,0.039443
2728.49,0.038876
2729.93,0.037885
2731.37,0.036943
2732.81,0.03615
2734.25,0.035469
2735.69,0.034743
2737.14,0.033923
2738.58,0.033167
2740.03,0.032306
2741.48,0.03165
2742.93,0.031142
2744.38,0.030434
2745.83,0.02959
2747.29,0.028915
2748.75,0.028064
2750.2,0.027267
2751.66,0.026491
2753.13,0.025523
2754.59,0.024764
2756.05,0.024144
2757.52,0.02399
2758.99,0.023602
2760.46,0.022735
2761.93,0.022152
2763.4,0.021754
2764.87,0.02106
2766.35,0.020141
2767.82,0.01966
2769.3,0.01945
2770.78,0.018817
2772.26,0.018121
2773.75,0.017731
2775.23,0.017465
2776.72,0.017165
2778.21,0.016614
2779.7,0.015904
2781.19,0.015377
2782.68,0.015165
2784.18,0.014978
2785.67,0.014709
2787.17,0.014334
2788.67,0.013944
2790.17,0.013649
2791.67,0.013459
2793.18,0.013321
2794.68,0.012971
2796.19,0.012387
2797.7,0.012014
2799.21,0.012099
2800.72,0.012051
2802.24,0.011843
2803.75,0.011742
2805.27,0.011545
2806.79,0.011376
2808.31,0.011237
2809.83,0.0109
2811.35,0.010719
2812.88,0.010441
2814.41,0.010323
2815.93,0.010505
2817.46,0.010476
2819.0,0.010208
2820.53,0.010064
2822.07,0.009801
2823.6,0.009722
2825.14,0.009832
2826.68,0.009899
2828.22,0.009792
2829.77,0.009604
2831.31,0.009673
2832.86,0.00963
2834.41,0.009398
2835.96,0.00917
2837.51,0.009033
2839.07,0.008964
2840.62,0.008839
2842.18,0.008818
2843.74,0.008775
2845.3,0.008716
2846.86,0.008506
2848.43,0.008252
2849.99,0.008297
2851.56,0.008519
2853.13,0.008444
2854.7,0.008107
2856.27,0.008346
2857.85,0.008536
2859.42,0.008332
2861.0,0.008115
2862.58,0.008019
2864.16,0.008021
2865.75,0.007891
2867.33,0.007877
2868.92,0.008
2870.51,0.007928
2872.1,0.007784
2873.69,0.00768
2875.28,0.007543
2876.88,0.007579
2878.48,0.007594
2880.07,0.007603
2881.68,0.007645
2883.28,0.007568
2884.88,0.007306
2886.49,0.007175
2888.1,0.007507
2889.71,0.007679
2891.32,0.00765
2892.93,0.007576
2894.55,0.007455
2896.16,0.007312
2897.78,0.007236
2899.4,0.007225
2901.03,0.007188
2902.65,0.007062
2904.28,0.006959
2905.91,0.007
2907.54,0.007051
2909.17,0.007091
2910.8,0.00713
2912.44,0.007098
2914.07,0.006898
2915.71,0.006917
2917.35,0.007052
2918.99,0.007004
2920.64,0.006954
2922.29,0.007089
2923.93,0.00703
2925.58,0.006918
2927.24,0.006973
2928.89,0.007092
2930.55,0.00719
2932.2,0.007047
2933.86,0.006711
2935.52,0.006738
2937.19,0.006929
2938.85,0.006862
2940.52,0.006933
2942.19,0.006879
2943.86,0.00681
2945.53,0.006707
2947.21,0.006663
2948.88,0.006729
2950.56,0.00683
2952.24,0.006686
2953.92,0.006545
2955.61,0.006592
2957.29,0.006589
2958.98,0.006551
2960.67,0.006552
2962.36,0.006579
2964.06,0.006679
2965.75,0.006759
2967.45,0.006589
2969.15,0.006451
2970.85,0.006424
2972.55,0.006396
2974.26,0.006287
2975.97,0.00622
2977.68,0.006443
2979.39,0.006655
2981.1,0.006588
2982.82,0.006369
2984.53,0.006388
2986.25,0.006483
2987.97,0.006507
2989.7,0.006543
2991.42,0.006535
2993.15,0.006431
2994.88,0.006384
2996.61,0.006473
2998.34,0.006551
3000.08,0.006503
3001.82,0.00625
3003.55,0.006172
3005.3,0.006269
3007.04,0.006379
3008.78,0.006456
3010.53,0.006355
3012.28,0.006511
3014.03,0.006516
3015.79,0.006407
3017.54,0.006461
3019.3,0.006361
3021.06,0.006393
3022.82,0.006498
3024.58,0.006493
3026.35,0.006514
3028.12,0.006494
3029.89,0.006555
3031.66,0.006611
3033.43,0.006616
3035.21,0.006652
3036.99,0.006544
3038.77,0.00644
3040.55,0.006638
3042.33,0.006725
3044.12,0.006612
3045.91,0.006646
3047.7,0.006677
3049.49,0.006574
3051.29,0.00664
3053.08,0.006821
3054.88,0.006873
3056.68,0.006877
3058.49,0.006823
3060.29,0.006867
3062.1,0.006813
3063.91,0.00686
3065.72,0.007074
3067.54,0.007212
3069.35,0.007179
3071.17,0.007066
3072.99,0.007042
3074.81,0.007274
3076.64,0.007497
3078.47,0.007463
3080.29,0.007559
3082.13,0.007546
3083.96,0.007547
3085.79,0.007651
3087.63,0.007744
3089.47,0.007762
3091.31,0.00772
3093.16,0.007714
3095.01,0.007609
3096.85,0.007594
3098.71,0.007742
3100.56,0.007924
3102.41,0.007905
3104.27,0.007955
3106.13,0.008037
3107.99,0.00802
3109.86,0.008144
3111.73,0.008286
3113.59,0.008243
3115.47,0.008151
3117.34,0.008116
3119.21,0.008267
3121.09,0.008356
3122.97,0.008268
3124.86,0.008259
3126.74,0.008476
3128.63,0.008567
3130.52,0.008454
3132.41,0.008421
3134.3,0.008475
3136.2,0.00853
3138.1,0.008618
3140.0,0.008574
3141.9,0.00842
3143.81,0.008403
3145.71,0.008556
3147.62,0.008655
3149.54,0.008648
3151.45,0.008743
3153.37,0.008803
3155.29,0.008706
3157.21,0.008678
3159.13,0.008736
3161.06,0.00888
3162.99,0.008848
3164.92,0.008789
3166.85,0.008697
3168.79,0.008645
3170.72,0.008708
3172.67,0.00867
3174.61,0.008717
3176.55,0.008736
3178.5,0.008722
3180.45,0.008741
3182.4,0.008772
3184.36,0.008717
3186.32,0.008691
3188.27,0.008727
3190.24,0.008759
3192.2,0.008734
3194.17,0.008773
3196.14,0.008799
3198.11,0.008742
3200.08,0.008685
3202.06,0.008775
3204.04,0.008925
3206.02,0.00877
3208.0,0.008625
3209.99,0.008768
3211.98,0.008949
3213.97,0.008998
3215.96,0.008871
3217.96,0.008751
3219.96,0.008825
3221.96,0.008929
3223.96,0.008942
3225.97,0.008802
3227.98,0.008724
3229.99,0.008697
3232.0,0.008814
3234.02,0.00894
3236.04,0.009017
3238.06,0.008989
3240.08,0.008914
3242.11,0.008881
3244.14,0.009028
3246.17,0.0091
3248.2,0.008976
3250.24,0.008842
3252.28,0.008954
3254.32,0.009155
3256.37,0.009107
3258.41,0.008933
3260.46,0.009078
3262.51,0.009291
3264.57,0.009218
3266.63,0.009201
3268.69,0.00924
3270.75,0.00924
3272.81,0.009343
3274.88,0.00944
3276.95,0.009419
3279.02,0.00936
3281.1,0.009395
3283.18,0.009394
3285.26,0.0094
3287.34,0.009532
3289.43,0.009622
3291.51,0.009659
3293.61,0.009689
3295.7,0.00963
3297.8,0.009515
3299.9,0.00945
3302.0,0.009569
3304.1,0.009694
3306.21,0.009779
3308.32,0.009726
3310.43,0.009749
3312.55,0.009854
3314.66,0.010036
3316.79,0.010035
3318.91,0.009938
3321.03,0.010026
3323.16,0.010092
3325.29,0.010174
3327.43,0.01028
3329.57,0.010199
3331.71,0.010032
3333.85,0.010105
3335.99,0.010156
3338.14,0.010158
3340.29,0.010191
3342.45,0.010179
3344.6,0.01017
3346.76,0.010207
3348.92,0.010278
3351.09,0.010171
3353.26,0.010168
3355.43,0.010333
3357.6,0.010555
3359.78,0.010586
3361.96,0.010482
3364.14,0.010499
3366.32,0.010582
3368.51,0.010575
3370.7,0.010501
3372.89,0.010395
3375.09,0.010464
3377.29,0.010549
3379.49,0.010484
3381.69,0.010482
3383.9,0.010554
3386.11,0.010641
3388.32,0.010722
3390.54,0.010658
3392.76,0.010605
3394.98,0.010598
3397.21,0.010665
3399.43,0.010713
3401.66,0.010676
3403.9,0.010704
3406.13,0.010641
3408.37,0.010654
3410.61,0.010588
3412.86,0.01053
3415.11,0.010776
3417.36,0.010925
3419.61,0.010895
3421.87,0.010823
3424.13,0.010711
3426.39,0.01076
3428.66,0.010839
3430.93,0.010789
3433.2,0.010827
3435.48,0.010806
3437.76,0.010751
3440.04,0.01086
3442.32,0.010935
3444.61,0.010915
3446.9,0.010877
3449.19,0.010863
3451.49,0.010943
3453.79,0.011016
3456.09,0.011109
3458.4,0.011052
3460.7,0.010948
3463.02,0.010945
3465.33,0.010911
3467.65,0.010854
3469.97,0.010887
3472.29,0.010988
3474.62,0.01102
3476.95,0.010984
3479.29,0.010954
3481.62,0.011089
3483.96,0.011137
3486.3,0.011054
3488.65,0.011032
3491.0,0.011121
3493.35,0.011205
3495.71,0.011228
3498.07,0.011205
3500.43,0.011205
3502.79,0.011228
3505.16,0.011233
3507.53,0.011257
3509.91,0.011353
3512.29,0.011475
3514.67,0.011552
3517.05,0.011544
3519.44,0.011508
3521.83,0.01152
3524.23,0.011608
3526.62,0.011662
3529.02,0.011664
3531.43,0.011681
3533.83,0.011827
3536.24,0.011995
3538.66,0.011942
3541.08,0.011927
3543.5,0.011967
3545.92,0.012089
3548.35,0.012203
3550.78,0.012257
3553.21,0.012245
3555.65,0.012369
3558.09,0.012493
3560.53,0.012514
3562.98,0.012542
3565.43,0.012596
3567.88,0.012719
3570.34,0.012865
3572.8,0.013018
3575.27,0.013046
3577.73,0.01298
3580.2,0.013035
3582.68,0.013133
3585.16,0.013251
3587.64,0.013376
3590.12,0.01339
3592.61,0.013415
3595.1,0.01351
3597.6,0.013628
3600.09,0.013733
3602.6,0.013804
3605.1,0.013873
3607.61,0.013954
3610.12,0.013977
3612.64,0.013953
3615.16,0.014072
3617.68,0.014178
3620.21,0.014233
3622.74,0.014272
3625.27,0.014484
3627.81,0.014697
3630.35,0.01466
3632.89,0.01471
3635.44,0.014843
3637.99,0.014877
3640.54,0.014989
3643.1,0.015123
3645.66,0.015165
3648.23,0.015183
3650.8,0.015293
3653.37,0.015447
3655.95,0.015577
3658.53,0.01563
3661.11,0.015648
3663.7,0.015733
3666.29,0.015867
3668.89,0.015863
3671.48,0.016001
3674.09,0.016079
3676.69,0.016214
3679.3,0.016405
3681.91,0.016464
3684.53,0.01656
3687.15,0.016603
3689.78,0.016597
3692.4,0.016697
3695.04,0.016927
3697.67,0.016978
3700.31,0.017069
3702.95,0.017249
3705.6,0.017259
3708.25,0.01731
3710.91,0.017486
3713.56,0.01763
3716.23,0.017709
3718.89,0.017708
3721.56,0.017785
3724.23,0.0179
3726.91,0.01796
3729.59,0.018139
3732.28,0.01826
3734.97,0.018338
3737.66,0.018464
3740.36,0.018608
3743.06,0.018722
3745.76,0.018881
3748.47,0.019013
3751.18,0.018998
3753.9,0.019071
3756.62,0.019283
3759.34,0.019389
3762.07,0.019402
3764.8,0.01951
3767.54,0.019606
3770.28,0.019705
3773.02,0.019906
3775.77,0.019948
3778.52,0.019964
3781.28,0.020144
3784.04,0.020382
3786.8,0.020506
3789.57,0.020588
3792.34,0.020596
3795.12,0.020605
3797.9,0.020731
3800.69,0.020883
3803.47,0.021142
3806.27,0.021333
3809.06,0.021331
3811.86,0.021441
3814.67,0.021666
3817.48,0.021769
3820.29,0.021899
3823.11,0.022066
3825.93,0.022156
3828.76,0.022241
3831.59,0.022351
3834.42,0.022479
3837.26,0.022563
3840.1,0.022679
3842.95,0.022832
3845.8,0.022959
3848.65,0.023148
3851.51,0.02332
3854.38,0.02343
3857.24,0.023551
3860.12,0.023653
3862.99,0.023667
3865.87,0.023752
3868.76,0.023913
3871.65,0.024049
3874.54,0.024174
3877.44,0.024267
3880.34,0.024336
3883.25,0.024489
3886.16,0.024623
3889.07,0.024712
3891.99,0.024812
3894.92,0.024914
3897.85,0.025061
3900.78,0.025063
3903.72,0.025038
3906.66,0.025244
3909.6,0.025511
3912.55,0.025525
3915.51,0.025598
3918.47,0.02568
3921.43,0.02566
3924.4,0.02575
3927.38,0.025872
3930.35,0.025927
3933.33,0.026094
3936.32,0.026263
3939.31,0.026273
3942.31,0.026343
3945.31,0.026437
3948.31,0.026481
3951.32,0.026523
3954.34,0.026662
3957.35,0.02679
3960.38,0.026808
3963.41,0.026837
3966.44,0.026919
3969.48,0.026998
3972.52,0.027103
3975.56,0.027137
3978.61,0.027221
3981.67,0.027377
3984.73,0.027482
3987.8,0.027531
3990.87,0.027563
3993.94,0.027627
3997.02,0.027645
4000.1,0.02765
4003.19,0.027726
4006.29,0.027857
4009.39,0.027885
4012.49,0.027965
4015.6,0.028058
4018.71,0.028144
4021.83,0.028258
4024.95,0.028289
4028.08,0.028316
4031.21,0.028369
4034.35,0.028502
4037.49,0.028655
4040.64,0.028621
4043.79,0.028681
4046.94,0.028849
4050.11,0.028894
4053.27,0.028903
4056.44,0.028948
4059.62,0.02902
4062.8,0.028993
4065.99,0.029056
4069.18,0.029157
4072.38,0.029144
4075.58,0.02919
4078.78,0.029257
4082.0,0.029207
4085.21,0.029282
4088.43,0.029408
4091.66,0.029471
4094.89,0.029444
4098.13,0.029489
4101.37,0.029639
4104.62,0.029722
4107.87,0.029793
4111.13,0.029852
4114.39,0.029922
4117.66,0.02992
4120.93,0.029938
4124.21,0.029952
4127.5,0.02994
4130.79,0.029982
4134.08,0.030027
4137.38,0.030107
4140.68,0.030192
4143.99,0.030195
4147.31,0.030157
4150.63,0.030138
4153.95,0.030188
4157.29,0.030258
4160.62,0.030247
4163.96,0.030249
4167.31,0.030287
4170.66,0.030361
4174.02,0.030427
4177.39,0.030372
4180.75,0.030406
4184.13,0.030433
4187.51,0.030324
4190.89,0.030243
4194.28,0.030318
4197.68,0.03035
4201.08,0.030331
4204.49,0.030369
4207.9,0.030423
4211.32,0.030464
4214.74,0.030383
4218.17,0.030322
4221.61,0.030269
4225.05,0.030241
4228.5,0.030169
4231.95,0.030074
4235.4,0.030144
4238.87,0.030108
4242.34,0.030072
4245.81,0.030101
4249.29,0.030077
4252.78,0.030061
4256.27,0.030059
4259.77,0.029994
4263.27,0.029816
4266.78,0.029715
4270.29,0.029725
4273.81,0.029715
4277.34,0.029641
4280.87,0.029522
4284.41,0.029515
4287.95,0.029408
4291.5,0.029297
4295.06,0.029293
4298.62,0.029303
4302.19,0.029225
4305.76,0.02919
4309.34,0.029173
4312.92,0.029026
4316.52,0.028935
4320.11,0.028874
4323.72,0.028818
4327.32,0.028765
4330.94,0.02864
4334.56,0.028539
4338.19,0.028531
4341.82,0.02849
4345.46,0.028364
4349.11,0.0282
4352.76,0.028095
4356.42,0.028039
4360.08,0.028051
4363.75,0.028031
4367.43,0.027937
4371.11,0.027861
4374.8,0.02787
4378.49,0.027783
4382.19,0.027645
4385.9,0.027614
4389.61,0.027498
4393.33,0.027382
4397.06,0.027315
4400.79,0.027233
4404.53,0.027177
4408.28,0.027134
4412.03,0.02705
4415.79,0.026983
4419.55,0.026957
4423.32,0.026937
4427.1,0.026885
4430.88,0.026799
4434.68,0.02673
4438.47,0.026683
4442.28,0.026663
4446.08,0.026618
4449.9,0.026563
4453.72,0.026501
4457.55,0.026464
4461.39,0.026426
4465.23,0.026392
4469.08,0.026299
4472.94,0.02614
4476.8,0.026063
4480.67,0.02602
4484.55,0.025939
4488.43,0.025951
4492.32,0.025943
4496.21,0.025871
4500.12,0.025747
4504.03,0.025651
4507.94,0.025604
4511.87,0.025687
4515.8,0.025722
4519.73,0.025598
4523.68,0.025447
4527.63,0.02541
4531.59,0.025369
4535.55,0.025333
4539.52,0.025253
4543.5,0.025188
4547.49,0.025101
4551.48,0.025056
4555.48,0.025079
4559.49,0.024989
4563.5,0.024892
4567.52,0.024855
4571.55,0.024818
4575.58,0.024821
4579.63,0.024763
4583.67,0.024763
4587.73,0.024724
4591.79,0.024622
4595.86,0.024592
4599.94,0.024548
4604.03,0.024447
4608.12,0.024392
4612.22,0.024336
4616.33,0.024316
4620.44,0.024321
4624.56,0.024278
4628.69,0.024167
4632.83,0.024024
4636.97,0.023992
4641.12,0.023969
4645.28,0.023868
4649.45,0.023752
4653.62,0.023676
4657.8,0.023599
4661.99,0.023475
4666.19,0.023397
4670.39,0.023276
4674.6,0.023189
4678.82,0.02312
4683.05,0.023069
4687.28,0.022998
4691.52,0.022928
4695.77,0.022913
4700.03,0.022839
4704.3,0.022782
4708.57,0.022848
4712.85,0.02286
4717.14,0.022829
4721.43,0.022751
4725.74,0.022737
4730.05,0.022758
4734.37,0.022725
4738.7,0.022693
4743.03,0.022717
4747.38,0.022712
4751.73,0.022653
4756.09,0.022648
4760.45,0.022697
4764.83,0.02272
4769.21,0.022652
4773.6,0.022591
4778.0,0.022586
4782.41,0.02255
4786.83,0.022507
4791.25,0.022476
4795.68,0.02251
4800.13,0.022559
4804.57,0.022471
4809.03,0.022392
4813.5,0.02237
4817.97,0.022316
4822.45,0.022296
4826.94,0.022321
4831.44,0.022283
4835.95,0.022144
4840.46,0.022132
4844.99,0.022171
4849.52,0.022112
4854.06,0.022075
4858.61,0.022057
4863.17,0.022008
4867.73,0.021985
4872.31,0.021981
4876.89,0.021973
4881.48,0.021888
4886.08,0.021881
4890.69,0.021988
4895.31,0.021985
4899.94,0.021971
4904.57,0.021984
4909.22,0.022039
4913.87,0.022122
4918.53,0.022128
4923.21,0.022176
4927.88,0.022311
4932.57,0.022396
4937.27,0.022401
4941.98,0.022459
4946.69,0.022566
4951.42,0.022567
4956.15,0.022591
4960.9,0.022668
4965.65,0.022689
4970.41,0.022683
4975.18,0.022728
4979.96,0.022753
4984.75,0.022772
4989.54,0.022831
4994.35,0.022944
4999.17,0.023069
5003.99,0.023135
5008.83,0.023088
5013.67,0.023063
5018.52,0.023101
5023.39,0.023117
5028.26,0.023184
5033.14,0.023252
5038.03,0.023334
5042.93,0.02333
5047.84,0.023265
5052.76,0.023247
5057.69,0.023285
5062.63,0.0233
5067.58,0.023345
5072.54,0.023372
5077.51,0.0234
5082.49,0.023416
5087.47,0.023417
5092.47,0.023381
5097.48,0.02338
5102.5,0.023376
5107.52,0.023408
5112.56,0.023443
5117.61,0.023422
5122.66,0.023395
5127.73,0.023386
5132.81,0.023388
5137.89,0.02341
5142.99,0.023476
5148.1,0.023404
5153.22,0.023315
5158.34,0.023356
5163.48,0.023339
5168.63,0.023332
5173.79,0.02333
5178.96,0.023288
5184.13,0.023217
5189.32,0.023162
5194.52,0.023074
5199.73,0.022937
5204.96,0.022903
5210.19,0.022844
5215.43,0.022771
5220.68,0.022743
5225.94,0.022611
5231.22,0.022461
5236.5,0.022343
5241.79,0.022206
5247.1,0.022087
5252.42,0.022007
5257.74,0.021901
5263.08,0.021735
5268.43,0.021612
5273.79,0.021542
5279.16,0.02143
5284.54,0.021279
5289.93,0.021138
5295.34,0.021
5300.75,0.020868
5306.18,0.020722
5311.61,0.020573
5317.06,0.02047
5322.52,0.020349
5327.99,0.020223
5333.47,0.020104
5338.96,0.019945
5344.47,0.019818
5349.98,0.019682
5355.51,0.019559
5361.05,0.019418
5366.6,0.019298
5372.16,0.019166
5377.73,0.019071
5383.32,0.018959
5388.91,0.018831
5394.52,0.018747
5400.14,0.018677
5405.77,0.018601
5411.41,0.018521
5417.07,0.01845
5422.74,0.018305
5428.41,0.018151
5434.1,0.018057
5439.81,0.01793
5445.52,0.017844
5451.25,0.017792
5456.98,0.017718
5462.73,0.017573
5468.5,0.01746
5474.27,0.017405
5480.06,0.01735
5485.86,0.017283
5491.67,0.017158
5497.49,0.017075
5503.33,0.016999
5509.18,0.016896
5515.04,0.016809
5520.91,0.016695
5526.8,0.016616
5532.69,0.016501
5538.61,0.016407
5544.53,0.016408
5550.47,0.016319
5556.41,0.016141
5562.38,0.016002
5568.35,0.015984
5574.34,0.015928
5580.34,0.015836
5586.35,0.015727
5592.38,0.01559
5598.42,0.015466
5604.47,0.015361
5610.54,0.01526
5616.61,0.015179
5622.71,0.015105
5628.81,0.015037
5634.93,0.014878
5641.06,0.01479
5647.21,0.014786
5653.36,0.014695
5659.54,0.014542
5665.72,0.014428
5671.92,0.014281
5678.13,0.014181
5684.36,0.014092
5690.6,0.013983
5696.85,0.013889
5703.12,0.013846
5709.4,0.013771
5715.69,0.013646
5722.0,0.013563
5728.33,0.013487
5734.66,0.013372
5741.01,0.013289
5747.38,0.013206
5753.76,0.013058
5760.15,0.01296
5766.56,0.012883
5772.98,0.012752
5779.41,0.012629
5785.86,0.012472
5792.33,0.012293
5798.81,0.012129
5805.3,0.012006
5811.81,0.011918
5818.33,0.011787
5824.87,0.011647
5831.42,0.01152
5837.99,0.011393
5844.57,0.011218
5851.17,0.011094
5857.78,0.010971
5864.41,0.010801
5871.05,0.010705
5877.7,0.010649
5884.38,0.010546
5891.06,0.010495
5897.76,0.010392
5904.48,0.010329
5911.21,0.010261
5917.96,0.010174
5924.73,0.010139
5931.5,0.010092
5938.3,0.010008
5945.11,0.009995
5951.93,0.010051
5958.78,0.010061
5965.63,0.010031
5972.51,0.009989
5979.39,0.009967
5986.3,0.009972
5993.22,0.009992
6000.16,0.009958
6007.11,0.009976
6014.08,0.009973
6021.06,0.010008
6028.06,0.010071
6035.08,0.010061
6042.12,0.010018
6049.17,0.010082
6056.23,0.010223
6063.32,0.010249
6070.42,0.010254
6077.53,0.010382
6084.67,0.010553
6091.82,0.010593
6098.98,0.010608
6106.17,0.010653
6113.37,0.010724
6120.58,0.010844
6127.82,0.010946
6135.07,0.01097
6142.34,0.010954
6149.63,0.010927
6156.93,0.010944
6164.25,0.010981
6171.59,0.011003
6178.95,0.011031
6186.32,0.01107
6193.71,0.011123
6201.12,0.01122
6208.54,0.011301
6215.99,0.011347
6223.45,0.011428
6230.93,0.011512
6238.43,0.011552
6245.95,0.011558
6253.48,0.011597
6261.03,0.011639
6268.6,0.011601
6276.19,0.011637
6283.8,0.011668
6291.43,0.011723
6299.07,0.011751
6306.73,0.011667
6314.42,0.011624
6322.12,0.01165
6329.84,0.011664
6337.57,0.011578
6345.33,0.01148
6353.11,0.011472
6360.9,0.011502
6368.72,0.011487
6376.55,0.011413
6384.4,0.011313
6392.27,0.011294
6400.17,0.01125
6408.08,0.011031
6416.01,0.010956
6423.96,0.011009
6431.93,0.010918
6439.92,0.010764
6447.93,0.01064
6455.96,0.010535
6464.01,0.010441
6472.08,0.010262
6480.17,0.010137
6488.28,0.010024
6496.41,0.009845
6504.56,0.009716
6512.73,0.009576
6520.92,0.009412
6529.14,0.009277
6537.37,0.009143
6545.63,0.008994
6553.9,0.00883
6562.2,0.008635
6570.51,0.008466
6578.85,0.008356
6587.21,0.008149
6595.59,0.007996
6603.99,0.007859
6612.42,0.007686
6620.86,0.007552
6629.33,0.007359
6637.82,0.007118
6646.33,0.00693
6654.86,0.006759
6663.41,0.006602
6671.99,0.006401
6680.59,0.006224
6689.21,0.006131
6697.85,0.005989
6706.51,0.005844
6715.2,0.005765
6723.91,0.005732
6732.64,0.005645
6741.4,0.005601
6750.18,0.005636
6758.98,0.005692
6767.8,0.005755
6776.65,0.005809
6785.52,0.005887
6794.41,0.005976
6803.33,0.006054
6812.27,0.006106
6821.23,0.006165
6830.22,0.006318
6839.23,0.006457
6848.26,0.006533
6857.32,0.006596
6866.4,0.006673
6875.51,0.006882
6884.64,0.007064
6893.8,0.00721
6902.98,0.007461
6912.18,0.007726
6921.41,0.007985
6930.66,0.008265
6939.94,0.008634
6949.24,0.009031
6958.57,0.009419
6967.92,0.009769
6977.3,0.010086
6986.7,0.010373
6996.13,0.010569
7005.59,0.010664
7015.07,0.010705
7024.57,0.0108
7034.1,0.010902
7043.66,0.010887
7053.25,0.010855
7062.85,0.010798
7072.49,0.010787
7082.15,0.010795
7091.84,0.010795
7101.55,0.010757
7111.3,0.01064
7121.06,0.010546
7130.86,0.010478
7140.68,0.010458
7150.53,0.010405
7160.41,0.010325
7170.31,0.0102
7180.24,0.010011
7190.2,0.01
7200.19,0.009927
7210.2,0.00981
7220.24,0.009741
7230.31,0.009686
7240.41,0.009667
7250.54,0.009627
7260.69,0.009586
7270.88,0.009487
7281.09,0.009483
7291.33,0.009474
7301.6,0.009433
7311.9,0.009389
7322.22,0.009375
7332.58,0.009314
7342.97,0.009317
7353.38,0.009311
7363.83,0.0093
7374.3,0.009339
7384.81,0.009366
7395.34,0.00937
7405.91,0.009427
7416.5,0.009451
7427.13,0.009351
7437.78,0.009279
7448.47,0.009302
7459.19,0.009337
7469.94,0.009302
7480.71,0.009293
7491.52,0.009229
7502.37,0.009132
7513.24,0.009096
7524.14,0.009073
7535.08,0.009013
7546.05,0.008971
7557.05,0.008918
7568.08,0.008805
7579.15,0.008687
7590.24,0.008633
7601.37,0.0086
7612.53,0.008507
7623.73,0.008352
7634.96,0.008206
7646.22,0.008135
7657.51,0.008122
7668.84,0.008062
7680.2,0.007983
7691.59,0.007914
7703.02,0.007797
7714.49,0.007693
7725.98,0.0076
7737.52,0.007543
7749.08,0.007537
7760.68,0.007471
7772.32,0.007414
7783.99,0.007457
7795.69,0.007436
7807.43,0.007384
7819.21,0.00743
7831.02,0.007464
7842.87,0.007558
7854.75,0.007656
7866.67,0.007739
7878.62,0.007869
7890.62,0.008013
7902.64,0.008204
7914.71,0.008491
7926.81,0.008829
7938.95,0.00915
7951.13,0.009417
7963.34,0.009739
7975.59,0.010054
7987.88,0.010393
8000.21,0.010766
8012.57,0.011154
8024.98,0.011563
8037.42,0.012037
8049.9,0.012459
8062.42,0.0129
8074.98,0.013442
8087.57,0.013953
8100.21,0.014387
8112.89,0.014888
8125.6,0.015307
8138.36,0.015701
8151.16,0.01622
8163.99,0.016754
8176.87,0.017189
8189.79,0.017611
8202.75,0.017967
8215.75,0.018396
8228.79,0.018802
8241.87,0.01918
8254.99,0.019596
8268.16,0.019915
8281.37,0.020327
8294.62,0.02079
8307.91,0.021082
8321.24,0.021387
8334.62,0.021753
8348.04,0.022111
8361.51,0.022473
8375.02,0.022806
8388.57,0.023184
8402.16,0.023669
8415.8,0.02417
8429.49,0.024586
8443.22,0.025039
8456.99,0.025547
8470.81,0.026062
8484.67,0.026624
8498.58,0.027162
8512.54,0.027659
8526.54,0.028146
8540.58,0.028563
8554.68,0.029004
8568.82,0.02935
8583.0,0.029691
8597.24,0.029999
8611.52,0.030239
8625.85,0.030369
8640.23,0.030523
8654.65,0.030725
8669.12,0.030809
8683.64,0.030812
8698.21,0.030803
8712.83,0.030769
8727.5,0.030608
8742.22,0.030389
8756.99,0.030261
8771.8,0.030119
8786.67,0.029978
8801.59,0.029846
8816.56,0.029699
8831.58,0.0296
8846.65,0.02956
8861.77,0.029511
8876.94,0.029372
8892.17,0.029161
8907.45,0.029125
8922.78,0.029125
8938.16,0.029113
8953.6,0.029113
8969.09,0.029108
8984.64,0.029
9000.23,0.028861
9015.89,0.028795
9031.59,0.028734
9047.36,0.028709
9063.17,0.028609
9079.05,0.028347
9094.97,0.028123
9110.96,0.027917
9127.0,0.027682
9143.1,0.027507
9159.25,0.02741
9175.46,0.027287
9191.73,0.027237
9208.06,0.027174
9224.44,0.027019
9240.88,0.026843
9257.38,0.026584
9273.94,0.026371
9290.56,0.026187
9307.24,0.025848
9323.98,0.025471
9340.78,0.025116
9357.64,0.024762
9374.57,0.024396
9391.55,0.024113
9408.59,0.023771
9425.7,0.023352
9442.87,0.023027
9460.1,0.022792
9477.4,0.022547
9494.75,0.022369
9512.17,0.022191
9529.66,0.021846
9547.21,0.021506
9564.83,0.021245
9582.5,0.02098
9600.25,0.020752
9618.06,0.0205
9635.94,0.020182
9653.88,0.01992
9671.89,0.019658
9689.97,0.019401
9708.12,0.01921
9726.33,0.019063
9744.62,0.018912
9762.97,0.018725
9781.39,0.018501
9799.88,0.018342
9818.44,0.018257
9837.07,0.018188
9855.77,0.018065
9874.54,0.017959
9893.39,0.017793
9912.3,0.017691
9931.29,0.017702
9950.36,0.01758
9969.49,0.017458
9988.7,0.017293
10007.98,0.017179
10027.34,0.0171
10046.77,0.016951
10066.28,0.016855
10085.87,0.016813
10105.53,0.01672
10125.26,0.016582
10145.08,0.016465
10164.97,0.016338
10184.94,0.01619
10204.99,0.016145
10225.12,0.016188
10245.33,0.016324
10265.61,0.016481
10285.98,0.016542
10306.43,0.016467
10326.96,0.016445
10347.57,0.016557
10368.27,0.016606
10389.05,0.016634
10409.91,0.016807
10430.86,0.016999
10451.88,0.017119
10473.0,0.017279
10494.2,0.017424
10515.49,0.017534
10536.86,0.017675
10558.32,0.017854
10579.87,0.017961
10601.5,0.018049
10623.23,0.018123
10645.04,0.018127
10666.94,0.01824
10688.94,0.018303
10711.02,0.018283
10733.2,0.018314
10755.47,0.018334
10777.83,0.018259
10800.28,0.018123
10822.83,0.018139
10845.47,0.018117
10868.21,0.018108
10891.04,0.018035
10913.97,0.01799
10936.99,0.017957
10960.12,0.017839
10983.34,0.017708
11006.66,0.017579
11030.07,0.017521
11053.59,0.017473
11077.21,0.01733
11100.93,0.017232
11124.75,0.01714
11148.68,0.017062
11172.71,0.016955
11196.84,0.01678
11221.07,0.01671
11245.41,0.016696
11269.86,0.016689
11294.41,0.016575
11319.07,0.016476
11343.84,0.016408
11368.72,0.016332
11393.7,0.016249
11418.8,0.016209
11444.01,0.016194
11469.33,0.016239
11494.76,0.016302
11520.3,0.016143
11545.96,0.015907
11571.73,0.015764
11597.62,0.015777
11623.62,0.015845
11649.74,0.015887
11675.98,0.015855
11702.34,0.015772
11728.81,0.015768
11755.41,0.015792
11782.13,0.015713
11808.96,0.015657
11835.92,0.015699
11863.01,0.015811
11890.22,0.015707
11917.55,0.015541
11945.01,0.015501
11972.6,0.015375
12000.31,0.015252
12028.16,0.015361
12056.13,0.015549
12084.23,0.015587
12112.46,0.015383
12140.83,0.015257
12169.33,0.015191
12197.96,0.01509
12226.73,0.015011
12255.64,0.015005
12284.68,0.015059
12313.86,0.015087
12343.18,0.014994
12372.64,0.01502
12402.24,0.01502
12431.98,0.014947
12461.86,0.014833
12491.89,0.014711
12522.07,0.014664
12552.38,0.014654
12582.85,0.014732
12613.47,0.01472
12644.23,0.014706
12675.15,0.014747
12706.21,0.014673
12737.43,0.014549
12768.81,0.014498
12800.33,0.014557
12832.02,0.014571
12863.86,0.014476
12895.86,0.014442
12928.02,0.014396
12960.34,0.014395
12992.82,0.014411
13025.46,0.01433
13058.27,0.014203
13091.25,0.014037
13124.39,0.013953
13157.7,0.014018
13191.18,0.013987
13224.83,0.013852
13258.66,0.013843
13292.65,0.013735
13326.83,0.013541
13361.17,0.013511
13395.7,0.013649
13430.4,0.013563
13465.29,0.013449
13500.35,0.013453
13535.6,0.013373
13571.03,0.01321
13606.65,0.013114
13642.46,0.01311
13678.46,0.013058
13714.64,0.012963
13751.02,0.012868
13787.59,0.012816
13824.36,0.012881
13861.32,0.01293
13898.49,0.012923
13935.85,0.012828
13973.41,0.012751
14011.17,0.012596
14049.15,0.012282
14087.32,0.012147
14125.71,0.012105
14164.3,0.011894
14203.11,0.011602
14242.13,0.01157
14281.36,0.011406
14320.81,0.011272
14360.49,0.011232
14400.38,0.011102
14440.49,0.011101
14480.82,0.011015
14521.39,0.010725
14562.18,0.010436
14603.2,0.010269
14644.45,0.010186
14685.93,0.010093
14727.66,0.010099
14769.62,0.01003
14811.81,0.009877
14854.25,0.00991
14896.94,0.009942
14939.87,0.009989
14983.05,0.010014
15026.48,0.010045
15070.16,0.010126
15114.1,0.010286
15158.29,0.010499
15202.74,0.010743
15247.46,0.010956
15292.43,0.01108
15337.68,0.0112
15383.19,0.01137
15428.97,0.011492
15475.03,0.011751
15521.36,0.012057
15567.97,0.012146
15614.87,0.012248
15662.04,0.012534
15709.5,0.012858
15757.25,0.013118
15805.29,0.013267
15853.62,0.01371
15902.26,0.014338
15951.19,0.014771
16000.42,0.015254
16049.95,0.015578
16099.8,0.015529
16149.95,0.015719
16200.42,0.016181
16251.21,0.016586
16302.31,0.017005
16353.74,0.017397
16405.49,0.017467
16457.57,0.017536
16509.98,0.017458
16562.73,0.017411
16615.82,0.017121
16669.24,0.016602
16723.02,0.016363
16777.14,0.016154
16831.61,0.015979
16886.43,0.015837
16941.62,0.015882
16997.16,0.015863
17053.08,0.016009
17109.36,0.015911
17166.01,0.015696
17223.04,0.015714
17280.45,0.0159
17338.24,0.015902
17396.43,0.015686
17455.0,0.015481
17513.97,0.01559
17573.34,0.015879
17633.11,0.0159
17693.29,0.015844
17753.89,0.015881
17814.9,0.015819
17876.33,0.015503
17938.18,0.015295
18000.47,0.015307
18063.19,0.01534
18126.35,0.015409
18189.95,0.01549
18254.0,0.01564
18318.5,0.015784
18383.46,0.015991
18448.88,0.015921
18514.77,0.015701
18581.13,0.015562
18647.97,0.015482
18715.29,0.01568
18783.1,0.015785
18851.4,0.015627
18920.2,0.01524
18989.51,0.015143
19059.32,0.01542
19129.65,0.015404
19200.5,0.014982
19271.88,0.014729
19343.79,0.015133
19416.24,0.015162
19489.23,0.014745
19562.77,0.014548
19636.88,0.0147
19711.54,0.014887
19786.78,0.014948
19862.59,0.014681
19938.98,0.014652
20015.96,0.015078
20093.55,0.015249
20171.73,0.014973
20250.53,0.015116
20329.94,0.015554
20409.98,0.01571
20490.65,0.015742
20571.96,0.01572
20653.92,0.01572
20736.54,0.015816
20819.82,0.015998
20903.77,0.016098
20988.4,0.015997
21073.72,0.016086
21159.73,0.016181
21246.46,0.016339
21333.89,0.015825
21422.04,0.015327
21510.93,0.015479
21600.56,0.015409
21690.94,0.015457
21782.08,0.01575
21873.99,0.015476
21966.67,0.015158
22060.15,0.014886
22154.42,0.014475
22249.51,0.01416
22345.41,0.01414
22442.14,0.014098
22539.72,0.014693
22638.14,0.01494
22737.43,0.014845
22837.6,0.014444
22938.65,0.014093
23040.6,0.013976
23143.46,0.014342
23247.24,0.013674
23351.96,0.013185
23457.63,0.013426
23564.25,0.013499
23671.85,0.013832
23780.44,0.013402
23890.02,0.013437
24000.63,0.014502
24112.26,0.014435
24224.93,0.013864
24338.66,0.013076
24453.47,0.014079
24569.36,0.014804
24686.36,0.014504
24804.47,0.013937
24923.73,0.014841
25044.13,0.01589
25165.71,0.016771
25288.46,0.016495
25412.43,0.017945
25537.61,0.018475
25664.04,0.018984
25791.72,0.01875
25920.68,0.018009
