Database of Origin,University of Winnipeg Spectrophotometer Facility
Sample Description,8. Sulfates: RELAB + Nicolet spectra / Spectra all made consistently merged: Jan. / 10 / 2005
Date Added,2016-07-15 22:05:55.638268

Data ID,RPN_SUL_53          
Sample ID,SPT139
Mineral Name,Rhomboclase
Grain Size,<45
Viewing Geometry,30 / 0 | 30
Resolution,5 / 1.3-129
Material Class,Sulfate

Wavelength
305.0,0.035495
310.0,0.032291
315.0,0.030142
320.0,0.028724
325.0,0.02748
330.0,0.026289
335.0,0.024916
340.0,0.023794
345.0,0.022984
350.0,0.023033
355.0,0.024391
360.0,0.028373
365.0,0.037556
370.0,0.055376
375.0,0.085284
380.0,0.128749
385.0,0.179647
390.0,0.239951
395.0,0.330023
400.0,0.430922
405.0,0.505904
410.0,0.543827
415.0,0.556975
420.0,0.54321
425.0,0.512685
430.0,0.492051
435.0,0.654076
440.0,0.742621
445.0,0.780003
450.0,0.799153
455.0,0.808718
460.0,0.815424
465.0,0.816846
470.0,0.817547
475.0,0.816781
480.0,0.815468
485.0,0.813743
490.0,0.814123
495.0,0.811202
500.0,0.811185
505.0,0.810393
510.0,0.810554
515.0,0.811058
520.0,0.811628
525.0,0.813273
530.0,0.814855
535.0,0.817372
540.0,0.819107
545.0,0.821824
550.0,0.824468
555.0,0.826223
560.0,0.82917
565.0,0.831883
570.0,0.834002
575.0,0.835661
580.0,0.836911
585.0,0.838943
590.0,0.841356
595.0,0.841763
600.0,0.844984
605.0,0.844574
610.0,0.848551
615.0,0.84948
620.0,0.853241
625.0,0.854296
630.0,0.857004
635.0,0.858537
640.0,0.860346
645.0,0.861399
650.0,0.862666
655.0,0.862444
660.0,0.862992
665.0,0.861939
670.0,0.861972
675.0,0.861011
680.0,0.859658
685.0,0.858296
690.0,0.856128
695.0,0.853062
700.0,0.850712
705.0,0.848148
710.0,0.84527
715.0,0.841922
720.0,0.837942
725.0,0.83503
730.0,0.831902
735.0,0.828907
740.0,0.824894
745.0,0.822365
750.0,0.819137
755.0,0.818964
760.0,0.815796
765.0,0.813855
770.0,0.812003
775.0,0.810553
780.0,0.80921
785.0,0.80932
790.0,0.810464
795.0,0.811328
800.0,0.81056
805.0,0.812231
810.0,0.812625
815.0,0.814822
820.0,0.816258
825.0,0.818637
830.0,0.819816
835.0,0.822516
840.0,0.826423
845.0,0.827567
850.0,0.830371
855.0,0.834381
860.0,0.836792
865.0,0.839927
870.0,0.844351
875.0,0.846053
880.0,0.849011
885.0,0.851571
890.0,0.855299
895.0,0.858152
900.0,0.860164
905.0,0.861082
910.0,0.865577
915.0,0.867033
920.0,0.869201
925.0,0.872464
930.0,0.87379
935.0,0.875322
940.0,0.876246
945.0,0.877341
950.0,0.880611
955.0,0.881457
960.0,0.883248
965.0,0.882817
970.0,0.884403
975.0,0.886364
980.0,0.885879
985.0,0.885897
990.0,0.887091
995.0,0.885338
1000.0,0.88661
1005.0,0.884577
1010.0,0.886056
1015.0,0.887104
1020.0,0.886778
1025.0,0.885284
1030.0,0.887211
1035.0,0.887366
1040.0,0.887648
1045.0,0.888262
1050.0,0.888709
1055.0,0.890301
1060.0,0.891008
1065.0,0.891501
1070.0,0.891832
1075.0,0.892796
1080.0,0.893619
1085.0,0.895362
1090.0,0.895947
1095.0,0.896077
1100.0,0.895645
1105.0,0.896694
1110.0,0.895653
1115.0,0.895597
1120.0,0.897543
1125.0,0.895328
1130.0,0.896313
1135.0,0.897614
1140.0,0.897259
1145.0,0.896109
1150.0,0.893804
1155.0,0.893519
1160.0,0.892851
1165.0,0.892014
1170.0,0.890849
1175.0,0.88913
1180.0,0.888011
1185.0,0.8852
1190.0,0.883202
1195.0,0.882074
1200.0,0.879128
1205.0,0.876451
1210.0,0.874858
1215.0,0.872208
1220.0,0.869637
1225.0,0.86915
1230.0,0.867338
1235.0,0.867182
1240.0,0.866469
1245.0,0.866384
1250.0,0.866237
1255.0,0.864986
1260.0,0.863612
1265.0,0.864577
1270.0,0.862883
1275.0,0.862405
1280.0,0.860757
1285.0,0.860615
1290.0,0.859583
1295.0,0.859484
1300.0,0.859156
1305.0,0.859219
1310.0,0.860404
1315.0,0.859707
1320.0,0.857579
1325.0,0.85736
1330.0,0.855857
1335.0,0.855559
1340.0,0.853626
1345.0,0.852139
1350.0,0.849903
1355.0,0.845987
1360.0,0.84292
1365.0,0.839339
1370.0,0.836768
1375.0,0.832402
1380.0,0.829928
1385.0,0.827965
1390.0,0.826458
1395.0,0.824926
1400.0,0.821789
1405.0,0.818252
1410.0,0.81281
1415.0,0.811031
1420.0,0.805555
1425.0,0.799526
1430.0,0.793092
1435.0,0.785452
1440.0,0.778251
1445.0,0.771481
1450.0,0.762879
1455.0,0.75236
1460.0,0.743587
1465.0,0.732425
1470.0,0.722717
1475.0,0.710935
1480.0,0.70024
1485.0,0.69033
1490.0,0.681305
1495.0,0.673235
1500.0,0.664684
1505.0,0.6588
1510.0,0.653375
1515.0,0.648653
1520.0,0.644482
1525.0,0.639535
1530.0,0.637002
1535.0,0.632717
1540.0,0.629452
1545.0,0.62793
1550.0,0.62468
1555.0,0.621044
1560.0,0.619279
1565.0,0.616486
1570.0,0.614348
1575.0,0.612296
1580.0,0.609924
1585.0,0.607495
1590.0,0.605776
1595.0,0.603254
1600.0,0.600832
1605.0,0.59879
1610.0,0.597009
1615.0,0.595264
1620.0,0.592989
1625.0,0.590685
1630.0,0.589675
1635.0,0.586914
1640.0,0.584717
1645.0,0.582563
1650.0,0.581574
1655.0,0.579725
1660.0,0.578114
1665.0,0.57667
1670.0,0.574757
1675.0,0.57349
1680.0,0.571422
1685.0,0.569502
1690.0,0.566387
1695.0,0.565511
1700.0,0.563145
1705.0,0.561966
1710.0,0.559821
1715.0,0.555562
1720.0,0.554208
1725.0,0.552624
1730.0,0.549928
1735.0,0.54836
1740.0,0.545846
1745.0,0.544138
1750.0,0.541962
1755.0,0.540286
1760.0,0.539029
1765.0,0.536949
1770.0,0.536154
1775.0,0.533392
1780.0,0.531806
1785.0,0.530029
1790.0,0.527834
1795.0,0.526425
1800.0,0.524804
1805.0,0.522994
1810.0,0.521703
1815.0,0.52066
1820.0,0.520012
1825.0,0.515513
1830.0,0.515855
1835.0,0.5157
1840.0,0.511244
1845.0,0.509364
1850.0,0.508049
1855.0,0.507066
1860.0,0.507251
1865.0,0.504883
1870.0,0.502022
1875.0,0.500112
1880.0,0.497402
1885.0,0.492304
1890.0,0.49042
1895.0,0.487228
1900.0,0.486095
1905.0,0.476291
1910.0,0.467929
1915.0,0.463094
1920.0,0.456516
1925.0,0.444133
1930.0,0.438696
1935.0,0.430145
1940.0,0.422217
1945.0,0.412212
1950.0,0.403729
1955.0,0.395136
1960.0,0.386317
1965.0,0.377909
1970.0,0.370391
1975.0,0.361749
1980.0,0.354966
1985.0,0.350543
1990.0,0.344887
1995.0,0.34076
2000.0,0.337736
2005.0,0.336729
2010.0,0.335416
2015.0,0.336879
2020.0,0.338138
2025.0,0.34171
2030.0,0.34531
2035.0,0.348019
2040.0,0.353408
2045.0,0.35603
2050.0,0.358124
2055.0,0.360128
2060.0,0.361431
2065.0,0.364422
2070.0,0.363881
2075.0,0.366526
2080.0,0.368475
2085.0,0.371597
2090.0,0.373688
2095.0,0.375928
2100.0,0.378103
2105.0,0.379971
2110.0,0.381325
2115.0,0.383092
2120.0,0.383974
2125.0,0.386256
2130.0,0.387542
2135.0,0.387674
2140.0,0.388453
2145.0,0.387973
2150.0,0.389243
2155.0,0.389747
2160.0,0.389167
2165.0,0.389659
2170.0,0.389628
2175.0,0.389557
2180.0,0.389246
2185.0,0.389133
2190.0,0.389514
2195.0,0.388604
2200.0,0.388609
2205.0,0.387298
2210.0,0.387271
2215.0,0.387415
2220.0,0.385991
2225.0,0.385388
2230.0,0.384813
2235.0,0.384444
2240.0,0.382924
2245.0,0.382625
2250.0,0.382403
2255.0,0.38061
2260.0,0.379996
2265.0,0.379208
2270.0,0.377926
2275.0,0.37603
2280.0,0.375212
2285.0,0.373705
2290.0,0.373283
2295.0,0.371632
2300.0,0.370099
2305.0,0.368159
2310.0,0.365552
2315.0,0.363642
2320.0,0.361029
2325.0,0.357127
2330.0,0.355875
2335.0,0.352001
2340.0,0.348299
2345.0,0.34432
2350.0,0.340502
2355.0,0.33759
2360.0,0.332162
2365.0,0.328629
2370.0,0.323483
2375.0,0.318871
2380.0,0.313805
2385.0,0.308596
2390.0,0.304133
2395.0,0.298821
2400.0,0.294346
2405.0,0.290034
2410.0,0.284635
2415.0,0.281342
2420.0,0.276356
2425.0,0.271753
2430.0,0.267072
2435.0,0.264704
2440.0,0.259688
2445.0,0.256659
2450.0,0.254308
2455.0,0.25215
2460.0,0.250003
2465.0,0.248685
2470.0,0.248892
2475.0,0.246533
2480.0,0.245361
2485.0,0.242971
2490.0,0.239749
2495.0,0.237482
2500.0,0.233744
2505.0,0.230476
2510.0,0.226195
2515.0,0.222932
2520.0,0.219124
2525.0,0.216432
2530.0,0.213119
2535.0,0.209658
2540.0,0.206242
2545.0,0.202134
2550.0,0.199952
2555.0,0.199139
2560.0,0.195493
2565.13,0.19328
2570.22,0.191664
2575.33,0.188893
2580.46,0.187524
2581.74,0.186794
2583.03,0.185821
2584.31,0.185121
2585.6,0.18527
2586.89,0.184282
2588.19,0.183493
2589.48,0.183361
2590.77,0.1834
2592.07,0.182938
2593.36,0.181853
2594.66,0.181033
2595.96,0.180843
2597.26,0.180439
2598.56,0.179899
2599.87,0.179566
2601.17,0.179632
2602.48,0.17985
2603.78,0.178887
2605.09,0.177975
2606.4,0.178089
2607.71,0.178431
2609.03,0.17767
2610.34,0.176423
2611.66,0.1757
2612.97,0.17555
2614.29,0.175395
2615.61,0.175448
2616.93,0.175055
2618.25,0.175137
2619.57,0.174902
2620.9,0.17393
2622.22,0.173387
2623.55,0.172866
2624.88,0.172785
2626.21,0.172816
2627.54,0.172646
2628.87,0.172483
2630.21,0.171795
2631.54,0.171606
2632.88,0.171654
2634.21,0.17176
2635.55,0.17157
2636.89,0.170758
2638.24,0.170157
2639.58,0.170058
2640.92,0.169838
2642.27,0.170015
2643.62,0.169667
2644.97,0.168904
2646.32,0.169102
2647.67,0.168915
2649.02,0.168299
2650.38,0.167927
2651.73,0.168056
2653.09,0.168187
2654.45,0.168314
2655.81,0.167723
2657.17,0.167317
2658.53,0.167543
2659.89,0.167026
2661.26,0.166513
2662.63,0.166437
2664.0,0.165864
2665.36,0.16524
2666.74,0.165477
2668.11,0.165853
2669.48,0.165097
2670.86,0.163817
2672.23,0.163751
2673.61,0.163918
2674.99,0.163611
2676.37,0.162789
2677.76,0.162311
2679.14,0.161923
2680.52,0.162213
2681.91,0.161949
2683.3,0.160877
2684.69,0.160661
2686.08,0.160312
2687.47,0.159668
2688.87,0.15952
2690.26,0.158912
2691.66,0.15817
2693.06,0.157535
2694.46,0.156846
2695.86,0.156734
2697.26,0.156126
2698.66,0.154849
2700.07,0.153871
2701.48,0.15334
2702.89,0.152817
2704.3,0.151977
2705.71,0.151109
2707.12,0.150198
2708.53,0.149333
2709.95,0.14874
2711.37,0.147778
2712.79,0.14695
2714.21,0.14577
2715.63,0.144794
2717.05,0.144102
2718.48,0.143332
2719.9,0.14188
2721.33,0.140411
2722.76,0.139561
2724.19,0.138393
2725.62,0.137376
2727.06,0.136619
2728.49,0.13528
2729.93,0.133824
2731.37,0.13246
2732.81,0.130932
2734.25,0.129236
2735.69,0.127647
2737.14,0.126393
2738.58,0.124993
2740.03,0.123199
2741.48,0.121443
2742.93,0.120436
2744.38,0.119387
2745.83,0.11758
2747.29,0.115823
2748.75,0.114155
2750.2,0.112095
2751.66,0.110354
2753.13,0.109214
2754.59,0.107284
2756.05,0.105313
2757.52,0.103432
2758.99,0.101707
2760.46,0.100022
2761.93,0.098156
2763.4,0.096062
2764.87,0.094374
2766.35,0.093058
2767.82,0.091354
2769.3,0.089199
2770.78,0.087402
2772.26,0.085735
2773.75,0.084107
2775.23,0.082273
2776.72,0.080213
2778.21,0.07852
2779.7,0.077284
2781.19,0.075705
2782.68,0.073432
2784.18,0.071812
2785.67,0.070362
2787.17,0.069013
2788.67,0.067833
2790.17,0.0664
2791.67,0.065024
2793.18,0.063326
2794.68,0.061363
2796.19,0.059636
2797.7,0.05835
2799.21,0.057279
2800.72,0.055707
2802.24,0.054026
2803.75,0.052658
2805.27,0.051181
2806.79,0.049712
2808.31,0.048456
2809.83,0.047352
2811.35,0.04611
2812.88,0.044879
2814.41,0.044393
2815.93,0.043507
2817.46,0.04138
2819.0,0.03939
2820.53,0.038658
2822.07,0.038325
2823.6,0.037613
2825.14,0.036693
2826.68,0.03573
2828.22,0.03481
2829.77,0.033901
2831.31,0.033324
2832.86,0.032407
2834.41,0.031275
2835.96,0.030568
2837.51,0.030053
2839.07,0.029432
2840.62,0.028825
2842.18,0.028681
2843.74,0.028205
2845.3,0.027106
2846.86,0.026795
2848.43,0.026787
2849.99,0.026727
2851.56,0.026452
2853.13,0.025938
2854.7,0.025305
2856.27,0.024756
2857.85,0.02453
2859.42,0.024436
2861.0,0.024016
2862.58,0.023582
2864.16,0.023084
2865.75,0.022878
2867.33,0.022541
2868.92,0.022338
2870.51,0.022148
2872.1,0.021766
2873.69,0.020998
2875.28,0.020998
2876.88,0.021343
2878.48,0.021096
2880.07,0.020829
2881.68,0.020547
2883.28,0.020614
2884.88,0.020711
2886.49,0.020598
2888.1,0.020275
2889.71,0.019933
2891.32,0.019611
2892.93,0.019562
2894.55,0.019814
2896.16,0.019452
2897.78,0.018878
2899.4,0.018792
2901.03,0.018636
2902.65,0.019019
2904.28,0.019209
2905.91,0.019113
2907.54,0.019275
2909.17,0.019491
2910.8,0.019272
2912.44,0.018809
2914.07,0.018314
2915.71,0.018331
2917.35,0.018448
2918.99,0.018529
2920.64,0.018315
2922.29,0.018108
2923.93,0.018075
2925.58,0.017986
2927.24,0.018013
2928.89,0.018099
2930.55,0.018241
2932.2,0.018228
2933.86,0.01783
2935.52,0.017674
2937.19,0.018098
2938.85,0.018154
2940.52,0.018356
2942.19,0.018052
2943.86,0.017653
2945.53,0.017784
2947.21,0.018066
2948.88,0.01818
2950.56,0.018476
2952.24,0.018397
2953.92,0.017999
2955.61,0.017647
2957.29,0.017721
2958.98,0.017848
2960.67,0.017988
2962.36,0.018094
2964.06,0.017656
2965.75,0.017714
2967.45,0.018197
2969.15,0.018218
2970.85,0.018147
2972.55,0.018049
2974.26,0.018275
2975.97,0.018121
2977.68,0.017679
2979.39,0.017445
2981.1,0.017518
2982.82,0.017924
2984.53,0.017779
2986.25,0.017488
2987.97,0.017623
2989.7,0.017799
2991.42,0.017742
2993.15,0.017656
2994.88,0.017365
2996.61,0.017489
2998.34,0.017892
3000.08,0.017852
3001.82,0.017321
3003.55,0.017151
3005.3,0.017517
3007.04,0.017869
3008.78,0.017889
3010.53,0.017836
3012.28,0.017603
3014.03,0.01747
3015.79,0.017466
3017.54,0.017464
3019.3,0.017447
3021.06,0.017391
3022.82,0.017362
3024.58,0.017468
3026.35,0.017437
3028.12,0.017352
3029.89,0.017305
3031.66,0.017542
3033.43,0.018062
3035.21,0.018328
3036.99,0.018226
3038.77,0.017952
3040.55,0.018006
3042.33,0.018104
3044.12,0.01817
3045.91,0.018091
3047.7,0.0182
3049.49,0.018473
3051.29,0.018439
3053.08,0.018485
3054.88,0.018556
3056.68,0.018225
3058.49,0.018129
3060.29,0.018106
3062.1,0.018308
3063.91,0.018415
3065.72,0.018255
3067.54,0.018333
3069.35,0.018372
3071.17,0.018327
3072.99,0.018328
3074.81,0.018142
3076.64,0.018247
3078.47,0.018462
3080.29,0.018409
3082.13,0.018141
3083.96,0.018335
3085.79,0.018516
3087.63,0.018359
3089.47,0.018422
3091.31,0.018571
3093.16,0.018741
3095.01,0.01881
3096.85,0.018664
3098.71,0.018577
3100.56,0.018855
3102.41,0.01911
3104.27,0.019027
3106.13,0.018891
3107.99,0.019045
3109.86,0.019056
3111.73,0.018673
3113.59,0.018678
3115.47,0.018845
3117.34,0.018693
3119.21,0.018728
3121.09,0.01886
3122.97,0.018717
3124.86,0.018717
3126.74,0.018814
3128.63,0.018955
3130.52,0.019102
3132.41,0.019265
3134.3,0.019612
3136.2,0.019625
3138.1,0.019452
3140.0,0.019387
3141.9,0.019638
3143.81,0.019674
3145.71,0.019429
3147.62,0.019376
3149.54,0.019346
3151.45,0.019375
3153.37,0.019659
3155.29,0.019837
3157.21,0.019932
3159.13,0.020018
3161.06,0.020002
3162.99,0.019951
3164.92,0.019794
3166.85,0.019684
3168.79,0.019799
3170.72,0.020015
3172.67,0.020218
3174.61,0.020307
3176.55,0.020403
3178.5,0.020479
3180.45,0.020326
3182.4,0.020198
3184.36,0.020159
3186.32,0.020123
3188.27,0.020245
3190.24,0.020825
3192.2,0.020968
3194.17,0.020716
3196.14,0.020814
3198.11,0.02098
3200.08,0.020773
3202.06,0.020531
3204.04,0.020743
3206.02,0.021244
3208.0,0.021568
3209.99,0.021465
3211.98,0.021323
3213.97,0.021445
3215.96,0.021299
3217.96,0.021173
3219.96,0.021454
3221.96,0.021522
3223.96,0.021716
3225.97,0.021706
3227.98,0.021504
3229.99,0.021737
3232.0,0.022048
3234.02,0.022208
3236.04,0.022258
3238.06,0.022306
3240.08,0.022314
3242.11,0.022466
3244.14,0.022649
3246.17,0.022786
3248.2,0.02273
3250.24,0.022859
3252.28,0.022896
3254.32,0.022958
3256.37,0.023197
3258.41,0.023122
3260.46,0.023001
3262.51,0.023194
3264.57,0.023399
3266.63,0.023349
3268.69,0.023589
3270.75,0.023754
3272.81,0.023595
3274.88,0.023836
3276.95,0.024113
3279.02,0.024122
3281.1,0.024172
3283.18,0.024011
3285.26,0.024097
3287.34,0.02439
3289.43,0.024725
3291.51,0.024776
3293.61,0.024719
3295.7,0.024898
3297.8,0.025078
3299.9,0.025168
3302.0,0.02523
3304.1,0.02533
3306.21,0.025533
3308.32,0.025976
3310.43,0.025926
3312.55,0.025603
3314.66,0.025744
3316.79,0.025936
3318.91,0.02589
3321.03,0.026102
3323.16,0.026199
3325.29,0.026137
3327.43,0.026225
3329.57,0.026555
3331.71,0.026632
3333.85,0.026399
3335.99,0.026768
3338.14,0.027138
3340.29,0.027101
3342.45,0.026942
3344.6,0.027115
3346.76,0.027389
3348.92,0.027574
3351.09,0.027792
3353.26,0.028094
3355.43,0.028263
3357.6,0.028263
3359.78,0.028236
3361.96,0.028359
3364.14,0.028545
3366.32,0.028578
3368.51,0.028494
3370.7,0.028667
3372.89,0.029048
3375.09,0.029269
3377.29,0.02933
3379.49,0.029576
3381.69,0.029707
3383.9,0.029552
3386.11,0.029797
3388.32,0.029978
3390.54,0.029832
3392.76,0.029828
3394.98,0.030176
3397.21,0.030429
3399.43,0.030436
3401.66,0.030606
3403.9,0.030807
3406.13,0.031069
3408.37,0.031205
3410.61,0.03136
3412.86,0.03133
3415.11,0.03136
3417.36,0.031665
3419.61,0.031717
3421.87,0.031883
3424.13,0.032265
3426.39,0.032068
3428.66,0.032159
3430.93,0.032438
3433.2,0.032387
3435.48,0.032495
3437.76,0.032582
3440.04,0.032739
3442.32,0.033027
3444.61,0.033176
3446.9,0.033198
3449.19,0.033346
3451.49,0.033438
3453.79,0.033614
3456.09,0.033806
3458.4,0.033969
3460.7,0.033991
3463.02,0.034066
3465.33,0.034066
3467.65,0.034155
3469.97,0.034205
3472.29,0.034375
3474.62,0.034796
3476.95,0.035147
3479.29,0.035179
3481.62,0.03508
3483.96,0.035256
3486.3,0.035414
3488.65,0.035541
3491.0,0.035704
3493.35,0.035902
3495.71,0.035903
3498.07,0.036155
3500.43,0.036309
3502.79,0.036308
3505.16,0.036453
3507.53,0.036621
3509.91,0.036679
3512.29,0.03691
3514.67,0.037114
3517.05,0.036969
3519.44,0.036915
3521.83,0.037048
3524.23,0.037092
3526.62,0.037212
3529.02,0.037684
3531.43,0.037931
3533.83,0.037979
3536.24,0.038026
3538.66,0.038136
3541.08,0.038376
3543.5,0.038617
3545.92,0.038749
3548.35,0.038676
3550.78,0.038764
3553.21,0.039051
3555.65,0.039213
3558.09,0.039416
3560.53,0.039428
3562.98,0.039431
3565.43,0.03957
3567.88,0.039574
3570.34,0.039772
3572.8,0.039868
3575.27,0.039881
3577.73,0.040044
3580.2,0.04028
3582.68,0.040324
3585.16,0.040471
3587.64,0.040543
3590.12,0.04059
3592.61,0.040872
3595.1,0.041053
3597.6,0.041213
3600.09,0.041446
3602.6,0.04154
3605.1,0.041621
3607.61,0.041901
3610.12,0.042005
3612.64,0.041879
3615.16,0.041998
3617.68,0.042424
3620.21,0.042623
3622.74,0.042663
3625.27,0.042831
3627.81,0.042863
3630.35,0.042902
3632.89,0.043187
3635.44,0.043449
3637.99,0.043438
3640.54,0.043469
3643.1,0.04368
3645.66,0.043996
3648.23,0.044155
3650.8,0.044175
3653.37,0.044194
3655.95,0.043812
3658.53,0.044137
3661.11,0.044769
3663.7,0.045022
3666.29,0.045029
3668.89,0.045033
3671.48,0.045229
3674.09,0.045452
3676.69,0.04545
3679.3,0.045412
3681.91,0.045528
3684.53,0.045767
3687.15,0.046013
3689.78,0.046228
3692.4,0.046149
3695.04,0.046306
3697.67,0.046712
3700.31,0.046808
3702.95,0.046914
3705.6,0.047116
3708.25,0.047107
3710.91,0.047198
3713.56,0.047432
3716.23,0.047692
3718.89,0.047733
3721.56,0.047735
3724.23,0.047872
3726.91,0.048032
3729.59,0.048345
3732.28,0.04835
3734.97,0.048399
3737.66,0.048607
3740.36,0.048758
3743.06,0.048717
3745.76,0.048639
3748.47,0.048756
3751.18,0.049112
3753.9,0.049201
3756.62,0.049408
3759.34,0.049625
3762.07,0.049511
3764.8,0.049501
3767.54,0.049805
3770.28,0.050217
3773.02,0.050159
3775.77,0.050031
3778.52,0.050225
3781.28,0.050415
3784.04,0.050369
3786.8,0.05048
3789.57,0.050683
3792.34,0.050768
3795.12,0.050965
3797.9,0.051124
3800.69,0.051215
3803.47,0.051317
3806.27,0.051328
3809.06,0.051621
3811.86,0.051719
3814.67,0.051538
3817.48,0.051569
3820.29,0.051805
3823.11,0.051991
3825.93,0.051829
3828.76,0.051821
3831.59,0.051947
3834.42,0.052079
3837.26,0.052296
3840.1,0.052377
3842.95,0.052443
3845.8,0.05254
3848.65,0.0526
3851.51,0.052722
3854.38,0.052904
3857.24,0.052935
3860.12,0.052859
3862.99,0.052921
3865.87,0.053161
3868.76,0.053211
3871.65,0.053216
3874.54,0.053286
3877.44,0.053233
3880.34,0.053035
3883.25,0.053245
3886.16,0.053612
3889.07,0.053599
3891.99,0.05344
3894.92,0.053385
3897.85,0.053556
3900.78,0.053804
3903.72,0.053852
3906.66,0.053785
3909.6,0.053877
3912.55,0.053792
3915.51,0.053698
3918.47,0.053903
3921.43,0.054034
3924.4,0.053916
3927.38,0.053933
3930.35,0.054036
3933.33,0.054044
3936.32,0.054134
3939.31,0.05409
3942.31,0.053935
3945.31,0.053905
3948.31,0.054101
3951.32,0.054228
3954.34,0.054239
3957.35,0.054311
3960.38,0.054224
3963.41,0.054218
3966.44,0.054469
3969.48,0.054374
3972.52,0.054389
3975.56,0.054461
3978.61,0.054522
3981.67,0.054384
3984.73,0.054307
3987.8,0.054432
3990.87,0.05432
3993.94,0.054222
3997.02,0.054471
4000.1,0.054634
4003.19,0.054801
4006.29,0.054725
4009.39,0.054561
4012.49,0.054572
4015.6,0.054665
4018.71,0.054728
4021.83,0.054601
4024.95,0.054699
4028.08,0.054814
4031.21,0.054642
4034.35,0.054662
4037.49,0.054636
4040.64,0.054486
4043.79,0.054551
4046.94,0.05448
4050.11,0.054508
4053.27,0.054735
4056.44,0.054825
4059.62,0.054745
4062.8,0.054615
4065.99,0.054455
4069.18,0.054476
4072.38,0.054543
4075.58,0.05449
4078.78,0.05434
4082.0,0.054162
4085.21,0.053982
4088.43,0.053912
4091.66,0.053996
4094.89,0.054109
4098.13,0.05402
4101.37,0.054048
4104.62,0.054035
4107.87,0.053783
4111.13,0.053621
4114.39,0.053827
4117.66,0.053821
4120.93,0.053424
4124.21,0.05344
4127.5,0.05355
4130.79,0.053429
4134.08,0.053271
4137.38,0.053232
4140.68,0.053298
4143.99,0.053268
4147.31,0.053207
4150.63,0.053293
4153.95,0.053351
4157.29,0.053387
4160.62,0.053449
4163.96,0.053445
4167.31,0.053293
4170.66,0.053334
4174.02,0.053365
4177.39,0.053303
4180.75,0.053374
4184.13,0.053509
4187.51,0.053418
4190.89,0.053243
4194.28,0.053258
4197.68,0.053281
4201.08,0.053286
4204.49,0.053466
4207.9,0.053741
4211.32,0.053783
4214.74,0.05383
4218.17,0.053803
4221.61,0.053757
4225.05,0.053881
4228.5,0.053749
4231.95,0.053714
4235.4,0.053932
4238.87,0.054048
4242.34,0.054112
4245.81,0.054108
4249.29,0.053944
4252.78,0.054016
4256.27,0.054117
4259.77,0.054021
4263.27,0.053973
4266.78,0.054235
4270.29,0.054395
4273.81,0.054277
4277.34,0.054292
4280.87,0.054376
4284.41,0.0545
4287.95,0.054527
4291.5,0.054487
4295.06,0.054378
4298.62,0.05436
4302.19,0.054313
4305.76,0.054387
4309.34,0.054388
4312.92,0.054494
4316.52,0.054712
4320.11,0.054798
4323.72,0.05489
4327.32,0.054889
4330.94,0.054806
4334.56,0.054677
4338.19,0.054835
4341.82,0.054961
4345.46,0.054937
4349.11,0.054903
4352.76,0.054841
4356.42,0.054812
4360.08,0.054773
4363.75,0.054832
4367.43,0.055112
4371.11,0.055118
4374.8,0.054914
4378.49,0.054899
4382.19,0.055001
4385.9,0.055034
4389.61,0.055063
4393.33,0.055087
4397.06,0.055022
4400.79,0.05487
4404.53,0.054862
4408.28,0.05488
4412.03,0.054871
4415.79,0.054899
4419.55,0.054894
4423.32,0.054938
4427.1,0.054923
4430.88,0.054812
4434.68,0.05483
4438.47,0.055002
4442.28,0.055001
4446.08,0.054956
4449.9,0.054901
4453.72,0.054798
4457.55,0.054765
4461.39,0.054768
4465.23,0.054827
4469.08,0.05491
4472.94,0.054915
4476.8,0.054801
4480.67,0.054835
4484.55,0.054862
4488.43,0.054885
4492.32,0.054874
4496.21,0.054812
4500.12,0.054821
4504.03,0.054772
4507.94,0.054705
4511.87,0.05482
4515.8,0.054707
4519.73,0.054571
4523.68,0.054624
4527.63,0.054743
4531.59,0.054726
4535.55,0.054575
4539.52,0.054403
4543.5,0.05444
4547.49,0.054608
4551.48,0.054623
4555.48,0.054498
4559.49,0.054584
4563.5,0.054535
4567.52,0.054456
4571.55,0.054442
4575.58,0.054503
4579.63,0.054439
4583.67,0.054395
4587.73,0.054618
4591.79,0.05468
4595.86,0.054501
4599.94,0.054488
4604.03,0.054733
4608.12,0.054616
4612.22,0.054457
4616.33,0.054676
4620.44,0.054764
4624.56,0.054817
4628.69,0.054836
4632.83,0.054949
4636.97,0.055066
4641.12,0.055015
4645.28,0.055098
4649.45,0.055251
4653.62,0.055342
4657.8,0.055293
4661.99,0.05526
4666.19,0.05545
4670.39,0.055444
4674.6,0.055443
4678.82,0.055617
4683.05,0.055599
4687.28,0.055702
4691.52,0.055918
4695.77,0.055931
4700.03,0.055906
4704.3,0.056008
4708.57,0.056034
4712.85,0.05595
4717.14,0.056027
4721.43,0.056121
4725.74,0.056147
4730.05,0.056176
4734.37,0.056203
4738.7,0.056104
4743.03,0.056099
4747.38,0.056275
4751.73,0.056402
4756.09,0.056307
4760.45,0.056289
4764.83,0.056272
4769.21,0.056404
4773.6,0.056547
4778.0,0.056567
4782.41,0.056582
4786.83,0.056744
4791.25,0.056925
4795.68,0.056901
4800.13,0.056904
4804.57,0.056959
4809.03,0.057145
4813.5,0.057158
4817.97,0.057262
4822.45,0.057398
4826.94,0.057397
4831.44,0.057431
4835.95,0.057648
4840.46,0.057747
4844.99,0.057754
4849.52,0.057722
4854.06,0.057812
4858.61,0.057799
4863.17,0.057802
4867.73,0.057772
4872.31,0.057857
4876.89,0.057989
4881.48,0.057903
4886.08,0.057855
4890.69,0.057929
4895.31,0.057844
4899.94,0.057763
4904.57,0.057841
4909.22,0.057957
4913.87,0.058087
4918.53,0.058247
4923.21,0.058369
4927.88,0.05852
4932.57,0.058726
4937.27,0.058686
4941.98,0.058731
4946.69,0.058996
4951.42,0.059382
4956.15,0.059521
4960.9,0.059721
4965.65,0.059927
4970.41,0.060006
4975.18,0.060056
4979.96,0.060087
4984.75,0.060339
4989.54,0.060565
4994.35,0.060602
4999.17,0.060704
5003.99,0.060677
5008.83,0.060666
5013.67,0.060841
5018.52,0.061003
5023.39,0.061129
5028.26,0.061215
5033.14,0.061192
5038.03,0.061209
5042.93,0.061277
5047.84,0.061264
5052.76,0.061255
5057.69,0.061259
5062.63,0.06119
5067.58,0.061209
5072.54,0.061279
5077.51,0.061319
5082.49,0.061353
5087.47,0.061415
5092.47,0.061395
5097.48,0.061399
5102.5,0.061434
5107.52,0.061426
5112.56,0.061389
5117.61,0.061376
5122.66,0.061335
5127.73,0.06124
5132.81,0.061073
5137.89,0.061029
5142.99,0.061055
5148.1,0.061114
5153.22,0.061164
5158.34,0.061042
5163.48,0.06079
5168.63,0.060519
5173.79,0.060499
5178.96,0.060587
5184.13,0.060393
5189.32,0.060277
5194.52,0.060368
5199.73,0.060333
5204.96,0.060185
5210.19,0.060115
5215.43,0.059987
5220.68,0.059864
5225.94,0.059691
5231.22,0.059571
5236.5,0.059461
5241.79,0.059268
5247.1,0.059155
5252.42,0.059162
5257.74,0.058959
5263.08,0.058819
5268.43,0.05865
5273.79,0.058483
5279.16,0.05837
5284.54,0.058243
5289.93,0.058018
5295.34,0.05786
5300.75,0.0577
5306.18,0.057558
5311.61,0.057504
5317.06,0.057342
5322.52,0.057149
5327.99,0.056951
5333.47,0.056689
5338.96,0.056477
5344.47,0.056337
5349.98,0.056221
5355.51,0.056011
5361.05,0.055632
5366.6,0.055357
5372.16,0.055287
5377.73,0.055219
5383.32,0.05488
5388.91,0.054622
5394.52,0.054519
5400.14,0.054324
5405.77,0.054177
5411.41,0.053985
5417.07,0.053736
5422.74,0.053511
5428.41,0.053416
5434.1,0.053276
5439.81,0.052977
5445.52,0.052559
5451.25,0.052206
5456.98,0.052023
5462.73,0.051967
5468.5,0.051794
5474.27,0.05143
5480.06,0.051168
5485.86,0.051066
5491.67,0.050783
5497.49,0.050477
5503.33,0.050131
5509.18,0.049863
5515.04,0.049676
5520.91,0.049417
5526.8,0.049163
5532.69,0.048913
5538.61,0.048646
5544.53,0.048359
5550.47,0.048136
5556.41,0.047925
5562.38,0.04773
5568.35,0.047527
5574.34,0.047288
5580.34,0.046961
5586.35,0.046712
5592.38,0.046427
5598.42,0.046053
5604.47,0.045847
5610.54,0.045528
5616.61,0.045231
5622.71,0.045031
5628.81,0.044703
5634.93,0.044511
5641.06,0.044319
5647.21,0.044087
5653.36,0.043876
5659.54,0.04359
5665.72,0.043314
5671.92,0.043018
5678.13,0.042808
5684.36,0.04257
5690.6,0.042326
5696.85,0.041937
5703.12,0.041619
5709.4,0.04163
5715.69,0.041397
5722.0,0.041057
5728.33,0.040871
5734.66,0.040737
5741.01,0.040463
5747.38,0.040266
5753.76,0.040007
5760.15,0.039748
5766.56,0.039622
5772.98,0.03941
5779.41,0.039139
5785.86,0.039069
5792.33,0.038746
5798.81,0.038392
5805.3,0.038097
5811.81,0.037827
5818.33,0.037707
5824.87,0.037518
5831.42,0.037263
5837.99,0.03718
5844.57,0.0371
5851.17,0.036765
5857.78,0.036403
5864.41,0.036157
5871.05,0.035994
5877.7,0.035814
5884.38,0.035746
5891.06,0.035785
5897.76,0.035541
5904.48,0.035083
5911.21,0.034746
5917.96,0.034503
5924.73,0.034278
5931.5,0.034181
5938.3,0.033909
5945.11,0.033451
5951.93,0.033139
5958.78,0.032946
5965.63,0.032589
5972.51,0.032104
5979.39,0.031664
5986.3,0.031389
5993.22,0.031183
6000.16,0.03063
6007.11,0.030075
6014.08,0.029792
6021.06,0.029567
6028.06,0.02931
6035.08,0.029003
6042.12,0.028765
6049.17,0.028506
6056.23,0.028283
6063.32,0.028208
6070.42,0.028095
6077.53,0.028203
6084.67,0.028404
6091.82,0.028526
6098.98,0.028535
6106.17,0.02873
6113.37,0.029077
6120.58,0.029288
6127.82,0.029518
6135.07,0.029853
6142.34,0.030072
6149.63,0.030158
6156.93,0.030335
6164.25,0.030615
6171.59,0.030859
6178.95,0.030948
6186.32,0.030973
6193.71,0.031189
6201.12,0.031633
6208.54,0.031962
6215.99,0.032333
6223.45,0.03289
6230.93,0.033596
6238.43,0.034252
6245.95,0.034905
6253.48,0.035735
6261.03,0.036424
6268.6,0.037187
6276.19,0.038167
6283.8,0.038843
6291.43,0.039554
6299.07,0.040173
6306.73,0.040611
6314.42,0.04111
6322.12,0.041681
6329.84,0.042121
6337.57,0.042443
6345.33,0.042851
6353.11,0.043366
6360.9,0.043696
6368.72,0.044004
6376.55,0.044384
6384.4,0.044647
6392.27,0.044964
6400.17,0.045317
6408.08,0.045387
6416.01,0.045644
6423.96,0.046
6431.93,0.046177
6439.92,0.046359
6447.93,0.046471
6455.96,0.046486
6464.01,0.046629
6472.08,0.046711
6480.17,0.046811
6488.28,0.047012
6496.41,0.047073
6504.56,0.04699
6512.73,0.046907
6520.92,0.046885
6529.14,0.046963
6537.37,0.046925
6545.63,0.046806
6553.9,0.046746
6562.2,0.046827
6570.51,0.046875
6578.85,0.046673
6587.21,0.046424
6595.59,0.046191
6603.99,0.046063
6612.42,0.045912
6620.86,0.045739
6629.33,0.045541
6637.82,0.045382
6646.33,0.045328
6654.86,0.045202
6663.41,0.045024
6671.99,0.044914
6680.59,0.044704
6689.21,0.044484
6697.85,0.044287
6706.51,0.044177
6715.2,0.044142
6723.91,0.043921
6732.64,0.043603
6741.4,0.043462
6750.18,0.043343
6758.98,0.043217
6767.8,0.043032
6776.65,0.042744
6785.52,0.042503
6794.41,0.04222
6803.33,0.042103
6812.27,0.042002
6821.23,0.041819
6830.22,0.041741
6839.23,0.041553
6848.26,0.041372
6857.32,0.041168
6866.4,0.040788
6875.51,0.040596
6884.64,0.040492
6893.8,0.040309
6902.98,0.040018
6912.18,0.039746
6921.41,0.039395
6930.66,0.039185
6939.94,0.038915
6949.24,0.038481
6958.57,0.038029
6967.92,0.03769
6977.3,0.037422
6986.7,0.037037
6996.13,0.036668
7005.59,0.036196
7015.07,0.035857
7024.57,0.035451
7034.1,0.035066
7043.66,0.034698
7053.25,0.03437
7062.85,0.033909
7072.49,0.033436
7082.15,0.033133
7091.84,0.032782
7101.55,0.032071
7111.3,0.03144
7121.06,0.031167
7130.86,0.030703
7140.68,0.030388
7150.53,0.030102
7160.41,0.029682
7170.31,0.029184
7180.24,0.028813
7190.2,0.028557
7200.19,0.028262
7210.2,0.028068
7220.24,0.027757
7230.31,0.027366
7240.41,0.026976
7250.54,0.026657
7260.69,0.026556
7270.88,0.026396
7281.09,0.02601
7291.33,0.025611
7301.6,0.025364
7311.9,0.025135
7322.22,0.024854
7332.58,0.024743
7342.97,0.024466
7353.38,0.023969
7363.83,0.023592
7374.3,0.023284
7384.81,0.023018
7395.34,0.022751
7405.91,0.022263
7416.5,0.021905
7427.13,0.021747
7437.78,0.021475
7448.47,0.021069
7459.19,0.020706
7469.94,0.020194
7480.71,0.019842
7491.52,0.019622
7502.37,0.019339
7513.24,0.019037
7524.14,0.01883
7535.08,0.018411
7546.05,0.018081
7557.05,0.017877
7568.08,0.017673
7579.15,0.017367
7590.24,0.017155
7601.37,0.01704
7612.53,0.01687
7623.73,0.016522
7634.96,0.016254
7646.22,0.016166
7657.51,0.01609
7668.84,0.015827
7680.2,0.015767
7691.59,0.01577
7703.02,0.015533
7714.49,0.01538
7725.98,0.015437
7737.52,0.015495
7749.08,0.015471
7760.68,0.015399
7772.32,0.015517
7783.99,0.015672
7795.69,0.015998
7807.43,0.016334
7819.21,0.016493
7831.02,0.016665
7842.87,0.017099
7854.75,0.017615
7866.67,0.018033
7878.62,0.018511
7890.62,0.018987
7902.64,0.019573
7914.71,0.020309
7926.81,0.021037
7938.95,0.021777
7951.13,0.022595
7963.34,0.023383
7975.59,0.024186
7987.88,0.025036
8000.21,0.025756
8012.57,0.026525
8024.98,0.027254
8037.42,0.028004
8049.9,0.028831
8062.42,0.029454
8074.98,0.029949
8087.57,0.03049
8100.21,0.030975
8112.89,0.031566
8125.6,0.032325
8138.36,0.033046
8151.16,0.033662
8163.99,0.034413
8176.87,0.035055
8189.79,0.035609
8202.75,0.036325
8215.75,0.037001
8228.79,0.037666
8241.87,0.038339
8254.99,0.039058
8268.16,0.039688
8281.37,0.040239
8294.62,0.040756
8307.91,0.041257
8321.24,0.041663
8334.62,0.042118
8348.04,0.042541
8361.51,0.042771
8375.02,0.042806
8388.57,0.042814
8402.16,0.0429
8415.8,0.043088
8429.49,0.043203
8443.22,0.043108
8456.99,0.043045
8470.81,0.043046
8484.67,0.042897
8498.58,0.042807
8512.54,0.042893
8526.54,0.042861
8540.58,0.042863
8554.68,0.042744
8568.82,0.042519
8583.0,0.042431
8597.24,0.04244
8611.52,0.042265
8625.85,0.042173
8640.23,0.042283
8654.65,0.042379
8669.12,0.042327
8683.64,0.042704
8698.21,0.042988
8712.83,0.043084
8727.5,0.043381
8742.22,0.043751
8756.99,0.044035
8771.8,0.044534
8786.67,0.044969
8801.59,0.045409
8816.56,0.045782
8831.58,0.046138
8846.65,0.046762
8861.77,0.047419
8876.94,0.047981
8892.17,0.048359
8907.45,0.048517
8922.78,0.048642
8938.16,0.049096
8953.6,0.049685
8969.09,0.05012
8984.64,0.05038
9000.23,0.050505
9015.89,0.050739
9031.59,0.051148
9047.36,0.051333
9063.17,0.051386
9079.05,0.051554
9094.97,0.051706
9110.96,0.051934
9127.0,0.05222
9143.1,0.052299
9159.25,0.052277
9175.46,0.052459
9191.73,0.0527
9208.06,0.052826
9224.44,0.05285
9240.88,0.053096
9257.38,0.053123
9273.94,0.053004
9290.56,0.053137
9307.24,0.05335
9323.98,0.05341
9340.78,0.053359
9357.64,0.053236
9374.57,0.052928
9391.55,0.053008
9408.59,0.053235
9425.7,0.053062
9442.87,0.052785
9460.1,0.052633
9477.4,0.052574
9494.75,0.05265
9512.17,0.052823
9529.66,0.052852
9547.21,0.052923
9564.83,0.053481
9582.5,0.054216
9600.25,0.054633
9618.06,0.054662
9635.94,0.054671
9653.88,0.054458
9671.89,0.053703
9689.97,0.052553
9708.12,0.050912
9726.33,0.04915
9744.62,0.047895
9762.97,0.04767
9781.39,0.048072
9799.88,0.048567
9818.44,0.048856
9837.07,0.048723
9855.77,0.048177
9874.54,0.047662
9893.39,0.047327
9912.3,0.046966
9931.29,0.046784
9950.36,0.046498
9969.49,0.046214
9988.7,0.046089
10007.98,0.045838
10027.34,0.045541
10046.77,0.045251
10066.28,0.045186
10085.87,0.045074
10105.53,0.044971
10125.26,0.045163
10145.08,0.045002
10164.97,0.044817
10184.94,0.044801
10204.99,0.044895
10225.12,0.044932
10245.33,0.044844
10265.61,0.044861
10285.98,0.044779
10306.43,0.044657
10326.96,0.044818
10347.57,0.044726
10368.27,0.044628
10389.05,0.044912
10409.91,0.044995
10430.86,0.045045
10451.88,0.045198
10473.0,0.045066
10494.2,0.045137
10515.49,0.045544
10536.86,0.045763
10558.32,0.045933
10579.87,0.046265
10601.5,0.046412
10623.23,0.046394
10645.04,0.046438
10666.94,0.046811
10688.94,0.0471
10711.02,0.047172
10733.2,0.047178
10755.47,0.047459
10777.83,0.04768
10800.28,0.047708
10822.83,0.047865
10845.47,0.048081
10868.21,0.048323
10891.04,0.048663
10913.97,0.048884
10936.99,0.049116
10960.12,0.049304
10983.34,0.049421
11006.66,0.049646
11030.07,0.04989
11053.59,0.050004
11077.21,0.050342
11100.93,0.050516
11124.75,0.050644
11148.68,0.050718
11172.71,0.050685
11196.84,0.050701
11221.07,0.050947
11245.41,0.051109
11269.86,0.05114
11294.41,0.051301
11319.07,0.051481
11343.84,0.051595
11368.72,0.051788
11393.7,0.051711
11418.8,0.051705
11444.01,0.051733
11469.33,0.051907
11494.76,0.052163
11520.3,0.05236
11545.96,0.052328
11571.73,0.052047
11597.62,0.052058
11623.62,0.052499
11649.74,0.052662
11675.98,0.052437
11702.34,0.052311
11728.81,0.052293
11755.41,0.052151
11782.13,0.052144
11808.96,0.052332
11835.92,0.052322
11863.01,0.051916
11890.22,0.051687
11917.55,0.051466
11945.01,0.051455
11972.6,0.051475
12000.31,0.05136
12028.16,0.050917
12056.13,0.05085
12084.23,0.050997
12112.46,0.050926
12140.83,0.050967
12169.33,0.05078
12197.96,0.050387
12226.73,0.050052
12255.64,0.049741
12284.68,0.049697
12313.86,0.049512
12343.18,0.049339
12372.64,0.049144
12402.24,0.048947
12431.98,0.048477
12461.86,0.048064
12491.89,0.047933
12522.07,0.047767
12552.38,0.047311
12582.85,0.046724
12613.47,0.046215
12644.23,0.045736
12675.15,0.045297
12706.21,0.044715
12737.43,0.044448
12768.81,0.043994
12800.33,0.04325
12832.02,0.04272
12863.86,0.04235
12895.86,0.041476
12928.02,0.04051
12960.34,0.040073
12992.82,0.039625
13025.46,0.038758
13058.27,0.038128
13091.25,0.03783
13124.39,0.037741
13157.7,0.037776
13191.18,0.037402
13224.83,0.036957
13258.66,0.036964
13292.65,0.036877
13326.83,0.036744
13361.17,0.036904
13395.7,0.037384
13430.4,0.037406
13465.29,0.037307
13500.35,0.0374
13535.6,0.037562
13571.03,0.037678
13606.65,0.037793
13642.46,0.037664
13678.46,0.037325
13714.64,0.037107
13751.02,0.03705
13787.59,0.03697
13824.36,0.03714
13861.32,0.03755
13898.49,0.037519
13935.85,0.037104
13973.41,0.036945
14011.17,0.036574
14049.15,0.03657
14087.32,0.036765
14125.71,0.036464
14164.3,0.035925
14203.11,0.035542
14242.13,0.035634
14281.36,0.035378
14320.81,0.034762
14360.49,0.03425
14400.38,0.033969
14440.49,0.033197
14480.82,0.03231
14521.39,0.032043
14562.18,0.031777
14603.2,0.031323
14644.45,0.031028
14685.93,0.030694
14727.66,0.030067
14769.62,0.029649
14811.81,0.029386
14854.25,0.028869
14896.94,0.029059
14939.87,0.029476
14983.05,0.03
15026.48,0.030756
15070.16,0.031223
15114.1,0.031851
15158.29,0.032769
15202.74,0.033347
15247.46,0.033474
15292.43,0.033735
15337.68,0.034353
15383.19,0.034695
15428.97,0.035016
15475.03,0.035067
15521.36,0.034463
15567.97,0.034006
15614.87,0.033849
15662.04,0.033588
15709.5,0.033162
15757.25,0.032917
15805.29,0.032815
15853.62,0.032619
15902.26,0.032855
15951.19,0.03326
16000.42,0.033619
16049.95,0.033877
16099.8,0.033858
16149.95,0.034361
16200.42,0.034708
16251.21,0.035182
16302.31,0.036001
16353.74,0.036424
16405.49,0.036211
16457.57,0.035618
16509.98,0.035443
16562.73,0.035752
16615.82,0.036628
16669.24,0.037164
16723.02,0.037359
16777.14,0.038026
16831.61,0.039268
16886.43,0.039917
16941.62,0.039566
16997.16,0.039411
17053.08,0.039664
17109.36,0.039603
17166.01,0.038646
17223.04,0.037981
17280.45,0.037978
17338.24,0.038023
17396.43,0.037778
17455.0,0.037419
17513.97,0.037727
17573.34,0.038335
17633.11,0.038372
17693.29,0.038323
17753.89,0.038175
17814.9,0.038047
17876.33,0.038075
17938.18,0.038242
18000.47,0.037914
18063.19,0.037886
18126.35,0.038617
18189.95,0.038961
18254.0,0.038808
18318.5,0.03863
18383.46,0.038321
18448.88,0.038445
18514.77,0.038799
18581.13,0.038506
18647.97,0.038099
18715.29,0.037917
18783.1,0.038599
18851.4,0.039303
18920.2,0.039046
18989.51,0.038534
19059.32,0.037798
19129.65,0.037532
19200.5,0.03721
19271.88,0.037737
19343.79,0.038081
19416.24,0.037554
19489.23,0.037153
19562.77,0.037199
19636.88,0.037401
19711.54,0.036781
19786.78,0.036806
19862.59,0.037039
19938.98,0.036856
20015.96,0.036799
20093.55,0.037386
20171.73,0.037551
20250.53,0.036599
20329.94,0.036126
20409.98,0.036961
20490.65,0.037306
20571.96,0.036705
20653.92,0.036393
20736.54,0.036358
20819.82,0.036883
20903.77,0.037183
20988.4,0.036945
21073.72,0.036206
21159.73,0.036495
21246.46,0.036386
21333.89,0.036444
21422.04,0.037599
21510.93,0.037591
21600.56,0.037612
21690.94,0.037905
21782.08,0.038103
21873.99,0.037835
21966.67,0.037398
22060.15,0.036926
22154.42,0.037296
22249.51,0.038916
22345.41,0.039912
22442.14,0.039483
22539.72,0.038284
22638.14,0.0384
22737.43,0.038831
22837.6,0.038882
22938.65,0.037904
23040.6,0.036482
23143.46,0.036432
23247.24,0.037647
23351.96,0.039447
23457.63,0.040019
23564.25,0.037828
23671.85,0.035622
23780.44,0.035673
23890.02,0.035787
24000.63,0.036184
24112.26,0.036183
24224.93,0.035869
24338.66,0.035673
24453.47,0.036391
24569.36,0.037037
24686.36,0.034338
24804.47,0.033196
24923.73,0.033685
25044.13,0.035365
25165.71,0.038001
25288.46,0.0375
25412.43,0.035482
25537.61,0.03611
25664.04,0.035221
25791.72,0.034582
25920.68,0.036117
