Database of Origin,University of Winnipeg Spectrophotometer Facility
Sample Description,9.2. MAGNETITE: Merged RELAB & Nicole / Merged at 2.5 um / different viewing geometry
Date Added,2016-07-15 22:03:00.437193

Data ID,RPN_MAG_19          
Sample ID,MAG119
Mineral Name,Magnetite
Grain Size,<45
Viewing Geometry,30 / 0 | 30
Resolution,1.2-129
Material Class,Magnetite

Wavelength
305.0,0.039703
310.0,0.039862
315.0,0.04004
320.0,0.040587
325.0,0.040675
330.0,0.040756
335.0,0.041733
340.0,0.042043
345.0,0.042184
350.0,0.043332
355.0,0.043215
360.0,0.042868
365.0,0.043443
370.0,0.043454
375.0,0.043937
380.0,0.044128
385.0,0.044098
390.0,0.044353
395.0,0.044836
400.0,0.044975
405.0,0.045608
410.0,0.046239
415.0,0.046389
420.0,0.046412
425.0,0.046364
430.0,0.046625
435.0,0.046642
440.0,0.046632
445.0,0.046587
450.0,0.04675
455.0,0.046691
460.0,0.046539
465.0,0.0465
470.0,0.046522
475.0,0.046562
480.0,0.046845
485.0,0.046958
490.0,0.046945
495.0,0.046992
500.0,0.047107
505.0,0.047318
510.0,0.047473
515.0,0.047557
520.0,0.047535
525.0,0.047829
530.0,0.048247
535.0,0.048645
540.0,0.048997
545.0,0.049813
550.0,0.050229
555.0,0.050737
560.0,0.051586
565.0,0.052357
570.0,0.053188
575.0,0.053959
580.0,0.054915
585.0,0.055678
590.0,0.056426
595.0,0.057054
600.0,0.057667
605.0,0.058227
610.0,0.058603
615.0,0.059107
620.0,0.059429
625.0,0.05971
630.0,0.060012
635.0,0.060151
640.0,0.060436
645.0,0.060389
650.0,0.060468
655.0,0.06052
660.0,0.060514
665.0,0.060623
670.0,0.060679
675.0,0.060718
680.0,0.060781
685.0,0.060824
690.0,0.060733
695.0,0.060956
700.0,0.061033
705.0,0.061034
710.0,0.061121
715.0,0.061482
720.0,0.060606
725.0,0.060609
730.0,0.060384
735.0,0.06036
740.0,0.060217
745.0,0.059896
750.0,0.059701
755.0,0.059457
760.0,0.05957
765.0,0.059209
770.0,0.059044
775.0,0.058867
780.0,0.058582
785.0,0.058651
790.0,0.058463
795.0,0.058019
800.0,0.05787
805.0,0.057378
810.0,0.057305
815.0,0.056768
820.0,0.056369
825.0,0.056514
830.0,0.056144
835.0,0.055836
840.0,0.05535
845.0,0.054999
850.0,0.054792
855.0,0.054303
860.0,0.054648
865.0,0.054344
870.0,0.054
875.0,0.053888
880.0,0.053291
885.0,0.053123
890.0,0.052768
895.0,0.052658
900.0,0.052583
905.0,0.052501
910.0,0.052061
915.0,0.05193
920.0,0.051659
925.0,0.051722
930.0,0.051706
935.0,0.051207
940.0,0.051441
945.0,0.051317
950.0,0.050942
955.0,0.050751
960.0,0.050838
965.0,0.050732
970.0,0.050754
975.0,0.050599
980.0,0.050379
985.0,0.050511
990.0,0.050252
995.0,0.050121
1000.0,0.050138
1005.0,0.050026
1010.0,0.049985
1015.0,0.050221
1020.0,0.049752
1025.0,0.049483
1030.0,0.049855
1035.0,0.049589
1040.0,0.05002
1045.0,0.049875
1050.0,0.049771
1055.0,0.049656
1060.0,0.049684
1065.0,0.049462
1070.0,0.049717
1075.0,0.049394
1080.0,0.049084
1085.0,0.049059
1090.0,0.049052
1095.0,0.04918
1100.0,0.049244
1105.0,0.049383
1110.0,0.049137
1115.0,0.049142
1120.0,0.049186
1125.0,0.049237
1130.0,0.049171
1135.0,0.049073
1140.0,0.049398
1145.0,0.049425
1150.0,0.049412
1155.0,0.049401
1160.0,0.049366
1165.0,0.049494
1170.0,0.049426
1175.0,0.049613
1180.0,0.049522
1185.0,0.049818
1190.0,0.05009
1195.0,0.050054
1200.0,0.050162
1205.0,0.050053
1210.0,0.050487
1215.0,0.050532
1220.0,0.050486
1225.0,0.050402
1230.0,0.050351
1235.0,0.050578
1240.0,0.050591
1245.0,0.050457
1250.0,0.050581
1255.0,0.050568
1260.0,0.050981
1265.0,0.050833
1270.0,0.050994
1275.0,0.050834
1280.0,0.050954
1285.0,0.051062
1290.0,0.051155
1295.0,0.051392
1300.0,0.051421
1305.0,0.051801
1310.0,0.051723
1315.0,0.051887
1320.0,0.051883
1325.0,0.052207
1330.0,0.052262
1335.0,0.05234
1340.0,0.052514
1345.0,0.052705
1350.0,0.052805
1355.0,0.052691
1360.0,0.053618
1365.0,0.053663
1370.0,0.053861
1375.0,0.054061
1380.0,0.054131
1385.0,0.054015
1390.0,0.054371
1395.0,0.054184
1400.0,0.054736
1405.0,0.054509
1410.0,0.054726
1415.0,0.054884
1420.0,0.055153
1425.0,0.055362
1430.0,0.055511
1435.0,0.055676
1440.0,0.055783
1445.0,0.055814
1450.0,0.056008
1455.0,0.056141
1460.0,0.055923
1465.0,0.05638
1470.0,0.056275
1475.0,0.056661
1480.0,0.056898
1485.0,0.056699
1490.0,0.056868
1495.0,0.057273
1500.0,0.057528
1505.0,0.057591
1510.0,0.057824
1515.0,0.057789
1520.0,0.057853
1525.0,0.058225
1530.0,0.05852
1535.0,0.058659
1540.0,0.058406
1545.0,0.058714
1550.0,0.058731
1555.0,0.058934
1560.0,0.059527
1565.0,0.059838
1570.0,0.059617
1575.0,0.059862
1580.0,0.059449
1585.0,0.059835
1590.0,0.060059
1595.0,0.060039
1600.0,0.060383
1605.0,0.060537
1610.0,0.060908
1615.0,0.061098
1620.0,0.060824
1625.0,0.060693
1630.0,0.060692
1635.0,0.06113
1640.0,0.061493
1645.0,0.06132
1650.0,0.061629
1655.0,0.061798
1660.0,0.061543
1665.0,0.061732
1670.0,0.061926
1675.0,0.061827
1680.0,0.062146
1685.0,0.062364
1690.0,0.062289
1695.0,0.062521
1700.0,0.062684
1705.0,0.062718
1710.0,0.062798
1715.0,0.062681
1720.0,0.063012
1725.0,0.062716
1730.0,0.062887
1735.0,0.063123
1740.0,0.063317
1745.0,0.063199
1750.0,0.063451
1755.0,0.063343
1760.0,0.06359
1765.0,0.063559
1770.0,0.063783
1775.0,0.063849
1780.0,0.063803
1785.0,0.063936
1790.0,0.064171
1795.0,0.064088
1800.0,0.064198
1805.0,0.064443
1810.0,0.064365
1815.0,0.064525
1820.0,0.064618
1825.0,0.064822
1830.0,0.064664
1835.0,0.06478
1840.0,0.064784
1845.0,0.065093
1850.0,0.06502
1855.0,0.065171
1860.0,0.065502
1865.0,0.065473
1870.0,0.065739
1875.0,0.065989
1880.0,0.066144
1885.0,0.065847
1890.0,0.065868
1895.0,0.066161
1900.0,0.065768
1905.0,0.066155
1910.0,0.066419
1915.0,0.066373
1920.0,0.066446
1925.0,0.066769
1930.0,0.066699
1935.0,0.066756
1940.0,0.066767
1945.0,0.066688
1950.0,0.066899
1955.0,0.066797
1960.0,0.066909
1965.0,0.067049
1970.0,0.067012
1975.0,0.067108
1980.0,0.06721
1985.0,0.06735
1990.0,0.067548
1995.0,0.067557
2000.0,0.067684
2005.0,0.067855
2010.0,0.067912
2015.0,0.06787
2020.0,0.068084
2025.0,0.068136
2030.0,0.068288
2035.0,0.06827
2040.0,0.06837
2045.0,0.068286
2050.0,0.068501
2055.0,0.068536
2060.0,0.068509
2065.0,0.068535
2070.0,0.06866
2075.0,0.068725
2080.0,0.068943
2085.0,0.069011
2090.0,0.069047
2095.0,0.069167
2100.0,0.069405
2105.0,0.069491
2110.0,0.069601
2115.0,0.069426
2120.0,0.069687
2125.0,0.069636
2130.0,0.069539
2135.0,0.069656
2140.0,0.069778
2145.0,0.069761
2150.0,0.070105
2155.0,0.070152
2160.0,0.070005
2165.0,0.070135
2170.0,0.070295
2175.0,0.070379
2180.0,0.07048
2185.0,0.07051
2190.0,0.070563
2195.0,0.070832
2200.0,0.070858
2205.0,0.070676
2210.0,0.070952
2215.0,0.071173
2220.0,0.071035
2225.0,0.071031
2230.0,0.071208
2235.0,0.071224
2240.0,0.07119
2245.0,0.071201
2250.0,0.071414
2255.0,0.071542
2260.0,0.071397
2265.0,0.071594
2270.0,0.07165
2275.0,0.07193
2280.0,0.072166
2285.0,0.072202
2290.0,0.072217
2295.0,0.072373
2300.0,0.072503
2305.0,0.072802
2310.0,0.072626
2315.0,0.072887
2320.0,0.072624
2325.0,0.072753
2330.0,0.072867
2335.0,0.073073
2340.0,0.07303
2345.0,0.073117
2350.0,0.073043
2355.0,0.072807
2360.0,0.073032
2365.0,0.073093
2370.0,0.073144
2375.0,0.073439
2380.0,0.073521
2385.0,0.073484
2390.0,0.073636
2395.0,0.073661
2400.0,0.073865
2405.0,0.073888
2410.0,0.073651
2415.0,0.073983
2420.0,0.074161
2425.0,0.074255
2430.0,0.07427
2435.0,0.07445
2440.0,0.074491
2445.0,0.074241
2450.0,0.074457
2455.0,0.074314
2460.0,0.074642
2465.0,0.074501
2470.0,0.074554
2475.0,0.074576
2480.0,0.074436
2485.0,0.074438
2490.0,0.074746
2495.0,0.074605
2500.0,0.074756
2502.0,0.074562
2503.2,0.074534
2504.41,0.074646
2505.62,0.074574
2506.83,0.074595
2508.05,0.074628
2509.26,0.074454
2510.48,0.074349
2511.69,0.074518
2512.91,0.074589
2514.13,0.074492
2515.35,0.074353
2516.57,0.074457
2517.79,0.074648
2519.02,0.074588
2520.24,0.0747
2521.47,0.074587
2522.69,0.074538
2523.92,0.07454
2525.15,0.074424
2526.38,0.074534
2527.61,0.074745
2528.85,0.074562
2530.08,0.074395
2531.32,0.074341
2532.55,0.074495
2533.79,0.074453
2535.03,0.074421
2536.27,0.07475
2537.51,0.074778
2538.75,0.074567
2540.0,0.07464
2541.24,0.074623
2542.49,0.074439
2543.74,0.074413
2544.99,0.074553
2546.24,0.074661
2547.49,0.074639
2548.74,0.074733
2549.99,0.074585
2551.25,0.07452
2552.5,0.074648
2553.76,0.074576
2555.02,0.074551
2556.28,0.074611
2557.54,0.074486
2558.8,0.074465
2560.07,0.074556
2561.33,0.074437
2562.6,0.074394
2563.86,0.074585
2565.13,0.074648
2566.4,0.074609
2567.67,0.074516
2568.95,0.074515
2570.22,0.074547
2571.5,0.074535
2572.77,0.074382
2574.05,0.074348
2575.33,0.074524
2576.61,0.07436
2577.89,0.074347
2579.17,0.074632
2580.46,0.074656
2581.74,0.074569
2583.03,0.074418
2584.31,0.074165
2585.6,0.074122
2586.89,0.074235
2588.19,0.074444
2589.48,0.074828
2590.77,0.075062
2592.07,0.074916
2593.36,0.074703
2594.66,0.074575
2595.96,0.074326
2597.26,0.074444
2598.56,0.074571
2599.87,0.074695
2601.17,0.074801
2602.48,0.074554
2603.78,0.074312
2605.09,0.074293
2606.4,0.074309
2607.71,0.074858
2609.03,0.074972
2610.34,0.074541
2611.66,0.074497
2612.97,0.074644
2614.29,0.074592
2615.61,0.074503
2616.93,0.074392
2618.25,0.074389
2619.57,0.074576
2620.9,0.074672
2622.22,0.074798
2623.55,0.074719
2624.88,0.074645
2626.21,0.074482
2627.54,0.074349
2628.87,0.074567
2630.21,0.074546
2631.54,0.074264
2632.88,0.074493
2634.21,0.074491
2635.55,0.074577
2636.89,0.074807
2638.24,0.074706
2639.58,0.074727
2640.92,0.07469
2642.27,0.074415
2643.62,0.074325
2644.97,0.074342
2646.32,0.074259
2647.67,0.074291
2649.02,0.074505
2650.38,0.07452
2651.73,0.074404
2653.09,0.074226
2654.45,0.074333
2655.81,0.074405
2657.17,0.074493
2658.53,0.074426
2659.89,0.074246
2661.26,0.074252
2662.63,0.074336
2664.0,0.074369
2665.36,0.074094
2666.74,0.073951
2668.11,0.07418
2669.48,0.0742
2670.86,0.073663
2672.23,0.073954
2673.61,0.074315
2674.99,0.074148
2676.37,0.074309
2677.76,0.074297
2679.14,0.074386
2680.52,0.074518
2681.91,0.074535
2683.3,0.074272
2684.69,0.074069
2686.08,0.074035
2687.47,0.074011
2688.87,0.07414
2690.26,0.074341
2691.66,0.074148
2693.06,0.073791
2694.46,0.073889
2695.86,0.07407
2697.26,0.07404
2698.66,0.074062
2700.07,0.074069
2701.48,0.073871
2702.89,0.073745
2704.3,0.073747
2705.71,0.073776
2707.12,0.07379
2708.53,0.073567
2709.95,0.07338
2711.37,0.073329
2712.79,0.073648
2714.21,0.073884
2715.63,0.073525
2717.05,0.073339
2718.48,0.073199
2719.9,0.073228
2721.33,0.073152
2722.76,0.073317
2724.19,0.073342
2725.62,0.073225
2727.06,0.073364
2728.49,0.073376
2729.93,0.073293
2731.37,0.073337
2732.81,0.07332
2734.25,0.073219
2735.69,0.073206
2737.14,0.073389
2738.58,0.07322
2740.03,0.072832
2741.48,0.072942
2742.93,0.073164
2744.38,0.07333
2745.83,0.073198
2747.29,0.072947
2748.75,0.072736
2750.2,0.072857
2751.66,0.072853
2753.13,0.072799
2754.59,0.072664
2756.05,0.072637
2757.52,0.072802
2758.99,0.072799
2760.46,0.072703
2761.93,0.072645
2763.4,0.07246
2764.87,0.072393
2766.35,0.072324
2767.82,0.072322
2769.3,0.072387
2770.78,0.072249
2772.26,0.072179
2773.75,0.072183
2775.23,0.071989
2776.72,0.071768
2778.21,0.071834
2779.7,0.071913
2781.19,0.071743
2782.68,0.071732
2784.18,0.071656
2785.67,0.071471
2787.17,0.071387
2788.67,0.071383
2790.17,0.071485
2791.67,0.071535
2793.18,0.071469
2794.68,0.071398
2796.19,0.071356
2797.7,0.071261
2799.21,0.071198
2800.72,0.071188
2802.24,0.071195
2803.75,0.071126
2805.27,0.071177
2806.79,0.071227
2808.31,0.070948
2809.83,0.070817
2811.35,0.07072
2812.88,0.070682
2814.41,0.070706
2815.93,0.070717
2817.46,0.07083
2819.0,0.071018
2820.53,0.07084
2822.07,0.070625
2823.6,0.070513
2825.14,0.070505
2826.68,0.070551
2828.22,0.070545
2829.77,0.07049
2831.31,0.070427
2832.86,0.070474
2834.41,0.07069
2835.96,0.070904
2837.51,0.070875
2839.07,0.070626
2840.62,0.070582
2842.18,0.070669
2843.74,0.070772
2845.3,0.070843
2846.86,0.070742
2848.43,0.070645
2849.99,0.070795
2851.56,0.070795
2853.13,0.070785
2854.7,0.070744
2856.27,0.070709
2857.85,0.070779
2859.42,0.070821
2861.0,0.070916
2862.58,0.070908
2864.16,0.070875
2865.75,0.070895
2867.33,0.070883
2868.92,0.070824
2870.51,0.070738
2872.1,0.070838
2873.69,0.070889
2875.28,0.070829
2876.88,0.070833
2878.48,0.071013
2880.07,0.071057
2881.68,0.071097
2883.28,0.07108
2884.88,0.070934
2886.49,0.07092
2888.1,0.07094
2889.71,0.070907
2891.32,0.070962
2892.93,0.070858
2894.55,0.070698
2896.16,0.070836
2897.78,0.071044
2899.4,0.071014
2901.03,0.070873
2902.65,0.070799
2904.28,0.07098
2905.91,0.070973
2907.54,0.070878
2909.17,0.070905
2910.8,0.070885
2912.44,0.070831
2914.07,0.070827
2915.71,0.070891
2917.35,0.070739
2918.99,0.070679
2920.64,0.070822
2922.29,0.070885
2923.93,0.070842
2925.58,0.070776
2927.24,0.070566
2928.89,0.070457
2930.55,0.070599
2932.2,0.070599
2933.86,0.070517
2935.52,0.070562
2937.19,0.070608
2938.85,0.070648
2940.52,0.070597
2942.19,0.070634
2943.86,0.070816
2945.53,0.070863
2947.21,0.070847
2948.88,0.070758
2950.56,0.070594
2952.24,0.070651
2953.92,0.070779
2955.61,0.070756
2957.29,0.070713
2958.98,0.070635
2960.67,0.070701
2962.36,0.070882
2964.06,0.070953
2965.75,0.070933
2967.45,0.070847
2969.15,0.070906
2970.85,0.070873
2972.55,0.070718
2974.26,0.070759
2975.97,0.0709
2977.68,0.070959
2979.39,0.071001
2981.1,0.070999
2982.82,0.070811
2984.53,0.070726
2986.25,0.070786
2987.97,0.070922
2989.7,0.071061
2991.42,0.07104
2993.15,0.071002
2994.88,0.070851
2996.61,0.070847
2998.34,0.070931
3000.08,0.070976
3001.82,0.070976
3003.55,0.070875
3005.3,0.070875
3007.04,0.070986
3008.78,0.071052
3010.53,0.071036
3012.28,0.07113
3014.03,0.071104
3015.79,0.071062
3017.54,0.071052
3019.3,0.071099
3021.06,0.071163
3022.82,0.071191
3024.58,0.071144
3026.35,0.071104
3028.12,0.071243
3029.89,0.07122
3031.66,0.071101
3033.43,0.071237
3035.21,0.071427
3036.99,0.071499
3038.77,0.071464
3040.55,0.071398
3042.33,0.071479
3044.12,0.071544
3045.91,0.071541
3047.7,0.071519
3049.49,0.071489
3051.29,0.07137
3053.08,0.071217
3054.88,0.071358
3056.68,0.071432
3058.49,0.071376
3060.29,0.071534
3062.1,0.071595
3063.91,0.071536
3065.72,0.07162
3067.54,0.071688
3069.35,0.071728
3071.17,0.071663
3072.99,0.07162
3074.81,0.0716
3076.64,0.071656
3078.47,0.071714
3080.29,0.071733
3082.13,0.071723
3083.96,0.071735
3085.79,0.071748
3087.63,0.071716
3089.47,0.071696
3091.31,0.071678
3093.16,0.071532
3095.01,0.071543
3096.85,0.071607
3098.71,0.071734
3100.56,0.071866
3102.41,0.071801
3104.27,0.071765
3106.13,0.071826
3107.99,0.071823
3109.86,0.071742
3111.73,0.071678
3113.59,0.071727
3115.47,0.071768
3117.34,0.071843
3119.21,0.071891
3121.09,0.071917
3122.97,0.071875
3124.86,0.071789
3126.74,0.071693
3128.63,0.071712
3130.52,0.071803
3132.41,0.071877
3134.3,0.071872
3136.2,0.071881
3138.1,0.071923
3140.0,0.071967
3141.9,0.07205
3143.81,0.072018
3145.71,0.071955
3147.62,0.072031
3149.54,0.071979
3151.45,0.071878
3153.37,0.071984
3155.29,0.072023
3157.21,0.071935
3159.13,0.072
3161.06,0.072089
3162.99,0.072058
3164.92,0.072035
3166.85,0.072106
3168.79,0.072107
3170.72,0.07211
3172.67,0.071962
3174.61,0.071963
3176.55,0.072179
3178.5,0.072295
3180.45,0.072261
3182.4,0.072166
3184.36,0.072153
3186.32,0.072223
3188.27,0.072272
3190.24,0.072161
3192.2,0.072097
3194.17,0.072212
3196.14,0.072221
3198.11,0.07224
3200.08,0.072293
3202.06,0.072258
3204.04,0.072186
3206.02,0.072066
3208.0,0.072152
3209.99,0.072238
3211.98,0.072251
3213.97,0.072194
3215.96,0.072196
3217.96,0.072212
3219.96,0.072308
3221.96,0.072378
3223.96,0.07241
3225.97,0.072401
3227.98,0.072385
3229.99,0.072361
3232.0,0.072396
3234.02,0.07236
3236.04,0.072269
3238.06,0.072265
3240.08,0.072414
3242.11,0.072467
3244.14,0.072391
3246.17,0.072299
3248.2,0.072408
3250.24,0.072478
3252.28,0.072435
3254.32,0.072497
3256.37,0.072497
3258.41,0.072471
3260.46,0.072522
3262.51,0.072503
3264.57,0.072538
3266.63,0.072603
3268.69,0.072644
3270.75,0.072576
3272.81,0.072455
3274.88,0.072441
3276.95,0.07252
3279.02,0.07258
3281.1,0.072604
3283.18,0.072526
3285.26,0.07258
3287.34,0.072597
3289.43,0.07252
3291.51,0.072503
3293.61,0.072622
3295.7,0.072629
3297.8,0.072519
3299.9,0.072455
3302.0,0.072452
3304.1,0.072491
3306.21,0.072591
3308.32,0.072703
3310.43,0.072767
3312.55,0.07275
3314.66,0.072634
3316.79,0.072664
3318.91,0.072662
3321.03,0.072566
3323.16,0.072647
3325.29,0.072687
3327.43,0.072605
3329.57,0.072662
3331.71,0.072744
3333.85,0.072758
3335.99,0.072757
3338.14,0.072672
3340.29,0.072656
3342.45,0.072649
3344.6,0.072665
3346.76,0.072744
3348.92,0.072848
3351.09,0.072871
3353.26,0.072831
3355.43,0.072706
3357.6,0.072606
3359.78,0.072676
3361.96,0.072709
3364.14,0.072781
3366.32,0.072868
3368.51,0.072894
3370.7,0.072948
3372.89,0.072869
3375.09,0.072737
3377.29,0.072786
3379.49,0.072852
3381.69,0.072907
3383.9,0.072898
3386.11,0.072824
3388.32,0.072779
3390.54,0.072879
3392.76,0.072983
3394.98,0.072966
3397.21,0.072888
3399.43,0.072964
3401.66,0.073026
3403.9,0.073033
3406.13,0.073033
3408.37,0.073024
3410.61,0.07302
3412.86,0.072965
3415.11,0.072959
3417.36,0.07302
3419.61,0.073065
3421.87,0.073061
3424.13,0.073071
3426.39,0.073077
3428.66,0.073073
3430.93,0.07309
3433.2,0.073105
3435.48,0.073071
3437.76,0.073067
3440.04,0.073168
3442.32,0.073227
3444.61,0.073189
3446.9,0.073231
3449.19,0.07334
3451.49,0.073328
3453.79,0.073248
3456.09,0.073139
3458.4,0.073119
3460.7,0.073282
3463.02,0.073384
3465.33,0.07333
3467.65,0.073376
3469.97,0.073402
3472.29,0.073335
3474.62,0.073317
3476.95,0.073367
3479.29,0.073359
3481.62,0.073305
3483.96,0.073344
3486.3,0.073428
3488.65,0.073489
3491.0,0.073469
3493.35,0.07348
3495.71,0.073528
3498.07,0.073469
3500.43,0.0735
3502.79,0.073586
3505.16,0.073602
3507.53,0.07362
3509.91,0.073677
3512.29,0.073654
3514.67,0.073639
3517.05,0.073674
3519.44,0.073682
3521.83,0.07376
3524.23,0.07384
3526.62,0.07394
3529.02,0.073974
3531.43,0.073953
3533.83,0.073914
3536.24,0.073903
3538.66,0.073903
3541.08,0.073966
3543.5,0.074071
3545.92,0.074073
3548.35,0.074028
3550.78,0.073996
3553.21,0.074032
3555.65,0.074037
3558.09,0.074057
3560.53,0.074078
3562.98,0.07408
3565.43,0.074163
3567.88,0.074301
3570.34,0.074343
3572.8,0.074338
3575.27,0.074303
3577.73,0.074247
3580.2,0.074284
3582.68,0.074283
3585.16,0.074319
3587.64,0.074368
3590.12,0.074413
3592.61,0.074463
3595.1,0.074542
3597.6,0.0746
3600.09,0.074564
3602.6,0.074589
3605.1,0.074559
3607.61,0.074494
3610.12,0.074488
3612.64,0.074511
3615.16,0.07463
3617.68,0.074583
3620.21,0.074535
3622.74,0.074636
3625.27,0.074697
3627.81,0.074675
3630.35,0.07469
3632.89,0.074658
3635.44,0.07463
3637.99,0.07475
3640.54,0.074858
3643.1,0.07489
3645.66,0.07496
3648.23,0.075026
3650.8,0.074971
3653.37,0.074942
3655.95,0.074983
3658.53,0.074919
3661.11,0.074924
3663.7,0.07505
3666.29,0.075048
3668.89,0.075028
3671.48,0.075146
3674.09,0.075193
3676.69,0.075161
3679.3,0.075227
3681.91,0.075273
3684.53,0.075182
3687.15,0.075093
3689.78,0.075121
3692.4,0.075172
3695.04,0.075256
3697.67,0.075302
3700.31,0.075292
3702.95,0.075358
3705.6,0.075432
3708.25,0.075424
3710.91,0.075444
3713.56,0.075468
3716.23,0.075411
3718.89,0.075431
3721.56,0.07548
3724.23,0.075499
3726.91,0.075522
3729.59,0.075582
3732.28,0.075656
3734.97,0.075655
3737.66,0.075594
3740.36,0.075679
3743.06,0.075772
3745.76,0.075716
3748.47,0.075675
3751.18,0.07569
3753.9,0.075706
3756.62,0.07571
3759.34,0.075677
3762.07,0.075705
3764.8,0.075784
3767.54,0.075842
3770.28,0.075832
3773.02,0.075833
3775.77,0.075891
3778.52,0.075902
3781.28,0.075885
3784.04,0.075909
3786.8,0.075978
3789.57,0.075977
3792.34,0.075927
3795.12,0.07593
3797.9,0.075942
3800.69,0.075994
3803.47,0.076072
3806.27,0.076023
3809.06,0.075981
3811.86,0.076072
3814.67,0.076047
3817.48,0.076024
3820.29,0.076069
3823.11,0.076096
3825.93,0.076169
3828.76,0.076239
3831.59,0.076243
3834.42,0.076287
3837.26,0.076327
3840.1,0.07632
3842.95,0.076396
3845.8,0.076411
3848.65,0.076341
3851.51,0.076336
3854.38,0.076397
3857.24,0.076445
3860.12,0.076473
3862.99,0.076492
3865.87,0.076532
3868.76,0.076492
3871.65,0.076431
3874.54,0.076509
3877.44,0.076539
3880.34,0.076471
3883.25,0.07646
3886.16,0.076538
3889.07,0.076566
3891.99,0.076599
3894.92,0.07656
3897.85,0.076596
3900.78,0.076721
3903.72,0.07675
3906.66,0.076702
3909.6,0.076691
3912.55,0.076721
3915.51,0.076679
3918.47,0.076615
3921.43,0.076669
3924.4,0.076736
3927.38,0.076784
3930.35,0.076825
3933.33,0.076861
3936.32,0.076908
3939.31,0.076864
3942.31,0.076878
3945.31,0.076854
3948.31,0.076775
3951.32,0.076809
3954.34,0.076881
3957.35,0.076889
3960.38,0.076866
3963.41,0.076911
3966.44,0.076928
3969.48,0.07696
3972.52,0.077029
3975.56,0.077007
3978.61,0.076997
3981.67,0.077155
3984.73,0.077204
3987.8,0.077122
3990.87,0.077195
3993.94,0.077246
3997.02,0.077237
4000.1,0.077295
4003.19,0.077335
4006.29,0.077416
4009.39,0.077481
4012.49,0.077494
4015.6,0.077485
4018.71,0.077517
4021.83,0.077587
4024.95,0.077589
4028.08,0.077613
4031.21,0.077719
4034.35,0.077788
4037.49,0.077786
4040.64,0.077847
4043.79,0.077967
4046.94,0.077991
4050.11,0.077969
4053.27,0.078007
4056.44,0.078067
4059.62,0.078089
4062.8,0.078084
4065.99,0.078059
4069.18,0.078157
4072.38,0.078228
4075.58,0.078222
4078.78,0.078215
4082.0,0.078251
4085.21,0.078236
4088.43,0.078276
4091.66,0.078374
4094.89,0.078365
4098.13,0.078381
4101.37,0.078431
4104.62,0.07846
4107.87,0.078456
4111.13,0.078466
4114.39,0.078469
4117.66,0.078504
4120.93,0.078559
4124.21,0.078557
4127.5,0.078562
4130.79,0.078657
4134.08,0.078709
4137.38,0.078719
4140.68,0.078757
4143.99,0.078811
4147.31,0.078811
4150.63,0.078806
4153.95,0.078875
4157.29,0.078917
4160.62,0.07893
4163.96,0.078913
4167.31,0.078917
4170.66,0.078904
4174.02,0.078924
4177.39,0.078993
4180.75,0.07907
4184.13,0.079087
4187.51,0.0791
4190.89,0.07914
4194.28,0.079216
4197.68,0.079237
4201.08,0.079306
4204.49,0.079348
4207.9,0.079334
4211.32,0.079352
4214.74,0.079424
4218.17,0.079491
4221.61,0.07951
4225.05,0.079574
4228.5,0.079676
4231.95,0.079775
4235.4,0.079841
4238.87,0.07984
4242.34,0.07985
4245.81,0.079875
4249.29,0.079849
4252.78,0.079794
4256.27,0.079818
4259.77,0.079908
4263.27,0.079912
4266.78,0.079926
4270.29,0.079966
4273.81,0.079996
4277.34,0.080036
4280.87,0.080074
4284.41,0.080096
4287.95,0.080107
4291.5,0.080182
4295.06,0.080231
4298.62,0.080239
4302.19,0.080195
4305.76,0.080236
4309.34,0.080258
4312.92,0.080251
4316.52,0.080278
4320.11,0.080284
4323.72,0.080263
4327.32,0.080297
4330.94,0.080371
4334.56,0.080378
4338.19,0.08038
4341.82,0.080473
4345.46,0.080443
4349.11,0.080421
4352.76,0.080471
4356.42,0.080522
4360.08,0.080565
4363.75,0.080594
4367.43,0.080614
4371.11,0.08061
4374.8,0.080643
4378.49,0.080675
4382.19,0.080662
4385.9,0.08071
4389.61,0.080744
4393.33,0.080748
4397.06,0.080785
4400.79,0.080881
4404.53,0.080895
4408.28,0.080873
4412.03,0.080932
4415.79,0.080959
4419.55,0.080982
4423.32,0.081028
4427.1,0.081059
4430.88,0.0811
4434.68,0.081148
4438.47,0.081156
4442.28,0.081171
4446.08,0.081204
4449.9,0.081226
4453.72,0.081244
4457.55,0.081276
4461.39,0.081308
4465.23,0.081348
4469.08,0.081394
4472.94,0.081432
4476.8,0.081439
4480.67,0.081512
4484.55,0.081556
4488.43,0.081557
4492.32,0.081575
4496.21,0.08158
4500.12,0.08163
4504.03,0.081716
4507.94,0.081707
4511.87,0.081688
4515.8,0.081739
4519.73,0.081794
4523.68,0.081833
4527.63,0.081868
4531.59,0.081888
4535.55,0.081946
4539.52,0.082007
4543.5,0.082006
4547.49,0.082021
4551.48,0.082057
4555.48,0.082085
4559.49,0.082061
4563.5,0.082075
4567.52,0.082096
4571.55,0.082145
4575.58,0.082178
4579.63,0.082221
4583.67,0.082295
4587.73,0.082332
4591.79,0.082349
4595.86,0.082319
4599.94,0.082303
4604.03,0.082364
4608.12,0.082426
4612.22,0.082454
4616.33,0.082465
4620.44,0.082499
4624.56,0.082579
4628.69,0.082628
4632.83,0.082644
4636.97,0.082656
4641.12,0.08267
4645.28,0.082657
4649.45,0.082679
4653.62,0.082717
4657.8,0.082769
4661.99,0.082847
4666.19,0.082893
4670.39,0.082911
4674.6,0.082919
4678.82,0.082937
4683.05,0.082996
4687.28,0.08301
4691.52,0.08304
4695.77,0.083087
4700.03,0.08316
4704.3,0.083168
4708.57,0.083151
4712.85,0.083237
4717.14,0.083309
4721.43,0.08331
4725.74,0.083348
4730.05,0.083399
4734.37,0.083404
4738.7,0.083392
4743.03,0.083426
4747.38,0.08353
4751.73,0.08358
4756.09,0.083555
4760.45,0.08359
4764.83,0.083617
4769.21,0.083639
4773.6,0.083683
4778.0,0.083676
4782.41,0.083697
4786.83,0.083745
4791.25,0.083785
4795.68,0.083841
4800.13,0.083884
4804.57,0.083892
4809.03,0.083933
4813.5,0.083976
4817.97,0.084029
4822.45,0.084052
4826.94,0.084007
4831.44,0.084014
4835.95,0.08408
4840.46,0.084115
4844.99,0.084121
4849.52,0.084113
4854.06,0.084178
4858.61,0.084229
4863.17,0.084264
4867.73,0.084301
4872.31,0.084311
4876.89,0.084331
4881.48,0.084352
4886.08,0.084389
4890.69,0.084432
4895.31,0.084444
4899.94,0.084469
4904.57,0.084518
4909.22,0.084502
4913.87,0.084499
4918.53,0.084567
4923.21,0.084596
4927.88,0.084639
4932.57,0.084686
4937.27,0.084683
4941.98,0.084747
4946.69,0.084799
4951.42,0.084814
4956.15,0.084846
4960.9,0.084874
4965.65,0.084907
4970.41,0.084929
4975.18,0.084933
4979.96,0.08497
4984.75,0.085014
4989.54,0.085
4994.35,0.085034
4999.17,0.08507
5003.99,0.085116
5008.83,0.085174
5013.67,0.085223
5018.52,0.085229
5023.39,0.08525
5028.26,0.085288
5033.14,0.085318
5038.03,0.085294
5042.93,0.085335
5047.84,0.085415
5052.76,0.08545
5057.69,0.085506
5062.63,0.085526
5067.58,0.085553
5072.54,0.085595
5077.51,0.085646
5082.49,0.085664
5087.47,0.085669
5092.47,0.085706
5097.48,0.085753
5102.5,0.085765
5107.52,0.085797
5112.56,0.085833
5117.61,0.085859
5122.66,0.085844
5127.73,0.085892
5132.81,0.085947
5137.89,0.085988
5142.99,0.08605
5148.1,0.086069
5153.22,0.086044
5158.34,0.086053
5163.48,0.086111
5168.63,0.08617
5173.79,0.086188
5178.96,0.086219
5184.13,0.086247
5189.32,0.086276
5194.52,0.086317
5199.73,0.086297
5204.96,0.08632
5210.19,0.086342
5215.43,0.086382
5220.68,0.086364
5225.94,0.086371
5231.22,0.086508
5236.5,0.086608
5241.79,0.086613
5247.1,0.086584
5252.42,0.086561
5257.74,0.086574
5263.08,0.086655
5268.43,0.086729
5273.79,0.086785
5279.16,0.086811
5284.54,0.086832
5289.93,0.08685
5295.34,0.08688
5300.75,0.086869
5306.18,0.086906
5311.61,0.086915
5317.06,0.086951
5322.52,0.087036
5327.99,0.087056
5333.47,0.087059
5338.96,0.087044
5344.47,0.087033
5349.98,0.087086
5355.51,0.08711
5361.05,0.087075
5366.6,0.087148
5372.16,0.087219
5377.73,0.087285
5383.32,0.08734
5388.91,0.087319
5394.52,0.087293
5400.14,0.087309
5405.77,0.087372
5411.41,0.087427
5417.07,0.087432
5422.74,0.087483
5428.41,0.087471
5434.1,0.087435
5439.81,0.087528
5445.52,0.087549
5451.25,0.087583
5456.98,0.087595
5462.73,0.087612
5468.5,0.087636
5474.27,0.087565
5480.06,0.087543
5485.86,0.087521
5491.67,0.087502
5497.49,0.08752
5503.33,0.087468
5509.18,0.087488
5515.04,0.087567
5520.91,0.087611
5526.8,0.087609
5532.69,0.087615
5538.61,0.087659
5544.53,0.087729
5550.47,0.087769
5556.41,0.087827
5562.38,0.08787
5568.35,0.087938
5574.34,0.088032
5580.34,0.088099
5586.35,0.088049
5592.38,0.088077
5598.42,0.088185
5604.47,0.088246
5610.54,0.088252
5616.61,0.088295
5622.71,0.088302
5628.81,0.088329
5634.93,0.088387
5641.06,0.088427
5647.21,0.088438
5653.36,0.088353
5659.54,0.088466
5665.72,0.088521
5671.92,0.088554
5678.13,0.088586
5684.36,0.088543
5690.6,0.088632
5696.85,0.088718
5703.12,0.08876
5709.4,0.088911
5715.69,0.088962
5722.0,0.088931
5728.33,0.088967
5734.66,0.088969
5741.01,0.089016
5747.38,0.089085
5753.76,0.089174
5760.15,0.089173
5766.56,0.089345
5772.98,0.089302
5779.41,0.08921
5785.86,0.089309
5792.33,0.089305
5798.81,0.089328
5805.3,0.089405
5811.81,0.089412
5818.33,0.089464
5824.87,0.089518
5831.42,0.089348
5837.99,0.089307
5844.57,0.089346
5851.17,0.089384
5857.78,0.089395
5864.41,0.089433
5871.05,0.089452
5877.7,0.089499
5884.38,0.089659
5891.06,0.089376
5897.76,0.08942
5904.48,0.089385
5911.21,0.089324
5917.96,0.089501
5924.73,0.08952
5931.5,0.089569
5938.3,0.089731
5945.11,0.089538
5951.93,0.089425
5958.78,0.089591
5965.63,0.089606
5972.51,0.089673
5979.39,0.089571
5986.3,0.089632
5993.22,0.089708
6000.16,0.08966
6007.11,0.089703
6014.08,0.089846
6021.06,0.089815
6028.06,0.089715
6035.08,0.089743
6042.12,0.089822
6049.17,0.089984
6056.23,0.089738
6063.32,0.089477
6070.42,0.089816
6077.53,0.089901
6084.67,0.08971
6091.82,0.089717
6098.98,0.089867
6106.17,0.089894
6113.37,0.089995
6120.58,0.089963
6127.82,0.089888
6135.07,0.089994
6142.34,0.090062
6149.63,0.090021
6156.93,0.090029
6164.25,0.090125
6171.59,0.090144
6178.95,0.090215
6186.32,0.090312
6193.71,0.090226
6201.12,0.090134
6208.54,0.090244
6215.99,0.090316
6223.45,0.090342
6230.93,0.09037
6238.43,0.090449
6245.95,0.090479
6253.48,0.090539
6261.03,0.090561
6268.6,0.090603
6276.19,0.090635
6283.8,0.090728
6291.43,0.090852
6299.07,0.0909
6306.73,0.090925
6314.42,0.090968
6322.12,0.09106
6329.84,0.091191
6337.57,0.091327
6345.33,0.09154
6353.11,0.091517
6360.9,0.091535
6368.72,0.091779
6376.55,0.091892
6384.4,0.091925
6392.27,0.092088
6400.17,0.092191
6408.08,0.092333
6416.01,0.092588
6423.96,0.09239
6431.93,0.092377
6439.92,0.092631
6447.93,0.092676
6455.96,0.092799
6464.01,0.092792
6472.08,0.092858
6480.17,0.092932
6488.28,0.093029
6496.41,0.093117
6504.56,0.092905
6512.73,0.09284
6520.92,0.093114
6529.14,0.093102
6537.37,0.092958
6545.63,0.093025
6553.9,0.093071
6562.2,0.09307
6570.51,0.093075
6578.85,0.09305
6587.21,0.092825
6595.59,0.092864
6603.99,0.092789
6612.42,0.092739
6620.86,0.092764
6629.33,0.092772
6637.82,0.092821
6646.33,0.092552
6654.86,0.092309
6663.41,0.092366
6671.99,0.092377
6680.59,0.092309
6689.21,0.09224
6697.85,0.092114
6706.51,0.092149
6715.2,0.092156
6723.91,0.091964
6732.64,0.091843
6741.4,0.091834
6750.18,0.091852
6758.98,0.091826
6767.8,0.091792
6776.65,0.091795
6785.52,0.091753
6794.41,0.091751
6803.33,0.09161
6812.27,0.091557
6821.23,0.09164
6830.22,0.091665
6839.23,0.091543
6848.26,0.091541
6857.32,0.091631
6866.4,0.091631
6875.51,0.091382
6884.64,0.091395
6893.8,0.091565
6902.98,0.091586
6912.18,0.091609
6921.41,0.091577
6930.66,0.091649
6939.94,0.091693
6949.24,0.091743
6958.57,0.091877
6967.92,0.091911
6977.3,0.091771
6986.7,0.09189
6996.13,0.091985
7005.59,0.092043
7015.07,0.092089
7024.57,0.092239
7034.1,0.092339
7043.66,0.092528
7053.25,0.092679
7062.85,0.092642
7072.49,0.092758
7082.15,0.092851
7091.84,0.092907
7101.55,0.092974
7111.3,0.093022
7121.06,0.093068
7130.86,0.093107
7140.68,0.093181
7150.53,0.093289
7160.41,0.093322
7170.31,0.093401
7180.24,0.093398
7190.2,0.093345
7200.19,0.093456
7210.2,0.093538
7220.24,0.093543
7230.31,0.093596
7240.41,0.093681
7250.54,0.093753
7260.69,0.093839
7270.88,0.093881
7281.09,0.09395
7291.33,0.093982
7301.6,0.094088
7311.9,0.094164
7322.22,0.094199
7332.58,0.094291
7342.97,0.094435
7353.38,0.094462
7363.83,0.094486
7374.3,0.094559
7384.81,0.094628
7395.34,0.094676
7405.91,0.094735
7416.5,0.094815
7427.13,0.094907
7437.78,0.094933
7448.47,0.094992
7459.19,0.095074
7469.94,0.095136
7480.71,0.095136
7491.52,0.095178
7502.37,0.095233
7513.24,0.095328
7524.14,0.095398
7535.08,0.095418
7546.05,0.095425
7557.05,0.095468
7568.08,0.095502
7579.15,0.095543
7590.24,0.095569
7601.37,0.095625
7612.53,0.095657
7623.73,0.095679
7634.96,0.095726
7646.22,0.095755
7657.51,0.095776
7668.84,0.095813
7680.2,0.095877
7691.59,0.095957
7703.02,0.096023
7714.49,0.096084
7725.98,0.096133
7737.52,0.096185
7749.08,0.096221
7760.68,0.096266
7772.32,0.096279
7783.99,0.096291
7795.69,0.096353
7807.43,0.096421
7819.21,0.096478
7831.02,0.096537
7842.87,0.096567
7854.75,0.096603
7866.67,0.096703
7878.62,0.096824
7890.62,0.09691
7902.64,0.097005
7914.71,0.09707
7926.81,0.097147
7938.95,0.097198
7951.13,0.097198
7963.34,0.097131
7975.59,0.097108
7987.88,0.097176
8000.21,0.097203
8012.57,0.097206
8024.98,0.097282
8037.42,0.097335
8049.9,0.097353
8062.42,0.097384
8074.98,0.097422
8087.57,0.097404
8100.21,0.097389
8112.89,0.097359
8125.6,0.097381
8138.36,0.097415
8151.16,0.097408
8163.99,0.097412
8176.87,0.097494
8189.79,0.097575
8202.75,0.097599
8215.75,0.097579
8228.79,0.09761
8241.87,0.097655
8254.99,0.097643
8268.16,0.097608
8281.37,0.097602
8294.62,0.097595
8307.91,0.097592
8321.24,0.097571
8334.62,0.097599
8348.04,0.097629
8361.51,0.097648
8375.02,0.097679
8388.57,0.097651
8402.16,0.097574
8415.8,0.097607
8429.49,0.097651
8443.22,0.097664
8456.99,0.097642
8470.81,0.097592
8484.67,0.097625
8498.58,0.097699
8512.54,0.097736
8526.54,0.097748
8540.58,0.097729
8554.68,0.097748
8568.82,0.09772
8583.0,0.097663
8597.24,0.097675
8611.52,0.09771
8625.85,0.097739
8640.23,0.09776
8654.65,0.09777
8669.12,0.09783
8683.64,0.09786
8698.21,0.097843
8712.83,0.097806
8727.5,0.097821
8742.22,0.097858
8756.99,0.097951
8771.8,0.098027
8786.67,0.098035
8801.59,0.098006
8816.56,0.098009
8831.58,0.097979
8846.65,0.097965
8861.77,0.097967
8876.94,0.098016
8892.17,0.098044
8907.45,0.098043
8922.78,0.098037
8938.16,0.098027
8953.6,0.098011
8969.09,0.098019
8984.64,0.097999
9000.23,0.098
9015.89,0.098
9031.59,0.09798
9047.36,0.097894
9063.17,0.09786
9079.05,0.097835
9094.97,0.097774
9110.96,0.097647
9127.0,0.097584
9143.1,0.097511
9159.25,0.097433
9175.46,0.097392
9191.73,0.097322
9208.06,0.097225
9224.44,0.097097
9240.88,0.096943
9257.38,0.096897
9273.94,0.096851
9290.56,0.096758
9307.24,0.096629
9323.98,0.096565
9340.78,0.096583
9357.64,0.09658
9374.57,0.096526
9391.55,0.096422
9408.59,0.096319
9425.7,0.096227
9442.87,0.096144
9460.1,0.09611
9477.4,0.096032
9494.75,0.09601
9512.17,0.095976
9529.66,0.095865
9547.21,0.095775
9564.83,0.095732
9582.5,0.095693
9600.25,0.095595
9618.06,0.095546
9635.94,0.095588
9653.88,0.095622
9671.89,0.095626
9689.97,0.09559
9708.12,0.095572
9726.33,0.095544
9744.62,0.095517
9762.97,0.095574
9781.39,0.095587
9799.88,0.095532
9818.44,0.095555
9837.07,0.095606
9855.77,0.09559
9874.54,0.09557
9893.39,0.095548
9912.3,0.095539
9931.29,0.095537
9950.36,0.09549
9969.49,0.095463
9988.7,0.09545
10007.98,0.095408
10027.34,0.095351
10046.77,0.095303
10066.28,0.095289
10085.87,0.095275
10105.53,0.095263
10125.26,0.095353
10145.08,0.095362
10164.97,0.095298
10184.94,0.095304
10204.99,0.095341
10225.12,0.095393
10245.33,0.095448
10265.61,0.095505
10285.98,0.095573
10306.43,0.095658
10326.96,0.095677
10347.57,0.09564
10368.27,0.095689
10389.05,0.095753
10409.91,0.095832
10430.86,0.095916
10451.88,0.095978
10473.0,0.095972
10494.2,0.09595
10515.49,0.096043
10536.86,0.09612
10558.32,0.096167
10579.87,0.096287
10601.5,0.096387
10623.23,0.09651
10645.04,0.096585
10666.94,0.096654
10688.94,0.096766
10711.02,0.096913
10733.2,0.097036
10755.47,0.097218
10777.83,0.0974
10800.28,0.097511
10822.83,0.097631
10845.47,0.097749
10868.21,0.097917
10891.04,0.09807
10913.97,0.098216
10936.99,0.098384
10960.12,0.098494
10983.34,0.098599
11006.66,0.09875
11030.07,0.098888
11053.59,0.09896
11077.21,0.099074
11100.93,0.099237
11124.75,0.099317
11148.68,0.0994
11172.71,0.099558
11196.84,0.09967
11221.07,0.099743
11245.41,0.099803
11269.86,0.099837
11294.41,0.09978
11319.07,0.099679
11343.84,0.09956
11368.72,0.099449
11393.7,0.099472
11418.8,0.099566
11444.01,0.099635
11469.33,0.099663
11494.76,0.099615
11520.3,0.099646
11545.96,0.099696
11571.73,0.099772
11597.62,0.099919
11623.62,0.100044
11649.74,0.100094
11675.98,0.100155
11702.34,0.100263
11728.81,0.10032
11755.41,0.100298
11782.13,0.100294
11808.96,0.100404
11835.92,0.100508
11863.01,0.100584
11890.22,0.100723
11917.55,0.100861
11945.01,0.100895
11972.6,0.10089
12000.31,0.100949
12028.16,0.101069
12056.13,0.101232
12084.23,0.10127
12112.46,0.101292
12140.83,0.101397
12169.33,0.101528
12197.96,0.101602
12226.73,0.101634
12255.64,0.101663
12284.68,0.10175
12313.86,0.101811
12343.18,0.101834
12372.64,0.101819
12402.24,0.101842
12431.98,0.101887
12461.86,0.101898
12491.89,0.101823
12522.07,0.101804
12552.38,0.101844
12582.85,0.101817
12613.47,0.101798
12644.23,0.101811
12675.15,0.101841
12706.21,0.101914
12737.43,0.101974
12768.81,0.101987
12800.33,0.101939
12832.02,0.101953
12863.86,0.102025
12895.86,0.102001
12928.02,0.10205
12960.34,0.102194
12992.82,0.102263
13025.46,0.102294
13058.27,0.102271
13091.25,0.102374
13124.39,0.102486
13157.7,0.102541
13191.18,0.10252
13224.83,0.102511
13258.66,0.102543
13292.65,0.102525
13326.83,0.102535
13361.17,0.102548
13395.7,0.102558
13430.4,0.102623
13465.29,0.102616
13500.35,0.102588
13535.6,0.1026
13571.03,0.102622
13606.65,0.1027
13642.46,0.102913
13678.46,0.102997
13714.64,0.102984
13751.02,0.102985
13787.59,0.1031
13824.36,0.10336
13861.32,0.103573
13898.49,0.103666
13935.85,0.103834
13973.41,0.104075
14011.17,0.104288
14049.15,0.104495
14087.32,0.104676
14125.71,0.104746
14164.3,0.104734
14203.11,0.10482
14242.13,0.105094
14281.36,0.105301
14320.81,0.105322
14360.49,0.105305
14400.38,0.105437
14440.49,0.105721
14480.82,0.105924
14521.39,0.106132
14562.18,0.106355
14603.2,0.106513
14644.45,0.106695
14685.93,0.106725
14727.66,0.106811
14769.62,0.107071
14811.81,0.107419
14854.25,0.107609
14896.94,0.107771
14939.87,0.108027
14983.05,0.1085
15026.48,0.10883
15070.16,0.108856
15114.1,0.109015
15158.29,0.109246
15202.74,0.109564
15247.46,0.109932
15292.43,0.110173
15337.68,0.110508
15383.19,0.111022
15428.97,0.111404
15475.03,0.111738
15521.36,0.112187
15567.97,0.112645
15614.87,0.11316
15662.04,0.113713
15709.5,0.114282
15757.25,0.114894
15805.29,0.11542
15853.62,0.115972
15902.26,0.116493
15951.19,0.117003
16000.42,0.117597
16049.95,0.118196
16099.8,0.118798
16149.95,0.119339
16200.42,0.119978
16251.21,0.120748
16302.31,0.121498
16353.74,0.122188
16405.49,0.122972
16457.57,0.123783
16509.98,0.124536
16562.73,0.125371
16615.82,0.12627
16669.24,0.126986
16723.02,0.127853
16777.14,0.128794
16831.61,0.129582
16886.43,0.130464
16941.62,0.131462
16997.16,0.13238
17053.08,0.133216
17109.36,0.134334
17166.01,0.135479
17223.04,0.136467
17280.45,0.137789
17338.24,0.139199
17396.43,0.14042
17455.0,0.141846
17513.97,0.143839
17573.34,0.145572
17633.11,0.147386
17693.29,0.14926
17753.89,0.150799
17814.9,0.151924
17876.33,0.152946
17938.18,0.153822
18000.47,0.154225
18063.19,0.153977
18126.35,0.153405
18189.95,0.152467
18254.0,0.151228
18318.5,0.149689
18383.46,0.14818
18448.88,0.146676
18514.77,0.14512
18581.13,0.143549
18647.97,0.142229
18715.29,0.140886
18783.1,0.139728
18851.4,0.138503
18920.2,0.137441
18989.51,0.136584
19059.32,0.135693
19129.65,0.13483
19200.5,0.13415
19271.88,0.133363
19343.79,0.132702
19416.24,0.132222
19489.23,0.131731
19562.77,0.130939
19636.88,0.130183
19711.54,0.129784
19786.78,0.129471
19862.59,0.129072
19938.98,0.128635
20015.96,0.128405
20093.55,0.128412
20171.73,0.128325
20250.53,0.128101
20329.94,0.128081
20409.98,0.128477
20490.65,0.12884
20571.96,0.129012
20653.92,0.129136
20736.54,0.129302
20819.82,0.129347
20903.77,0.129246
20988.4,0.129648
21073.72,0.130083
21159.73,0.130354
21246.46,0.130617
21333.89,0.131036
21422.04,0.13155
21510.93,0.131397
21600.56,0.131422
21690.94,0.13189
21782.08,0.132352
21873.99,0.132815
21966.67,0.133297
22060.15,0.13357
22154.42,0.134229
22249.51,0.134485
22345.41,0.134692
22442.14,0.135154
22539.72,0.135642
22638.14,0.136111
22737.43,0.136566
22837.6,0.136402
22938.65,0.136491
23040.6,0.136962
23143.46,0.137504
23247.24,0.137011
23351.96,0.136975
23457.63,0.137268
23564.25,0.13717
23671.85,0.137052
23780.44,0.137367
23890.02,0.137776
24000.63,0.137727
24112.26,0.137876
24224.93,0.137982
24338.66,0.138121
24453.47,0.137921
24569.36,0.138566
24686.36,0.139494
24804.47,0.140061
24923.73,0.141179
25044.13,0.141709
25165.71,0.142492
25288.46,0.143219
25412.43,0.144619
25537.61,0.145997
25664.04,0.147788
25791.72,0.149422
25920.68,0.150853
