Database of Origin,University of Winnipeg Spectrophotometer Facility
Sample Description,9.2. MAGNETITE: Merged RELAB & Nicole / Merged at 2.5 um / different viewing geometry
Date Added,2016-07-15 22:03:00.216369

Data ID,RPN_MAG_10          
Sample ID,MAG110
Mineral Name,Magnetite
Grain Size,<45
Viewing Geometry,30 / 0 | 30
Resolution,1.2-129
Material Class,Magnetite

Wavelength
305.0,0.052152
310.0,0.052626
315.0,0.052798
320.0,0.05293
325.0,0.053912
330.0,0.054849
335.0,0.0545
340.0,0.054178
345.0,0.054209
350.0,0.054155
355.0,0.054661
360.0,0.055156
365.0,0.055979
370.0,0.056216
375.0,0.057187
380.0,0.057484
385.0,0.057815
390.0,0.058347
395.0,0.058885
400.0,0.059375
405.0,0.059806
410.0,0.059315
415.0,0.059559
420.0,0.059539
425.0,0.058973
430.0,0.059252
435.0,0.059109
440.0,0.05878
445.0,0.058292
450.0,0.058433
455.0,0.058136
460.0,0.057744
465.0,0.057498
470.0,0.057393
475.0,0.057138
480.0,0.057112
485.0,0.056913
490.0,0.0569
495.0,0.056819
500.0,0.05672
505.0,0.056642
510.0,0.056629
515.0,0.056628
520.0,0.056794
525.0,0.05698
530.0,0.057329
535.0,0.057762
540.0,0.057947
545.0,0.058072
550.0,0.058202
555.0,0.05839
560.0,0.058393
565.0,0.058554
570.0,0.058684
575.0,0.058944
580.0,0.059208
585.0,0.05958
590.0,0.060016
595.0,0.060526
600.0,0.060993
605.0,0.061391
610.0,0.061943
615.0,0.062431
620.0,0.062757
625.0,0.063083
630.0,0.063316
635.0,0.063562
640.0,0.063707
645.0,0.063856
650.0,0.064
655.0,0.064034
660.0,0.064105
665.0,0.064306
670.0,0.064203
675.0,0.064439
680.0,0.064685
685.0,0.064646
690.0,0.064976
695.0,0.065109
700.0,0.065198
705.0,0.065405
710.0,0.065791
715.0,0.065851
720.0,0.066078
725.0,0.066585
730.0,0.066734
735.0,0.066768
740.0,0.066807
745.0,0.066593
750.0,0.06648
755.0,0.066447
760.0,0.065649
765.0,0.065525
770.0,0.065059
775.0,0.064725
780.0,0.064353
785.0,0.064033
790.0,0.063623
795.0,0.063125
800.0,0.062956
805.0,0.062537
810.0,0.062437
815.0,0.061738
820.0,0.060969
825.0,0.060803
830.0,0.060804
835.0,0.06069
840.0,0.060379
845.0,0.059917
850.0,0.060265
855.0,0.059126
860.0,0.059986
865.0,0.05918
870.0,0.058515
875.0,0.058834
880.0,0.059051
885.0,0.058688
890.0,0.058564
895.0,0.058727
900.0,0.058552
905.0,0.058237
910.0,0.058386
915.0,0.058424
920.0,0.058123
925.0,0.058406
930.0,0.058551
935.0,0.058532
940.0,0.058748
945.0,0.059186
950.0,0.059245
955.0,0.059458
960.0,0.060067
965.0,0.060187
970.0,0.059989
975.0,0.060393
980.0,0.060992
985.0,0.061013
990.0,0.061306
995.0,0.061622
1000.0,0.061717
1005.0,0.062218
1010.0,0.062097
1015.0,0.062529
1020.0,0.062326
1025.0,0.06264
1030.0,0.062787
1035.0,0.062854
1040.0,0.063112
1045.0,0.062851
1050.0,0.063133
1055.0,0.063315
1060.0,0.063005
1065.0,0.063508
1070.0,0.063343
1075.0,0.063344
1080.0,0.063157
1085.0,0.063658
1090.0,0.063577
1095.0,0.063605
1100.0,0.063763
1105.0,0.06374
1110.0,0.063862
1115.0,0.063828
1120.0,0.063767
1125.0,0.064029
1130.0,0.064018
1135.0,0.064021
1140.0,0.064432
1145.0,0.06445
1150.0,0.064681
1155.0,0.064522
1160.0,0.064724
1165.0,0.064882
1170.0,0.064874
1175.0,0.065104
1180.0,0.065119
1185.0,0.0651
1190.0,0.065271
1195.0,0.065316
1200.0,0.06551
1205.0,0.065551
1210.0,0.065581
1215.0,0.065727
1220.0,0.065616
1225.0,0.066002
1230.0,0.06588
1235.0,0.06586
1240.0,0.065988
1245.0,0.066185
1250.0,0.065984
1255.0,0.066211
1260.0,0.066158
1265.0,0.066271
1270.0,0.066471
1275.0,0.066587
1280.0,0.066493
1285.0,0.066646
1290.0,0.066578
1295.0,0.066696
1300.0,0.067001
1305.0,0.067127
1310.0,0.067232
1315.0,0.067538
1320.0,0.067332
1325.0,0.067454
1330.0,0.067688
1335.0,0.067922
1340.0,0.067907
1345.0,0.067883
1350.0,0.068259
1355.0,0.067948
1360.0,0.068139
1365.0,0.067993
1370.0,0.068419
1375.0,0.068806
1380.0,0.068802
1385.0,0.069089
1390.0,0.069331
1395.0,0.069311
1400.0,0.069242
1405.0,0.069292
1410.0,0.069481
1415.0,0.069681
1420.0,0.070271
1425.0,0.070333
1430.0,0.070434
1435.0,0.070684
1440.0,0.070583
1445.0,0.071037
1450.0,0.070985
1455.0,0.071267
1460.0,0.071452
1465.0,0.071679
1470.0,0.071661
1475.0,0.071418
1480.0,0.072117
1485.0,0.072149
1490.0,0.072237
1495.0,0.072497
1500.0,0.072246
1505.0,0.072606
1510.0,0.072517
1515.0,0.072717
1520.0,0.072979
1525.0,0.073177
1530.0,0.07318
1535.0,0.072844
1540.0,0.073041
1545.0,0.073412
1550.0,0.073425
1555.0,0.073681
1560.0,0.073847
1565.0,0.073954
1570.0,0.073774
1575.0,0.074394
1580.0,0.074241
1585.0,0.074363
1590.0,0.074496
1595.0,0.074754
1600.0,0.075126
1605.0,0.07497
1610.0,0.075472
1615.0,0.075356
1620.0,0.075272
1625.0,0.075244
1630.0,0.075627
1635.0,0.075722
1640.0,0.075836
1645.0,0.075544
1650.0,0.075853
1655.0,0.076302
1660.0,0.076187
1665.0,0.076107
1670.0,0.076676
1675.0,0.076382
1680.0,0.076646
1685.0,0.076814
1690.0,0.077315
1695.0,0.076974
1700.0,0.077649
1705.0,0.077346
1710.0,0.077597
1715.0,0.077585
1720.0,0.077778
1725.0,0.077805
1730.0,0.077853
1735.0,0.078038
1740.0,0.078042
1745.0,0.07821
1750.0,0.078512
1755.0,0.078427
1760.0,0.078665
1765.0,0.078853
1770.0,0.0786
1775.0,0.078758
1780.0,0.07907
1785.0,0.079105
1790.0,0.079005
1795.0,0.079415
1800.0,0.079354
1805.0,0.079398
1810.0,0.07975
1815.0,0.079756
1820.0,0.079872
1825.0,0.079978
1830.0,0.07986
1835.0,0.079935
1840.0,0.079879
1845.0,0.079757
1850.0,0.080204
1855.0,0.080282
1860.0,0.080232
1865.0,0.08035
1870.0,0.080598
1875.0,0.080831
1880.0,0.08035
1885.0,0.081029
1890.0,0.081239
1895.0,0.081
1900.0,0.081135
1905.0,0.081218
1910.0,0.081392
1915.0,0.081177
1920.0,0.081608
1925.0,0.081449
1930.0,0.081457
1935.0,0.081729
1940.0,0.082113
1945.0,0.081891
1950.0,0.082087
1955.0,0.082225
1960.0,0.08242
1965.0,0.082385
1970.0,0.082232
1975.0,0.082355
1980.0,0.08251
1985.0,0.082606
1990.0,0.082479
1995.0,0.082815
2000.0,0.082928
2005.0,0.083305
2010.0,0.083221
2015.0,0.083192
2020.0,0.08322
2025.0,0.083369
2030.0,0.083289
2035.0,0.083622
2040.0,0.083475
2045.0,0.08365
2050.0,0.083603
2055.0,0.083737
2060.0,0.083984
2065.0,0.083896
2070.0,0.083977
2075.0,0.083773
2080.0,0.084206
2085.0,0.084014
2090.0,0.084446
2095.0,0.084596
2100.0,0.084964
2105.0,0.084769
2110.0,0.084541
2115.0,0.084578
2120.0,0.085089
2125.0,0.084883
2130.0,0.084927
2135.0,0.085172
2140.0,0.085223
2145.0,0.085086
2150.0,0.085312
2155.0,0.085437
2160.0,0.085382
2165.0,0.085609
2170.0,0.085232
2175.0,0.085518
2180.0,0.085379
2185.0,0.085692
2190.0,0.085427
2195.0,0.085808
2200.0,0.085583
2205.0,0.085607
2210.0,0.086014
2215.0,0.085613
2220.0,0.085863
2225.0,0.086255
2230.0,0.086419
2235.0,0.086255
2240.0,0.086305
2245.0,0.086286
2250.0,0.086497
2255.0,0.086517
2260.0,0.086648
2265.0,0.086697
2270.0,0.086474
2275.0,0.086985
2280.0,0.087108
2285.0,0.087135
2290.0,0.08722
2295.0,0.087357
2300.0,0.087479
2305.0,0.087671
2310.0,0.087742
2315.0,0.087913
2320.0,0.087851
2325.0,0.087615
2330.0,0.087926
2335.0,0.087932
2340.0,0.088301
2345.0,0.088021
2350.0,0.088335
2355.0,0.088503
2360.0,0.088308
2365.0,0.088408
2370.0,0.088251
2375.0,0.088717
2380.0,0.088632
2385.0,0.088653
2390.0,0.088507
2395.0,0.088625
2400.0,0.088696
2405.0,0.088663
2410.0,0.088962
2415.0,0.089042
2420.0,0.089143
2425.0,0.088943
2430.0,0.089159
2435.0,0.089258
2440.0,0.088916
2445.0,0.089314
2450.0,0.089269
2455.0,0.089459
2460.0,0.089245
2465.0,0.089427
2470.0,0.089622
2475.0,0.089329
2480.0,0.089636
2485.0,0.089752
2490.0,0.089832
2495.0,0.089929
2500.0,0.089912
2502.0,0.089864
2503.2,0.089962
2504.41,0.089807
2505.62,0.089661
2506.83,0.089872
2508.05,0.090077
2509.26,0.090165
2510.48,0.090072
2511.69,0.090101
2512.91,0.090118
2514.13,0.089949
2515.35,0.090034
2516.57,0.090332
2517.79,0.090355
2519.02,0.090085
2520.24,0.090116
2521.47,0.089945
2522.69,0.089791
2523.92,0.089813
2525.15,0.089885
2526.38,0.08999
2527.61,0.089815
2528.85,0.089793
2530.08,0.090017
2531.32,0.08981
2532.55,0.089769
2533.79,0.090056
2535.03,0.089824
2536.27,0.089696
2537.51,0.089814
2538.75,0.089874
2540.0,0.090127
2541.24,0.090267
2542.49,0.090025
2543.74,0.089686
2544.99,0.089721
2546.24,0.090016
2547.49,0.09001
2548.74,0.089723
2549.99,0.089603
2551.25,0.089584
2552.5,0.089653
2553.76,0.0898
2555.02,0.089729
2556.28,0.089673
2557.54,0.089614
2558.8,0.089533
2560.07,0.089721
2561.33,0.089745
2562.6,0.089626
2563.86,0.089707
2565.13,0.089948
2566.4,0.089936
2567.67,0.089869
2568.95,0.089695
2570.22,0.089547
2571.5,0.089541
2572.77,0.089635
2574.05,0.089765
2575.33,0.089916
2576.61,0.089897
2577.89,0.089675
2579.17,0.089503
2580.46,0.089611
2581.74,0.089975
2583.03,0.090057
2584.31,0.089662
2585.6,0.08955
2586.89,0.089788
2588.19,0.089864
2589.48,0.090026
2590.77,0.090061
2592.07,0.0896
2593.36,0.089451
2594.66,0.089394
2595.96,0.089437
2597.26,0.089908
2598.56,0.089904
2599.87,0.089644
2601.17,0.089512
2602.48,0.089428
2603.78,0.089442
2605.09,0.089503
2606.4,0.089487
2607.71,0.089496
2609.03,0.08968
2610.34,0.089653
2611.66,0.089563
2612.97,0.089616
2614.29,0.089413
2615.61,0.089468
2616.93,0.089573
2618.25,0.089907
2619.57,0.089998
2620.9,0.089716
2622.22,0.089896
2623.55,0.090236
2624.88,0.089998
2626.21,0.089711
2627.54,0.089658
2628.87,0.089633
2630.21,0.089565
2631.54,0.089635
2632.88,0.089736
2634.21,0.089478
2635.55,0.08936
2636.89,0.089498
2638.24,0.08951
2639.58,0.089405
2640.92,0.089429
2642.27,0.089514
2643.62,0.089428
2644.97,0.089409
2646.32,0.08941
2647.67,0.089465
2649.02,0.089457
2650.38,0.089062
2651.73,0.088938
2653.09,0.089067
2654.45,0.08931
2655.81,0.089399
2657.17,0.089353
2658.53,0.089395
2659.89,0.089238
2661.26,0.089211
2662.63,0.089115
2664.0,0.089035
2665.36,0.089164
2666.74,0.089155
2668.11,0.089438
2669.48,0.089407
2670.86,0.08896
2672.23,0.089081
2673.61,0.089129
2674.99,0.089037
2676.37,0.089136
2677.76,0.089167
2679.14,0.089274
2680.52,0.08914
2681.91,0.089093
2683.3,0.089057
2684.69,0.088962
2686.08,0.088952
2687.47,0.089088
2688.87,0.08898
2690.26,0.088645
2691.66,0.088532
2693.06,0.088578
2694.46,0.088661
2695.86,0.088706
2697.26,0.088636
2698.66,0.088574
2700.07,0.088571
2701.48,0.088288
2702.89,0.088149
2704.3,0.088191
2705.71,0.088253
2707.12,0.088095
2708.53,0.088098
2709.95,0.088193
2711.37,0.088165
2712.79,0.088105
2714.21,0.088148
2715.63,0.088304
2717.05,0.088387
2718.48,0.088324
2719.9,0.088203
2721.33,0.088133
2722.76,0.088306
2724.19,0.088547
2725.62,0.088556
2727.06,0.088338
2728.49,0.088161
2729.93,0.08817
2731.37,0.08813
2732.81,0.088129
2734.25,0.088159
2735.69,0.088378
2737.14,0.088491
2738.58,0.088245
2740.03,0.08814
2741.48,0.088233
2742.93,0.088475
2744.38,0.088429
2745.83,0.088336
2747.29,0.088446
2748.75,0.088329
2750.2,0.088182
2751.66,0.088315
2753.13,0.088182
2754.59,0.087995
2756.05,0.088021
2757.52,0.088224
2758.99,0.088427
2760.46,0.088337
2761.93,0.088305
2763.4,0.088113
2764.87,0.087999
2766.35,0.088149
2767.82,0.08819
2769.3,0.088114
2770.78,0.088065
2772.26,0.087976
2773.75,0.08787
2775.23,0.087912
2776.72,0.08798
2778.21,0.087923
2779.7,0.087992
2781.19,0.088012
2782.68,0.087981
2784.18,0.087945
2785.67,0.087776
2787.17,0.087769
2788.67,0.087874
2790.17,0.087898
2791.67,0.087956
2793.18,0.087914
2794.68,0.087768
2796.19,0.087739
2797.7,0.087732
2799.21,0.08777
2800.72,0.087796
2802.24,0.087686
2803.75,0.08772
2805.27,0.087832
2806.79,0.087823
2808.31,0.087724
2809.83,0.087733
2811.35,0.087733
2812.88,0.087704
2814.41,0.087545
2815.93,0.087248
2817.46,0.087313
2819.0,0.087516
2820.53,0.08742
2822.07,0.087288
2823.6,0.087174
2825.14,0.08715
2826.68,0.087154
2828.22,0.087042
2829.77,0.087129
2831.31,0.087213
2832.86,0.087289
2834.41,0.087294
2835.96,0.087275
2837.51,0.087467
2839.07,0.087447
2840.62,0.087462
2842.18,0.087496
2843.74,0.087328
2845.3,0.087149
2846.86,0.087043
2848.43,0.087124
2849.99,0.0871
2851.56,0.087
2853.13,0.087013
2854.7,0.087017
2856.27,0.087059
2857.85,0.087121
2859.42,0.087096
2861.0,0.087074
2862.58,0.087149
2864.16,0.087146
2865.75,0.087033
2867.33,0.08699
2868.92,0.086887
2870.51,0.086801
2872.1,0.086903
2873.69,0.086809
2875.28,0.086931
2876.88,0.087118
2878.48,0.087032
2880.07,0.086914
2881.68,0.086883
2883.28,0.086805
2884.88,0.086686
2886.49,0.086544
2888.1,0.086665
2889.71,0.086912
2891.32,0.086839
2892.93,0.086741
2894.55,0.08686
2896.16,0.086851
2897.78,0.086722
2899.4,0.086763
2901.03,0.086901
2902.65,0.086951
2904.28,0.086934
2905.91,0.086845
2907.54,0.086728
2909.17,0.086643
2910.8,0.086681
2912.44,0.086743
2914.07,0.086767
2915.71,0.086745
2917.35,0.086799
2918.99,0.086858
2920.64,0.086603
2922.29,0.086414
2923.93,0.08659
2925.58,0.086659
2927.24,0.086587
2928.89,0.086553
2930.55,0.086594
2932.2,0.086571
2933.86,0.086546
2935.52,0.086514
2937.19,0.086474
2938.85,0.086555
2940.52,0.086522
2942.19,0.086439
2943.86,0.086537
2945.53,0.086729
2947.21,0.086574
2948.88,0.086396
2950.56,0.086362
2952.24,0.086291
2953.92,0.086212
2955.61,0.086232
2957.29,0.086464
2958.98,0.086598
2960.67,0.086525
2962.36,0.086446
2964.06,0.086342
2965.75,0.086415
2967.45,0.086352
2969.15,0.086182
2970.85,0.086166
2972.55,0.086317
2974.26,0.086353
2975.97,0.086285
2977.68,0.086283
2979.39,0.086239
2981.1,0.086187
2982.82,0.086195
2984.53,0.086151
2986.25,0.086135
2987.97,0.086262
2989.7,0.086191
2991.42,0.086109
2993.15,0.086026
2994.88,0.085987
2996.61,0.086147
2998.34,0.086252
3000.08,0.086196
3001.82,0.08617
3003.55,0.086093
3005.3,0.085938
3007.04,0.085806
3008.78,0.08578
3010.53,0.086003
3012.28,0.086215
3014.03,0.086172
3015.79,0.086066
3017.54,0.085982
3019.3,0.085987
3021.06,0.085991
3022.82,0.086002
3024.58,0.08598
3026.35,0.085944
3028.12,0.085928
3029.89,0.085923
3031.66,0.08606
3033.43,0.086165
3035.21,0.0862
3036.99,0.086193
3038.77,0.086152
3040.55,0.086127
3042.33,0.085987
3044.12,0.08591
3045.91,0.085986
3047.7,0.086029
3049.49,0.085955
3051.29,0.08587
3053.08,0.085883
3054.88,0.086004
3056.68,0.085981
3058.49,0.085904
3060.29,0.085847
3062.1,0.085904
3063.91,0.086037
3065.72,0.086035
3067.54,0.085986
3069.35,0.086002
3071.17,0.085943
3072.99,0.085816
3074.81,0.085831
3076.64,0.085966
3078.47,0.086
3080.29,0.085965
3082.13,0.085898
3083.96,0.085753
3085.79,0.085629
3087.63,0.085613
3089.47,0.085593
3091.31,0.085652
3093.16,0.085682
3095.01,0.085691
3096.85,0.085762
3098.71,0.08578
3100.56,0.085787
3102.41,0.085885
3104.27,0.085866
3106.13,0.085712
3107.99,0.085706
3109.86,0.085772
3111.73,0.085728
3113.59,0.085536
3115.47,0.085491
3117.34,0.085568
3119.21,0.085676
3121.09,0.085699
3122.97,0.085702
3124.86,0.085752
3126.74,0.085795
3128.63,0.085779
3130.52,0.085747
3132.41,0.085634
3134.3,0.085639
3136.2,0.085702
3138.1,0.085694
3140.0,0.085733
3141.9,0.085672
3143.81,0.08559
3145.71,0.085608
3147.62,0.085667
3149.54,0.085694
3151.45,0.085723
3153.37,0.085793
3155.29,0.085681
3157.21,0.085714
3159.13,0.085812
3161.06,0.085756
3162.99,0.08567
3164.92,0.085756
3166.85,0.085769
3168.79,0.085606
3170.72,0.085577
3172.67,0.085588
3174.61,0.085691
3176.55,0.085767
3178.5,0.085717
3180.45,0.085731
3182.4,0.085668
3184.36,0.085583
3186.32,0.085549
3188.27,0.085628
3190.24,0.085754
3192.2,0.085772
3194.17,0.085721
3196.14,0.085686
3198.11,0.085706
3200.08,0.08569
3202.06,0.08571
3204.04,0.085777
3206.02,0.085765
3208.0,0.085725
3209.99,0.085686
3211.98,0.085685
3213.97,0.085668
3215.96,0.085665
3217.96,0.085751
3219.96,0.085812
3221.96,0.085684
3223.96,0.085716
3225.97,0.085819
3227.98,0.085931
3229.99,0.085857
3232.0,0.085738
3234.02,0.085713
3236.04,0.085685
3238.06,0.085735
3240.08,0.085753
3242.11,0.085825
3244.14,0.085712
3246.17,0.085597
3248.2,0.085661
3250.24,0.085715
3252.28,0.085752
3254.32,0.085847
3256.37,0.085828
3258.41,0.085746
3260.46,0.085761
3262.51,0.085883
3264.57,0.085875
3266.63,0.085801
3268.69,0.085778
3270.75,0.085804
3272.81,0.085811
3274.88,0.085716
3276.95,0.08578
3279.02,0.085707
3281.1,0.085649
3283.18,0.085742
3285.26,0.085769
3287.34,0.085745
3289.43,0.085768
3291.51,0.085803
3293.61,0.085853
3295.7,0.085865
3297.8,0.085876
3299.9,0.085875
3302.0,0.085828
3304.1,0.085886
3306.21,0.085892
3308.32,0.085834
3310.43,0.085902
3312.55,0.085952
3314.66,0.085915
3316.79,0.085853
3318.91,0.08583
3321.03,0.085934
3323.16,0.085992
3325.29,0.086013
3327.43,0.085981
3329.57,0.085937
3331.71,0.085944
3333.85,0.086014
3335.99,0.085881
3338.14,0.085868
3340.29,0.085966
3342.45,0.085971
3344.6,0.085847
3346.76,0.085805
3348.92,0.085789
3351.09,0.085824
3353.26,0.085899
3355.43,0.085887
3357.6,0.08587
3359.78,0.08587
3361.96,0.085896
3364.14,0.085893
3366.32,0.085919
3368.51,0.085977
3370.7,0.086051
3372.89,0.086146
3375.09,0.086058
3377.29,0.085982
3379.49,0.086039
3381.69,0.08616
3383.9,0.086105
3386.11,0.08612
3388.32,0.086164
3390.54,0.086094
3392.76,0.086139
3394.98,0.08603
3397.21,0.085991
3399.43,0.086039
3401.66,0.086128
3403.9,0.086126
3406.13,0.086144
3408.37,0.086123
3410.61,0.086094
3412.86,0.086083
3415.11,0.085996
3417.36,0.086081
3419.61,0.086198
3421.87,0.086195
3424.13,0.086222
3426.39,0.086307
3428.66,0.086336
3430.93,0.086322
3433.2,0.086291
3435.48,0.086324
3437.76,0.086313
3440.04,0.086297
3442.32,0.086252
3444.61,0.086181
3446.9,0.086253
3449.19,0.086303
3451.49,0.086339
3453.79,0.086389
3456.09,0.086348
3458.4,0.086295
3460.7,0.086256
3463.02,0.086302
3465.33,0.086387
3467.65,0.086389
3469.97,0.086351
3472.29,0.086356
3474.62,0.086371
3476.95,0.086369
3479.29,0.086436
3481.62,0.086385
3483.96,0.086344
3486.3,0.086411
3488.65,0.086498
3491.0,0.086491
3493.35,0.086449
3495.71,0.086452
3498.07,0.086507
3500.43,0.086588
3502.79,0.086617
3505.16,0.086608
3507.53,0.086568
3509.91,0.086612
3512.29,0.086661
3514.67,0.086662
3517.05,0.086711
3519.44,0.086702
3521.83,0.086654
3524.23,0.086672
3526.62,0.0867
3529.02,0.086715
3531.43,0.086753
3533.83,0.086725
3536.24,0.086764
3538.66,0.086806
3541.08,0.08679
3543.5,0.086767
3545.92,0.086783
3548.35,0.086836
3550.78,0.086862
3553.21,0.086859
3555.65,0.086903
3558.09,0.086965
3560.53,0.087021
3562.98,0.086999
3565.43,0.086946
3567.88,0.086926
3570.34,0.087019
3572.8,0.087108
3575.27,0.087137
3577.73,0.087097
3580.2,0.087127
3582.68,0.087131
3585.16,0.087146
3587.64,0.087124
3590.12,0.087162
3592.61,0.087136
3595.1,0.08707
3597.6,0.087223
3600.09,0.087331
3602.6,0.087202
3605.1,0.087164
3607.61,0.087222
3610.12,0.087253
3612.64,0.087334
3615.16,0.087363
3617.68,0.087432
3620.21,0.087483
3622.74,0.08749
3625.27,0.087502
3627.81,0.087434
3630.35,0.087431
3632.89,0.087466
3635.44,0.087469
3637.99,0.087527
3640.54,0.087608
3643.1,0.08768
3645.66,0.087652
3648.23,0.08764
3650.8,0.087634
3653.37,0.087541
3655.95,0.087489
3658.53,0.087636
3661.11,0.087746
3663.7,0.087658
3666.29,0.087571
3668.89,0.087598
3671.48,0.08763
3674.09,0.087732
3676.69,0.087836
3679.3,0.087845
3681.91,0.08779
3684.53,0.087817
3687.15,0.087927
3689.78,0.087993
3692.4,0.087926
3695.04,0.08795
3697.67,0.088051
3700.31,0.088089
3702.95,0.088041
3705.6,0.087928
3708.25,0.087917
3710.91,0.087987
3713.56,0.088042
3716.23,0.088103
3718.89,0.088152
3721.56,0.088178
3724.23,0.088161
3726.91,0.088222
3729.59,0.088212
3732.28,0.088202
3734.97,0.088256
3737.66,0.088314
3740.36,0.088351
3743.06,0.088297
3745.76,0.088271
3748.47,0.088348
3751.18,0.088403
3753.9,0.08845
3756.62,0.088521
3759.34,0.088464
3762.07,0.088489
3764.8,0.088509
3767.54,0.088506
3770.28,0.088578
3773.02,0.088658
3775.77,0.08869
3778.52,0.088684
3781.28,0.088694
3784.04,0.088675
3786.8,0.088658
3789.57,0.088696
3792.34,0.088727
3795.12,0.088755
3797.9,0.088778
3800.69,0.088847
3803.47,0.088911
3806.27,0.089008
3809.06,0.089076
3811.86,0.089088
3814.67,0.089073
3817.48,0.089075
3820.29,0.089082
3823.11,0.089112
3825.93,0.089193
3828.76,0.089233
3831.59,0.089187
3834.42,0.08916
3837.26,0.089185
3840.1,0.089192
3842.95,0.089181
3845.8,0.089248
3848.65,0.089317
3851.51,0.08935
3854.38,0.089407
3857.24,0.089435
3860.12,0.089405
3862.99,0.089436
3865.87,0.089423
3868.76,0.089456
3871.65,0.089591
3874.54,0.089707
3877.44,0.089692
3880.34,0.089654
3883.25,0.089631
3886.16,0.089687
3889.07,0.089749
3891.99,0.089761
3894.92,0.08983
3897.85,0.089874
3900.78,0.089859
3903.72,0.089916
3906.66,0.08995
3909.6,0.089954
3912.55,0.089976
3915.51,0.090002
3918.47,0.09005
3921.43,0.090087
3924.4,0.09011
3927.38,0.090144
3930.35,0.090116
3933.33,0.090167
3936.32,0.090196
3939.31,0.090228
3942.31,0.090222
3945.31,0.090235
3948.31,0.090278
3951.32,0.090341
3954.34,0.090387
3957.35,0.090439
3960.38,0.090431
3963.41,0.090478
3966.44,0.090494
3969.48,0.090485
3972.52,0.090499
3975.56,0.090549
3978.61,0.090609
3981.67,0.090629
3984.73,0.090656
3987.8,0.090647
3990.87,0.090611
3993.94,0.090697
3997.02,0.090781
4000.1,0.09073
4003.19,0.090756
4006.29,0.090818
4009.39,0.090872
4012.49,0.090954
4015.6,0.090944
4018.71,0.090958
4021.83,0.090998
4024.95,0.091061
4028.08,0.091162
4031.21,0.091134
4034.35,0.091105
4037.49,0.091154
4040.64,0.091205
4043.79,0.091167
4046.94,0.091167
4050.11,0.091248
4053.27,0.091227
4056.44,0.091264
4059.62,0.091372
4062.8,0.091404
4065.99,0.091411
4069.18,0.091491
4072.38,0.091602
4075.58,0.091627
4078.78,0.091653
4082.0,0.091652
4085.21,0.091597
4088.43,0.091662
4091.66,0.091734
4094.89,0.091767
4098.13,0.091744
4101.37,0.091736
4104.62,0.091801
4107.87,0.091911
4111.13,0.091936
4114.39,0.091942
4117.66,0.091973
4120.93,0.091972
4124.21,0.092016
4127.5,0.092067
4130.79,0.092092
4134.08,0.09215
4137.38,0.092222
4140.68,0.092298
4143.99,0.092351
4147.31,0.092327
4150.63,0.092332
4153.95,0.092352
4157.29,0.092378
4160.62,0.092387
4163.96,0.092373
4167.31,0.092454
4170.66,0.092542
4174.02,0.092573
4177.39,0.092578
4180.75,0.092563
4184.13,0.092589
4187.51,0.092615
4190.89,0.092666
4194.28,0.092723
4197.68,0.092785
4201.08,0.09278
4204.49,0.092769
4207.9,0.092835
4211.32,0.092954
4214.74,0.092946
4218.17,0.092906
4221.61,0.092997
4225.05,0.093102
4228.5,0.093157
4231.95,0.093217
4235.4,0.09326
4238.87,0.093256
4242.34,0.093265
4245.81,0.093323
4249.29,0.093415
4252.78,0.093475
4256.27,0.09349
4259.77,0.093505
4263.27,0.093523
4266.78,0.093545
4270.29,0.093553
4273.81,0.09358
4277.34,0.093611
4280.87,0.093639
4284.41,0.093701
4287.95,0.093801
4291.5,0.093868
4295.06,0.093899
4298.62,0.093896
4302.19,0.093913
4305.76,0.093923
4309.34,0.093946
4312.92,0.094003
4316.52,0.094084
4320.11,0.094105
4323.72,0.09412
4327.32,0.094128
4330.94,0.094082
4334.56,0.094051
4338.19,0.094117
4341.82,0.094243
4345.46,0.094309
4349.11,0.094329
4352.76,0.094344
4356.42,0.094378
4360.08,0.094436
4363.75,0.094435
4367.43,0.094419
4371.11,0.094394
4374.8,0.094471
4378.49,0.0946
4382.19,0.094619
4385.9,0.094603
4389.61,0.094626
4393.33,0.094692
4397.06,0.094752
4400.79,0.094807
4404.53,0.094817
4408.28,0.094813
4412.03,0.094863
4415.79,0.094938
4419.55,0.094961
4423.32,0.094964
4427.1,0.095018
4430.88,0.095097
4434.68,0.095146
4438.47,0.095108
4442.28,0.095143
4446.08,0.095252
4449.9,0.095286
4453.72,0.095257
4457.55,0.095245
4461.39,0.0953
4465.23,0.095308
4469.08,0.095325
4472.94,0.09543
4476.8,0.095457
4480.67,0.09554
4484.55,0.095639
4488.43,0.095604
4492.32,0.095551
4496.21,0.09562
4500.12,0.095663
4504.03,0.095695
4507.94,0.0957
4511.87,0.095727
4515.8,0.095811
4519.73,0.095838
4523.68,0.095833
4527.63,0.095869
4531.59,0.095895
4535.55,0.095897
4539.52,0.095943
4543.5,0.096
4547.49,0.096082
4551.48,0.096109
4555.48,0.096088
4559.49,0.09604
4563.5,0.09605
4567.52,0.096125
4571.55,0.096137
4575.58,0.096164
4579.63,0.096191
4583.67,0.096225
4587.73,0.096232
4591.79,0.096277
4595.86,0.096352
4599.94,0.096357
4604.03,0.096324
4608.12,0.096315
4612.22,0.096346
4616.33,0.096427
4620.44,0.096458
4624.56,0.09641
4628.69,0.096441
4632.83,0.09644
4636.97,0.096419
4641.12,0.096515
4645.28,0.096551
4649.45,0.096517
4653.62,0.096548
4657.8,0.096563
4661.99,0.096617
4666.19,0.096674
4670.39,0.096693
4674.6,0.096777
4678.82,0.096845
4683.05,0.096824
4687.28,0.096846
4691.52,0.096877
4695.77,0.096934
4700.03,0.097011
4704.3,0.097031
4708.57,0.097048
4712.85,0.09709
4717.14,0.097115
4721.43,0.097208
4725.74,0.097294
4730.05,0.097305
4734.37,0.097319
4738.7,0.097326
4743.03,0.097371
4747.38,0.097462
4751.73,0.097492
4756.09,0.097456
4760.45,0.097438
4764.83,0.097464
4769.21,0.097548
4773.6,0.097635
4778.0,0.097627
4782.41,0.097679
4786.83,0.097713
4791.25,0.097706
4795.68,0.097673
4800.13,0.097669
4804.57,0.097747
4809.03,0.097813
4813.5,0.097845
4817.97,0.097853
4822.45,0.097881
4826.94,0.097967
4831.44,0.098046
4835.95,0.098129
4840.46,0.098144
4844.99,0.098218
4849.52,0.098316
4854.06,0.098327
4858.61,0.098384
4863.17,0.098442
4867.73,0.098438
4872.31,0.098444
4876.89,0.098516
4881.48,0.098568
4886.08,0.098608
4890.69,0.098638
4895.31,0.098673
4899.94,0.09876
4904.57,0.098827
4909.22,0.098878
4913.87,0.098911
4918.53,0.098906
4923.21,0.098892
4927.88,0.098915
4932.57,0.098964
4937.27,0.099009
4941.98,0.099071
4946.69,0.099103
4951.42,0.099135
4956.15,0.099167
4960.9,0.099197
4965.65,0.099241
4970.41,0.099226
4975.18,0.099235
4979.96,0.099276
4984.75,0.099279
4989.54,0.099245
4994.35,0.099299
4999.17,0.099387
5003.99,0.099471
5008.83,0.099546
5013.67,0.099603
5018.52,0.099603
5023.39,0.09962
5028.26,0.099628
5033.14,0.099729
5038.03,0.09989
5042.93,0.099976
5047.84,0.100075
5052.76,0.100218
5057.69,0.100327
5062.63,0.100405
5067.58,0.100422
5072.54,0.100462
5077.51,0.100532
5082.49,0.100626
5087.47,0.100687
5092.47,0.100709
5097.48,0.100759
5102.5,0.100843
5107.52,0.100905
5112.56,0.10096
5117.61,0.101
5122.66,0.101009
5127.73,0.10106
5132.81,0.101164
5137.89,0.101242
5142.99,0.101255
5148.1,0.101281
5153.22,0.101313
5158.34,0.101376
5163.48,0.10142
5168.63,0.101452
5173.79,0.101522
5178.96,0.101552
5184.13,0.101547
5189.32,0.101602
5194.52,0.101723
5199.73,0.101775
5204.96,0.10177
5210.19,0.101791
5215.43,0.101899
5220.68,0.102029
5225.94,0.102023
5231.22,0.101938
5236.5,0.101989
5241.79,0.102094
5247.1,0.102086
5252.42,0.10211
5257.74,0.102174
5263.08,0.102202
5268.43,0.102204
5273.79,0.102257
5279.16,0.10228
5284.54,0.102293
5289.93,0.102306
5295.34,0.102374
5300.75,0.10244
5306.18,0.102479
5311.61,0.102548
5317.06,0.102582
5322.52,0.102591
5327.99,0.102625
5333.47,0.102691
5338.96,0.102743
5344.47,0.10277
5349.98,0.102799
5355.51,0.102922
5361.05,0.103016
5366.6,0.103014
5372.16,0.102998
5377.73,0.10307
5383.32,0.103146
5388.91,0.103145
5394.52,0.103166
5400.14,0.103238
5405.77,0.103291
5411.41,0.10333
5417.07,0.103396
5422.74,0.103527
5428.41,0.103638
5434.1,0.103653
5439.81,0.103662
5445.52,0.103677
5451.25,0.103742
5456.98,0.103825
5462.73,0.103874
5468.5,0.104004
5474.27,0.104052
5480.06,0.104059
5485.86,0.104131
5491.67,0.104131
5497.49,0.104147
5503.33,0.104178
5509.18,0.104222
5515.04,0.104218
5520.91,0.104285
5526.8,0.10435
5532.69,0.1044
5538.61,0.104429
5544.53,0.104439
5550.47,0.104454
5556.41,0.104534
5562.38,0.104545
5568.35,0.104563
5574.34,0.104632
5580.34,0.104732
5586.35,0.104772
5592.38,0.104736
5598.42,0.104722
5604.47,0.104797
5610.54,0.104875
5616.61,0.104909
5622.71,0.104945
5628.81,0.104955
5634.93,0.105007
5641.06,0.105141
5647.21,0.105268
5653.36,0.105265
5659.54,0.105275
5665.72,0.105299
5671.92,0.10535
5678.13,0.105435
5684.36,0.105486
5690.6,0.105547
5696.85,0.105628
5703.12,0.105642
5709.4,0.105744
5715.69,0.105857
5722.0,0.10592
5728.33,0.106011
5734.66,0.106054
5741.01,0.106101
5747.38,0.106159
5753.76,0.106341
5760.15,0.106386
5766.56,0.106401
5772.98,0.106501
5779.41,0.106497
5785.86,0.106551
5792.33,0.10658
5798.81,0.106554
5805.3,0.106565
5811.81,0.106609
5818.33,0.106693
5824.87,0.106834
5831.42,0.106834
5837.99,0.106795
5844.57,0.106798
5851.17,0.106866
5857.78,0.106922
5864.41,0.106909
5871.05,0.106976
5877.7,0.106997
5884.38,0.10721
5891.06,0.107206
5897.76,0.107208
5904.48,0.107292
5911.21,0.107127
5917.96,0.107077
5924.73,0.107089
5931.5,0.107156
5938.3,0.107299
5945.11,0.107417
5951.93,0.107284
5958.78,0.107267
5965.63,0.107284
5972.51,0.107425
5979.39,0.107444
5986.3,0.10741
5993.22,0.107515
6000.16,0.107518
6007.11,0.107467
6014.08,0.107538
6021.06,0.107604
6028.06,0.10759
6035.08,0.107587
6042.12,0.107606
6049.17,0.107817
6056.23,0.108059
6063.32,0.107849
6070.42,0.107796
6077.53,0.107917
6084.67,0.107923
6091.82,0.107858
6098.98,0.107878
6106.17,0.107877
6113.37,0.107943
6120.58,0.108064
6127.82,0.107994
6135.07,0.107936
6142.34,0.107975
6149.63,0.10804
6156.93,0.108097
6164.25,0.108142
6171.59,0.108051
6178.95,0.108041
6186.32,0.108148
6193.71,0.10818
6201.12,0.108073
6208.54,0.108057
6215.99,0.10809
6223.45,0.108111
6230.93,0.108147
6238.43,0.108146
6245.95,0.108133
6253.48,0.108182
6261.03,0.108218
6268.6,0.108223
6276.19,0.108249
6283.8,0.108231
6291.43,0.108225
6299.07,0.108264
6306.73,0.108279
6314.42,0.108278
6322.12,0.108281
6329.84,0.108281
6337.57,0.10827
6345.33,0.108361
6353.11,0.108407
6360.9,0.108259
6368.72,0.108263
6376.55,0.108359
6384.4,0.10833
6392.27,0.108251
6400.17,0.108163
6408.08,0.108175
6416.01,0.108374
6423.96,0.108379
6431.93,0.108126
6439.92,0.108029
6447.93,0.107919
6455.96,0.107874
6464.01,0.107791
6472.08,0.107686
6480.17,0.107624
6488.28,0.107588
6496.41,0.107621
6504.56,0.10755
6512.73,0.107296
6520.92,0.107177
6529.14,0.107145
6537.37,0.10705
6545.63,0.106958
6553.9,0.10688
6562.2,0.106795
6570.51,0.106707
6578.85,0.106736
6587.21,0.10663
6595.59,0.106601
6603.99,0.106594
6612.42,0.106523
6620.86,0.106486
6629.33,0.106424
6637.82,0.10654
6646.33,0.106623
6654.86,0.106471
6663.41,0.106391
6671.99,0.106408
6680.59,0.106515
6689.21,0.106569
6697.85,0.106524
6706.51,0.106532
6715.2,0.106615
6723.91,0.106665
6732.64,0.106683
6741.4,0.106693
6750.18,0.106762
6758.98,0.106892
6767.8,0.106997
6776.65,0.107094
6785.52,0.107197
6794.41,0.107385
6803.33,0.107421
6812.27,0.107391
6821.23,0.107437
6830.22,0.107578
6839.23,0.107626
6848.26,0.10763
6857.32,0.107751
6866.4,0.107962
6875.51,0.108021
6884.64,0.107894
6893.8,0.107957
6902.98,0.108064
6912.18,0.108228
6921.41,0.108379
6930.66,0.108565
6939.94,0.108706
6949.24,0.108719
6958.57,0.108774
6967.92,0.108995
6977.3,0.108978
6986.7,0.108964
6996.13,0.108919
7005.59,0.108938
7015.07,0.108994
7024.57,0.109088
7034.1,0.109226
7043.66,0.109393
7053.25,0.10961
7062.85,0.109655
7072.49,0.109644
7082.15,0.109728
7091.84,0.109809
7101.55,0.1099
7111.3,0.109992
7121.06,0.110085
7130.86,0.110119
7140.68,0.110156
7150.53,0.110315
7160.41,0.110395
7170.31,0.110402
7180.24,0.110505
7190.2,0.110535
7200.19,0.110604
7210.2,0.110723
7220.24,0.110773
7230.31,0.110735
7240.41,0.110778
7250.54,0.110858
7260.69,0.110929
7270.88,0.110976
7281.09,0.111047
7291.33,0.111042
7301.6,0.111
7311.9,0.11099
7322.22,0.11102
7332.58,0.111065
7342.97,0.111139
7353.38,0.111144
7363.83,0.111106
7374.3,0.111112
7384.81,0.111126
7395.34,0.111144
7405.91,0.111143
7416.5,0.111186
7427.13,0.11123
7437.78,0.111216
7448.47,0.111268
7459.19,0.111306
7469.94,0.11131
7480.71,0.111297
7491.52,0.111291
7502.37,0.111266
7513.24,0.111199
7524.14,0.111185
7535.08,0.111245
7546.05,0.11121
7557.05,0.111194
7568.08,0.111195
7579.15,0.111172
7590.24,0.111182
7601.37,0.111189
7612.53,0.111125
7623.73,0.111072
7634.96,0.111067
7646.22,0.111108
7657.51,0.111088
7668.84,0.11107
7680.2,0.111067
7691.59,0.110984
7703.02,0.110949
7714.49,0.110947
7725.98,0.110948
7737.52,0.110954
7749.08,0.110924
7760.68,0.110943
7772.32,0.110896
7783.99,0.110826
7795.69,0.110759
7807.43,0.110667
7819.21,0.110641
7831.02,0.110672
7842.87,0.11069
7854.75,0.110644
7866.67,0.110651
7878.62,0.110707
7890.62,0.110743
7902.64,0.110806
7914.71,0.110825
7926.81,0.110771
7938.95,0.110696
7951.13,0.110645
7963.34,0.110592
7975.59,0.110524
7987.88,0.11053
8000.21,0.110547
8012.57,0.110501
8024.98,0.110489
8037.42,0.110468
8049.9,0.11044
8062.42,0.110417
8074.98,0.110338
8087.57,0.110282
8100.21,0.110312
8112.89,0.110257
8125.6,0.110188
8138.36,0.110184
8151.16,0.110176
8163.99,0.110188
8176.87,0.110145
8189.79,0.110098
8202.75,0.110076
8215.75,0.110042
8228.79,0.109983
8241.87,0.109875
8254.99,0.109759
8268.16,0.109667
8281.37,0.109576
8294.62,0.109504
8307.91,0.109431
8321.24,0.109339
8334.62,0.109187
8348.04,0.109064
8361.51,0.108994
8375.02,0.108922
8388.57,0.108853
8402.16,0.108719
8415.8,0.108588
8429.49,0.108525
8443.22,0.108455
8456.99,0.108356
8470.81,0.10831
8484.67,0.108282
8498.58,0.108201
8512.54,0.108132
8526.54,0.108054
8540.58,0.108054
8554.68,0.108057
8568.82,0.108031
8583.0,0.107961
8597.24,0.10791
8611.52,0.107908
8625.85,0.107911
8640.23,0.107935
8654.65,0.108022
8669.12,0.108149
8683.64,0.108258
8698.21,0.108366
8712.83,0.108531
8727.5,0.108707
8742.22,0.108871
8756.99,0.109065
8771.8,0.109297
8786.67,0.109598
8801.59,0.109861
8816.56,0.110143
8831.58,0.110404
8846.65,0.110596
8861.77,0.110767
8876.94,0.11097
8892.17,0.111197
8907.45,0.111392
8922.78,0.111543
8938.16,0.111721
8953.6,0.111924
8969.09,0.11209
8984.64,0.112105
9000.23,0.11203
9015.89,0.111961
9031.59,0.111833
9047.36,0.11166
9063.17,0.111533
9079.05,0.111392
9094.97,0.111171
9110.96,0.110989
9127.0,0.110811
9143.1,0.110597
9159.25,0.110279
9175.46,0.109831
9191.73,0.109257
9208.06,0.10862
9224.44,0.108096
9240.88,0.107953
9257.38,0.108279
9273.94,0.108748
9290.56,0.109083
9307.24,0.109209
9323.98,0.109174
9340.78,0.109048
9357.64,0.108954
9374.57,0.108863
9391.55,0.108768
9408.59,0.108616
9425.7,0.108435
9442.87,0.108336
9460.1,0.108194
9477.4,0.108062
9494.75,0.108003
9512.17,0.107899
9529.66,0.107809
9547.21,0.107719
9564.83,0.107653
9582.5,0.107688
9600.25,0.107683
9618.06,0.107645
9635.94,0.107574
9653.88,0.107474
9671.89,0.107252
9689.97,0.106864
9708.12,0.106524
9726.33,0.106175
9744.62,0.10582
9762.97,0.105468
9781.39,0.10513
9799.88,0.104829
9818.44,0.104485
9837.07,0.104207
9855.77,0.103957
9874.54,0.103633
9893.39,0.103318
9912.3,0.103118
9931.29,0.102959
9950.36,0.102753
9969.49,0.102526
9988.7,0.102393
10007.98,0.102263
10027.34,0.102069
10046.77,0.101936
10066.28,0.10189
10085.87,0.101815
10105.53,0.101776
10125.26,0.101703
10145.08,0.101514
10164.97,0.101382
10184.94,0.101263
10204.99,0.10105
10225.12,0.100836
10245.33,0.10075
10265.61,0.100675
10285.98,0.100485
10306.43,0.100227
10326.96,0.099908
10347.57,0.099479
10368.27,0.099059
10389.05,0.09886
10409.91,0.098883
10430.86,0.098967
10451.88,0.099016
10473.0,0.098986
10494.2,0.098899
10515.49,0.098784
10536.86,0.098668
10558.32,0.098557
10579.87,0.098395
10601.5,0.098241
10623.23,0.09811
10645.04,0.098019
10666.94,0.097915
10688.94,0.097768
10711.02,0.097643
10733.2,0.097523
10755.47,0.097399
10777.83,0.09728
10800.28,0.097193
10822.83,0.097081
10845.47,0.096962
10868.21,0.096869
10891.04,0.096752
10913.97,0.096673
10936.99,0.096676
10960.12,0.096653
10983.34,0.096559
11006.66,0.096543
11030.07,0.096566
11053.59,0.096537
11077.21,0.096569
11100.93,0.096663
11124.75,0.096815
11148.68,0.096888
11172.71,0.096941
11196.84,0.096988
11221.07,0.097104
11245.41,0.097244
11269.86,0.097355
11294.41,0.097437
11319.07,0.097383
11343.84,0.09729
11368.72,0.097311
11393.7,0.097382
11418.8,0.097386
11444.01,0.09735
11469.33,0.097319
11494.76,0.09727
11520.3,0.09719
11545.96,0.097149
11571.73,0.097071
11597.62,0.097019
11623.62,0.097011
11649.74,0.096965
11675.98,0.096865
11702.34,0.096811
11728.81,0.096674
11755.41,0.096501
11782.13,0.096383
11808.96,0.096236
11835.92,0.096157
11863.01,0.096005
11890.22,0.095863
11917.55,0.095714
11945.01,0.095667
11972.6,0.095584
12000.31,0.095498
12028.16,0.095402
12056.13,0.095292
12084.23,0.09513
12112.46,0.094961
12140.83,0.094817
12169.33,0.094676
12197.96,0.094534
12226.73,0.094214
12255.64,0.093972
12284.68,0.093916
12313.86,0.093819
12343.18,0.093631
12372.64,0.093402
12402.24,0.093217
12431.98,0.093128
12461.86,0.093001
12491.89,0.092764
12522.07,0.092482
12552.38,0.092332
12582.85,0.092135
12613.47,0.091864
12644.23,0.091651
12675.15,0.091491
12706.21,0.091326
12737.43,0.091159
12768.81,0.090923
12800.33,0.090815
12832.02,0.09082
12863.86,0.090752
12895.86,0.090608
12928.02,0.090497
12960.34,0.090354
12992.82,0.090344
13025.46,0.090309
13058.27,0.09014
13091.25,0.08992
13124.39,0.089726
13157.7,0.089682
13191.18,0.089615
13224.83,0.089433
13258.66,0.089265
13292.65,0.08915
13326.83,0.089056
13361.17,0.0889
13395.7,0.088849
13430.4,0.088778
13465.29,0.088594
13500.35,0.088489
13535.6,0.088526
13571.03,0.088538
13606.65,0.088431
13642.46,0.088263
13678.46,0.088178
13714.64,0.088111
13751.02,0.088027
13787.59,0.087909
13824.36,0.087855
13861.32,0.087848
13898.49,0.087777
13935.85,0.087665
13973.41,0.087678
14011.17,0.087705
14049.15,0.087679
14087.32,0.087657
14125.71,0.087606
14164.3,0.087566
14203.11,0.087635
14242.13,0.087625
14281.36,0.087507
14320.81,0.087397
14360.49,0.087379
14400.38,0.087438
14440.49,0.087576
14480.82,0.087811
14521.39,0.08806
14562.18,0.088231
14603.2,0.088537
14644.45,0.088925
14685.93,0.089483
14727.66,0.090104
14769.62,0.090705
14811.81,0.091477
14854.25,0.092409
14896.94,0.093329
14939.87,0.094362
14983.05,0.095579
15026.48,0.09696
15070.16,0.09816
15114.1,0.099606
15158.29,0.101094
15202.74,0.102528
15247.46,0.104125
15292.43,0.105738
15337.68,0.107297
15383.19,0.10875
15428.97,0.11011
15475.03,0.111443
15521.36,0.112673
15567.97,0.113804
15614.87,0.114792
15662.04,0.115593
15709.5,0.116213
15757.25,0.116922
15805.29,0.11774
15853.62,0.118446
15902.26,0.119019
15951.19,0.119634
16000.42,0.120363
16049.95,0.121142
16099.8,0.122032
16149.95,0.123079
16200.42,0.124301
16251.21,0.125454
16302.31,0.126514
16353.74,0.127459
16405.49,0.128379
16457.57,0.129164
16509.98,0.129884
16562.73,0.130666
16615.82,0.131415
16669.24,0.132214
16723.02,0.133057
16777.14,0.133764
16831.61,0.134653
16886.43,0.135729
16941.62,0.136443
16997.16,0.136998
17053.08,0.137866
17109.36,0.138959
17166.01,0.140061
17223.04,0.141127
17280.45,0.142414
17338.24,0.143981
17396.43,0.145675
17455.0,0.147133
17513.97,0.148558
17573.34,0.150115
17633.11,0.151735
17693.29,0.153285
17753.89,0.154629
17814.9,0.155755
17876.33,0.156834
17938.18,0.157631
18000.47,0.158183
18063.19,0.158239
18126.35,0.157847
18189.95,0.157179
18254.0,0.156199
18318.5,0.155183
18383.46,0.154061
18448.88,0.152603
18514.77,0.1512
18581.13,0.149937
18647.97,0.148592
18715.29,0.14737
18783.1,0.146173
18851.4,0.144742
18920.2,0.14322
18989.51,0.141453
19059.32,0.139718
19129.65,0.138223
19200.5,0.136548
19271.88,0.134491
19343.79,0.132496
19416.24,0.130486
19489.23,0.128276
19562.77,0.126112
19636.88,0.123952
19711.54,0.121628
19786.78,0.119647
19862.59,0.117864
19938.98,0.116515
20015.96,0.115244
20093.55,0.114154
20171.73,0.113859
20250.53,0.114188
20329.94,0.115181
20409.98,0.11672
20490.65,0.118405
20571.96,0.120027
20653.92,0.121913
20736.54,0.123483
20819.82,0.12488
20903.77,0.126134
20988.4,0.127203
21073.72,0.127907
21159.73,0.128319
21246.46,0.128873
21333.89,0.128948
21422.04,0.128728
21510.93,0.12888
21600.56,0.129122
21690.94,0.128698
21782.08,0.128457
21873.99,0.128467
21966.67,0.128049
22060.15,0.128049
22154.42,0.128243
22249.51,0.128073
22345.41,0.128296
22442.14,0.128153
22539.72,0.127994
22638.14,0.128224
22737.43,0.128141
22837.6,0.127646
22938.65,0.126884
23040.6,0.126666
23143.46,0.126204
23247.24,0.124727
23351.96,0.123959
23457.63,0.123159
23564.25,0.12161
23671.85,0.119669
23780.44,0.11879
23890.02,0.118686
24000.63,0.118115
24112.26,0.116869
24224.93,0.115929
24338.66,0.115448
24453.47,0.116475
24569.36,0.117842
24686.36,0.119445
24804.47,0.120259
24923.73,0.122053
25044.13,0.125256
25165.71,0.127185
25288.46,0.128349
25412.43,0.12794
25537.61,0.127521
25664.04,0.12874
25791.72,0.130734
25920.68,0.130659
