Database of Origin,University of Winnipeg Spectrophotometer Facility
Sample Description,9.2. MAGNETITE: Merged RELAB & Nicole / Merged at 2.5 um / different viewing geometry
Date Added,2016-07-15 22:03:00.293964

Data ID,RPN_MAG_13          
Sample ID,MAG113
Mineral Name,Magnetite
Grain Size,<45
Viewing Geometry,30 / 0 | 30
Resolution,1.2-129
Material Class,Magnetite

Wavelength
305.0,0.047616
310.0,0.049442
315.0,0.050598
320.0,0.051407
325.0,0.052665
330.0,0.051996
335.0,0.052465
340.0,0.052469
345.0,0.052917
350.0,0.053512
355.0,0.054512
360.0,0.055965
365.0,0.056452
370.0,0.057847
375.0,0.059212
380.0,0.060347
385.0,0.061433
390.0,0.062764
395.0,0.064173
400.0,0.064759
405.0,0.065736
410.0,0.065885
415.0,0.066785
420.0,0.06729
425.0,0.067894
430.0,0.069145
435.0,0.069305
440.0,0.069855
445.0,0.070006
450.0,0.070359
455.0,0.070151
460.0,0.070072
465.0,0.070177
470.0,0.070278
475.0,0.070192
480.0,0.070632
485.0,0.07056
490.0,0.070858
495.0,0.070929
500.0,0.071457
505.0,0.071719
510.0,0.071936
515.0,0.072176
520.0,0.072345
525.0,0.072732
530.0,0.073401
535.0,0.073803
540.0,0.07424
545.0,0.07497
550.0,0.075209
555.0,0.075477
560.0,0.075954
565.0,0.076398
570.0,0.076854
575.0,0.077399
580.0,0.078058
585.0,0.078672
590.0,0.079225
595.0,0.079787
600.0,0.080388
605.0,0.080855
610.0,0.081263
615.0,0.081637
620.0,0.082132
625.0,0.082337
630.0,0.08264
635.0,0.082992
640.0,0.083209
645.0,0.083236
650.0,0.083107
655.0,0.083226
660.0,0.083413
665.0,0.083739
670.0,0.083871
675.0,0.084234
680.0,0.084594
685.0,0.084801
690.0,0.085101
695.0,0.085611
700.0,0.085895
705.0,0.086374
710.0,0.086705
715.0,0.087552
720.0,0.086738
725.0,0.087078
730.0,0.087358
735.0,0.087675
740.0,0.087833
745.0,0.08791
750.0,0.088209
755.0,0.088256
760.0,0.088775
765.0,0.088743
770.0,0.088686
775.0,0.08863
780.0,0.088141
785.0,0.088981
790.0,0.088425
795.0,0.088389
800.0,0.088032
805.0,0.087853
810.0,0.087657
815.0,0.087092
820.0,0.086942
825.0,0.087068
830.0,0.086672
835.0,0.085986
840.0,0.086106
845.0,0.085676
850.0,0.085547
855.0,0.085371
860.0,0.084651
865.0,0.084641
870.0,0.084249
875.0,0.084324
880.0,0.084524
885.0,0.084483
890.0,0.084416
895.0,0.084186
900.0,0.084101
905.0,0.084331
910.0,0.084269
915.0,0.084346
920.0,0.084449
925.0,0.084795
930.0,0.085021
935.0,0.085209
940.0,0.085484
945.0,0.085727
950.0,0.085624
955.0,0.085981
960.0,0.086025
965.0,0.086186
970.0,0.086464
975.0,0.086578
980.0,0.086682
985.0,0.086879
990.0,0.087048
995.0,0.087049
1000.0,0.087038
1005.0,0.086998
1010.0,0.087109
1015.0,0.08717
1020.0,0.086983
1025.0,0.086961
1030.0,0.086694
1035.0,0.086522
1040.0,0.08648
1045.0,0.08661
1050.0,0.086414
1055.0,0.086259
1060.0,0.086185
1065.0,0.085913
1070.0,0.085829
1075.0,0.085541
1080.0,0.085361
1085.0,0.085107
1090.0,0.085036
1095.0,0.084985
1100.0,0.084928
1105.0,0.084501
1110.0,0.084483
1115.0,0.084367
1120.0,0.084158
1125.0,0.084018
1130.0,0.084058
1135.0,0.083611
1140.0,0.083826
1145.0,0.083651
1150.0,0.083673
1155.0,0.083347
1160.0,0.083177
1165.0,0.083355
1170.0,0.083138
1175.0,0.083249
1180.0,0.082924
1185.0,0.083148
1190.0,0.08287
1195.0,0.082843
1200.0,0.082804
1205.0,0.082927
1210.0,0.083335
1215.0,0.082938
1220.0,0.082796
1225.0,0.082749
1230.0,0.082583
1235.0,0.082485
1240.0,0.082755
1245.0,0.082553
1250.0,0.082345
1255.0,0.082252
1260.0,0.082081
1265.0,0.081914
1270.0,0.082018
1275.0,0.081826
1280.0,0.081598
1285.0,0.081672
1290.0,0.081642
1295.0,0.081714
1300.0,0.081571
1305.0,0.081717
1310.0,0.081589
1315.0,0.081581
1320.0,0.081472
1325.0,0.081355
1330.0,0.081523
1335.0,0.08154
1340.0,0.081583
1345.0,0.081868
1350.0,0.081498
1355.0,0.081525
1360.0,0.080965
1365.0,0.081117
1370.0,0.08119
1375.0,0.081088
1380.0,0.080869
1385.0,0.081181
1390.0,0.081008
1395.0,0.080509
1400.0,0.080376
1405.0,0.080692
1410.0,0.080762
1415.0,0.080863
1420.0,0.081043
1425.0,0.081152
1430.0,0.081089
1435.0,0.081195
1440.0,0.081297
1445.0,0.08124
1450.0,0.081367
1455.0,0.081224
1460.0,0.081042
1465.0,0.081154
1470.0,0.081372
1475.0,0.081329
1480.0,0.081449
1485.0,0.081251
1490.0,0.081427
1495.0,0.081499
1500.0,0.081557
1505.0,0.08159
1510.0,0.081564
1515.0,0.081267
1520.0,0.081485
1525.0,0.081592
1530.0,0.081661
1535.0,0.081614
1540.0,0.081811
1545.0,0.081809
1550.0,0.081601
1555.0,0.081706
1560.0,0.081542
1565.0,0.081791
1570.0,0.081653
1575.0,0.082067
1580.0,0.082162
1585.0,0.082335
1590.0,0.082135
1595.0,0.082282
1600.0,0.08245
1605.0,0.082285
1610.0,0.082652
1615.0,0.082185
1620.0,0.082681
1625.0,0.082514
1630.0,0.082751
1635.0,0.082479
1640.0,0.082953
1645.0,0.082966
1650.0,0.0828
1655.0,0.083011
1660.0,0.083313
1665.0,0.083336
1670.0,0.083656
1675.0,0.083724
1680.0,0.08385
1685.0,0.083597
1690.0,0.083715
1695.0,0.083875
1700.0,0.0842
1705.0,0.083887
1710.0,0.083702
1715.0,0.083974
1720.0,0.084011
1725.0,0.084161
1730.0,0.084115
1735.0,0.084013
1740.0,0.084153
1745.0,0.084417
1750.0,0.08445
1755.0,0.084152
1760.0,0.084093
1765.0,0.084033
1770.0,0.084217
1775.0,0.084068
1780.0,0.084054
1785.0,0.083999
1790.0,0.084024
1795.0,0.083985
1800.0,0.084094
1805.0,0.084251
1810.0,0.08423
1815.0,0.084455
1820.0,0.084383
1825.0,0.084631
1830.0,0.084441
1835.0,0.084356
1840.0,0.084292
1845.0,0.08477
1850.0,0.084329
1855.0,0.084678
1860.0,0.084598
1865.0,0.084658
1870.0,0.084498
1875.0,0.085189
1880.0,0.085031
1885.0,0.084631
1890.0,0.084657
1895.0,0.084813
1900.0,0.084422
1905.0,0.084383
1910.0,0.084715
1915.0,0.084432
1920.0,0.084622
1925.0,0.085051
1930.0,0.084853
1935.0,0.084799
1940.0,0.084737
1945.0,0.084712
1950.0,0.084854
1955.0,0.084679
1960.0,0.084703
1965.0,0.084786
1970.0,0.084766
1975.0,0.084662
1980.0,0.084697
1985.0,0.084808
1990.0,0.084724
1995.0,0.084878
2000.0,0.084873
2005.0,0.084935
2010.0,0.084979
2015.0,0.08504
2020.0,0.084722
2025.0,0.084983
2030.0,0.085
2035.0,0.085181
2040.0,0.085022
2045.0,0.085034
2050.0,0.085078
2055.0,0.085346
2060.0,0.085082
2065.0,0.085048
2070.0,0.085075
2075.0,0.084855
2080.0,0.085064
2085.0,0.084921
2090.0,0.085
2095.0,0.085015
2100.0,0.085227
2105.0,0.084951
2110.0,0.085239
2115.0,0.0852
2120.0,0.085114
2125.0,0.085133
2130.0,0.085273
2135.0,0.085016
2140.0,0.08499
2145.0,0.085084
2150.0,0.08517
2155.0,0.085244
2160.0,0.085184
2165.0,0.085068
2170.0,0.085176
2175.0,0.085127
2180.0,0.085208
2185.0,0.08512
2190.0,0.085139
2195.0,0.085248
2200.0,0.085366
2205.0,0.085478
2210.0,0.085621
2215.0,0.085601
2220.0,0.085799
2225.0,0.085602
2230.0,0.085867
2235.0,0.085682
2240.0,0.085662
2245.0,0.085968
2250.0,0.085847
2255.0,0.085832
2260.0,0.086155
2265.0,0.086218
2270.0,0.086047
2275.0,0.086707
2280.0,0.086641
2285.0,0.08658
2290.0,0.086525
2295.0,0.086757
2300.0,0.08701
2305.0,0.087283
2310.0,0.087146
2315.0,0.087156
2320.0,0.087003
2325.0,0.087122
2330.0,0.086831
2335.0,0.086969
2340.0,0.087124
2345.0,0.087165
2350.0,0.087182
2355.0,0.087222
2360.0,0.087337
2365.0,0.087309
2370.0,0.087642
2375.0,0.087756
2380.0,0.087636
2385.0,0.087842
2390.0,0.087945
2395.0,0.088152
2400.0,0.08818
2405.0,0.088256
2410.0,0.088085
2415.0,0.088219
2420.0,0.088335
2425.0,0.088376
2430.0,0.088275
2435.0,0.08823
2440.0,0.088328
2445.0,0.088162
2450.0,0.088312
2455.0,0.088354
2460.0,0.088194
2465.0,0.088318
2470.0,0.088229
2475.0,0.088481
2480.0,0.088275
2485.0,0.088258
2490.0,0.088332
2495.0,0.088285
2500.0,0.088123
2502.0,0.088148
2503.2,0.088287
2504.41,0.088203
2505.62,0.088208
2506.83,0.088284
2508.05,0.088553
2509.26,0.08832
2510.48,0.088173
2511.69,0.088194
2512.91,0.088307
2514.13,0.08819
2515.35,0.087948
2516.57,0.088209
2517.79,0.088367
2519.02,0.088132
2520.24,0.087816
2521.47,0.087869
2522.69,0.088196
2523.92,0.088348
2525.15,0.088144
2526.38,0.087976
2527.61,0.087915
2528.85,0.087926
2530.08,0.088019
2531.32,0.087896
2532.55,0.087911
2533.79,0.087973
2535.03,0.08795
2536.27,0.08798
2537.51,0.087989
2538.75,0.087894
2540.0,0.087908
2541.24,0.087964
2542.49,0.087859
2543.74,0.087565
2544.99,0.087564
2546.24,0.087739
2547.49,0.087763
2548.74,0.087783
2549.99,0.08785
2551.25,0.087841
2552.5,0.088037
2553.76,0.087911
2555.02,0.087907
2556.28,0.087917
2557.54,0.087761
2558.8,0.087647
2560.07,0.087595
2561.33,0.08751
2562.6,0.087384
2563.86,0.087399
2565.13,0.087652
2566.4,0.087786
2567.67,0.087741
2568.95,0.087609
2570.22,0.08739
2571.5,0.087521
2572.77,0.087723
2574.05,0.087674
2575.33,0.08771
2576.61,0.087607
2577.89,0.087514
2579.17,0.087353
2580.46,0.08722
2581.74,0.087077
2583.03,0.087225
2584.31,0.087524
2585.6,0.087548
2586.89,0.087338
2588.19,0.087212
2589.48,0.08737
2590.77,0.087581
2592.07,0.087447
2593.36,0.087214
2594.66,0.08715
2595.96,0.087459
2597.26,0.087542
2598.56,0.087335
2599.87,0.087397
2601.17,0.087608
2602.48,0.087498
2603.78,0.087296
2605.09,0.087314
2606.4,0.087308
2607.71,0.0874
2609.03,0.087443
2610.34,0.087395
2611.66,0.087294
2612.97,0.08737
2614.29,0.087356
2615.61,0.087443
2616.93,0.087382
2618.25,0.087266
2619.57,0.08724
2620.9,0.087363
2622.22,0.087345
2623.55,0.087477
2624.88,0.087495
2626.21,0.087418
2627.54,0.087275
2628.87,0.087243
2630.21,0.087211
2631.54,0.0874
2632.88,0.08744
2634.21,0.087198
2635.55,0.087255
2636.89,0.087176
2638.24,0.086957
2639.58,0.086927
2640.92,0.086977
2642.27,0.086992
2643.62,0.087271
2644.97,0.08722
2646.32,0.086993
2647.67,0.086848
2649.02,0.086977
2650.38,0.087041
2651.73,0.08707
2653.09,0.087105
2654.45,0.08702
2655.81,0.086974
2657.17,0.086798
2658.53,0.08654
2659.89,0.086665
2661.26,0.08691
2662.63,0.086789
2664.0,0.08653
2665.36,0.086506
2666.74,0.086568
2668.11,0.086658
2669.48,0.086555
2670.86,0.08663
2672.23,0.086571
2673.61,0.086278
2674.99,0.086059
2676.37,0.08602
2677.76,0.085983
2679.14,0.086036
2680.52,0.086226
2681.91,0.086212
2683.3,0.086159
2684.69,0.086033
2686.08,0.085897
2687.47,0.085829
2688.87,0.085774
2690.26,0.085575
2691.66,0.085435
2693.06,0.085497
2694.46,0.085301
2695.86,0.085252
2697.26,0.085231
2698.66,0.084936
2700.07,0.084703
2701.48,0.084588
2702.89,0.084334
2704.3,0.084101
2705.71,0.083775
2707.12,0.083689
2708.53,0.083567
2709.95,0.08315
2711.37,0.082577
2712.79,0.082096
2714.21,0.081686
2715.63,0.081273
2717.05,0.080781
2718.48,0.080236
2719.9,0.079635
2721.33,0.079123
2722.76,0.078453
2724.19,0.077826
2725.62,0.077037
2727.06,0.076427
2728.49,0.07593
2729.93,0.075406
2731.37,0.074888
2732.81,0.074249
2734.25,0.073786
2735.69,0.073374
2737.14,0.072923
2738.58,0.072572
2740.03,0.072192
2741.48,0.071583
2742.93,0.071166
2744.38,0.070969
2745.83,0.070663
2747.29,0.070284
2748.75,0.070003
2750.2,0.069718
2751.66,0.069086
2753.13,0.068544
2754.59,0.068199
2756.05,0.068055
2757.52,0.067794
2758.99,0.067836
2760.46,0.068069
2761.93,0.068066
2763.4,0.067959
2764.87,0.067965
2766.35,0.068117
2767.82,0.068301
2769.3,0.068487
2770.78,0.068418
2772.26,0.06844
2773.75,0.068628
2775.23,0.068721
2776.72,0.068828
2778.21,0.068805
2779.7,0.068717
2781.19,0.068781
2782.68,0.068939
2784.18,0.068972
2785.67,0.068942
2787.17,0.068995
2788.67,0.068888
2790.17,0.068841
2791.67,0.069124
2793.18,0.069266
2794.68,0.069122
2796.19,0.069129
2797.7,0.069414
2799.21,0.069425
2800.72,0.069403
2802.24,0.069389
2803.75,0.069259
2805.27,0.069372
2806.79,0.069605
2808.31,0.069647
2809.83,0.069558
2811.35,0.069556
2812.88,0.069631
2814.41,0.069536
2815.93,0.069442
2817.46,0.069445
2819.0,0.069521
2820.53,0.069388
2822.07,0.069368
2823.6,0.06941
2825.14,0.069565
2826.68,0.069607
2828.22,0.06951
2829.77,0.069641
2831.31,0.069852
2832.86,0.070014
2834.41,0.070149
2835.96,0.070046
2837.51,0.070053
2839.07,0.070384
2840.62,0.070651
2842.18,0.070671
2843.74,0.070454
2845.3,0.070441
2846.86,0.070524
2848.43,0.070537
2849.99,0.07058
2851.56,0.070685
2853.13,0.070846
2854.7,0.070895
2856.27,0.070825
2857.85,0.07102
2859.42,0.07118
2861.0,0.071185
2862.58,0.071053
2864.16,0.070917
2865.75,0.070899
2867.33,0.070894
2868.92,0.07114
2870.51,0.071245
2872.1,0.071012
2873.69,0.07077
2875.28,0.070857
2876.88,0.071043
2878.48,0.071201
2880.07,0.071179
2881.68,0.071075
2883.28,0.070994
2884.88,0.070966
2886.49,0.070994
2888.1,0.071073
2889.71,0.071075
2891.32,0.070964
2892.93,0.070983
2894.55,0.071145
2896.16,0.071205
2897.78,0.07104
2899.4,0.071165
2901.03,0.071186
2902.65,0.071044
2904.28,0.071085
2905.91,0.07122
2907.54,0.071165
2909.17,0.071071
2910.8,0.071188
2912.44,0.071325
2914.07,0.071434
2915.71,0.071378
2917.35,0.071359
2918.99,0.071337
2920.64,0.071367
2922.29,0.071503
2923.93,0.0716
2925.58,0.07154
2927.24,0.071516
2928.89,0.071496
2930.55,0.071429
2932.2,0.071492
2933.86,0.071525
2935.52,0.071595
2937.19,0.071775
2938.85,0.071687
2940.52,0.071634
2942.19,0.07181
2943.86,0.071921
2945.53,0.071877
2947.21,0.071964
2948.88,0.071945
2950.56,0.072018
2952.24,0.072157
2953.92,0.072146
2955.61,0.072107
2957.29,0.072078
2958.98,0.072231
2960.67,0.072359
2962.36,0.0724
2964.06,0.072457
2965.75,0.072546
2967.45,0.072515
2969.15,0.07254
2970.85,0.072608
2972.55,0.07261
2974.26,0.072775
2975.97,0.072973
2977.68,0.072956
2979.39,0.073014
2981.1,0.073062
2982.82,0.072991
2984.53,0.073157
2986.25,0.07339
2987.97,0.073425
2989.7,0.07342
2991.42,0.073401
2993.15,0.073394
2994.88,0.0735
2996.61,0.073537
2998.34,0.073681
3000.08,0.073727
3001.82,0.073755
3003.55,0.073832
3005.3,0.073768
3007.04,0.073782
3008.78,0.07386
3010.53,0.074036
3012.28,0.074118
3014.03,0.074136
3015.79,0.074207
3017.54,0.074315
3019.3,0.074462
3021.06,0.074514
3022.82,0.074569
3024.58,0.07464
3026.35,0.074696
3028.12,0.074867
3029.89,0.074958
3031.66,0.07492
3033.43,0.075084
3035.21,0.075244
3036.99,0.075216
3038.77,0.07517
3040.55,0.075316
3042.33,0.075478
3044.12,0.075513
3045.91,0.075622
3047.7,0.075722
3049.49,0.075667
3051.29,0.07568
3053.08,0.075685
3054.88,0.075692
3056.68,0.075753
3058.49,0.076049
3060.29,0.076212
3062.1,0.076155
3063.91,0.076106
3065.72,0.076114
3067.54,0.076173
3069.35,0.076313
3071.17,0.076429
3072.99,0.076331
3074.81,0.076407
3076.64,0.076631
3078.47,0.076758
3080.29,0.076759
3082.13,0.076838
3083.96,0.076981
3085.79,0.076974
3087.63,0.076799
3089.47,0.076862
3091.31,0.077091
3093.16,0.077076
3095.01,0.077263
3096.85,0.0773
3098.71,0.077294
3100.56,0.077518
3102.41,0.077514
3104.27,0.077405
3106.13,0.077508
3107.99,0.077621
3109.86,0.077621
3111.73,0.077683
3113.59,0.077732
3115.47,0.077917
3117.34,0.078069
3119.21,0.077967
3121.09,0.077901
3122.97,0.07789
3124.86,0.0781
3126.74,0.078335
3128.63,0.078398
3130.52,0.078386
3132.41,0.078392
3134.3,0.078428
3136.2,0.078584
3138.1,0.078601
3140.0,0.078556
3141.9,0.078648
3143.81,0.078791
3145.71,0.078873
3147.62,0.079
3149.54,0.07894
3151.45,0.078937
3153.37,0.079001
3155.29,0.078987
3157.21,0.078907
3159.13,0.079003
3161.06,0.079146
3162.99,0.079273
3164.92,0.07933
3166.85,0.079293
3168.79,0.079413
3170.72,0.079523
3172.67,0.079481
3174.61,0.079522
3176.55,0.079562
3178.5,0.079611
3180.45,0.079746
3182.4,0.079702
3184.36,0.079614
3186.32,0.079681
3188.27,0.079824
3190.24,0.079913
3192.2,0.080016
3194.17,0.080119
3196.14,0.080127
3198.11,0.080097
3200.08,0.080075
3202.06,0.08008
3204.04,0.080164
3206.02,0.080233
3208.0,0.080244
3209.99,0.080326
3211.98,0.080398
3213.97,0.080377
3215.96,0.080428
3217.96,0.080335
3219.96,0.080387
3221.96,0.080559
3223.96,0.080542
3225.97,0.08057
3227.98,0.080678
3229.99,0.080655
3232.0,0.080627
3234.02,0.080807
3236.04,0.080884
3238.06,0.080956
3240.08,0.081017
3242.11,0.080982
3244.14,0.080948
3246.17,0.080913
3248.2,0.080965
3250.24,0.081031
3252.28,0.081111
3254.32,0.081104
3256.37,0.081071
3258.41,0.081143
3260.46,0.08117
3262.51,0.081184
3264.57,0.081258
3266.63,0.081292
3268.69,0.081319
3270.75,0.08139
3272.81,0.081455
3274.88,0.081511
3276.95,0.081457
3279.02,0.081465
3281.1,0.081566
3283.18,0.081542
3285.26,0.081586
3287.34,0.081677
3289.43,0.081677
3291.51,0.081726
3293.61,0.081754
3295.7,0.081789
3297.8,0.081843
3299.9,0.081858
3302.0,0.081847
3304.1,0.08175
3306.21,0.08164
3308.32,0.081787
3310.43,0.082008
3312.55,0.081934
3314.66,0.081862
3316.79,0.081769
3318.91,0.081693
3321.03,0.081757
3323.16,0.081817
3325.29,0.081883
3327.43,0.081861
3329.57,0.081791
3331.71,0.081791
3333.85,0.08181
3335.99,0.081798
3338.14,0.081804
3340.29,0.08189
3342.45,0.081932
3344.6,0.081961
3346.76,0.082018
3348.92,0.08193
3351.09,0.082001
3353.26,0.082026
3355.43,0.081894
3357.6,0.081921
3359.78,0.081991
3361.96,0.081939
3364.14,0.081903
3366.32,0.081918
3368.51,0.081923
3370.7,0.081889
3372.89,0.081908
3375.09,0.082013
3377.29,0.082087
3379.49,0.082175
3381.69,0.082181
3383.9,0.082092
3386.11,0.082064
3388.32,0.082124
3390.54,0.082198
3392.76,0.082243
3394.98,0.082183
3397.21,0.082123
3399.43,0.082117
3401.66,0.082157
3403.9,0.082205
3406.13,0.082201
3408.37,0.082124
3410.61,0.082052
3412.86,0.082084
3415.11,0.082165
3417.36,0.08219
3419.61,0.082156
3421.87,0.082254
3424.13,0.08233
3426.39,0.082234
3428.66,0.082341
3430.93,0.082473
3433.2,0.082384
3435.48,0.082424
3437.76,0.082549
3440.04,0.082602
3442.32,0.082682
3444.61,0.08268
3446.9,0.082648
3449.19,0.082612
3451.49,0.082612
3453.79,0.082734
3456.09,0.082785
3458.4,0.08276
3460.7,0.082768
3463.02,0.082795
3465.33,0.082755
3467.65,0.082788
3469.97,0.082828
3472.29,0.082825
3474.62,0.082859
3476.95,0.08282
3479.29,0.082782
3481.62,0.082813
3483.96,0.082935
3486.3,0.082976
3488.65,0.082933
3491.0,0.082888
3493.35,0.082936
3495.71,0.08305
3498.07,0.083076
3500.43,0.083106
3502.79,0.083167
3505.16,0.083223
3507.53,0.083331
3509.91,0.083382
3512.29,0.083355
3514.67,0.083403
3517.05,0.083426
3519.44,0.083493
3521.83,0.083623
3524.23,0.083696
3526.62,0.083671
3529.02,0.083729
3531.43,0.083852
3533.83,0.083935
3536.24,0.083968
3538.66,0.08403
3541.08,0.084036
3543.5,0.084058
3545.92,0.084092
3548.35,0.084099
3550.78,0.084175
3553.21,0.08425
3555.65,0.084369
3558.09,0.084398
3560.53,0.08442
3562.98,0.084421
3565.43,0.084426
3567.88,0.08448
3570.34,0.084537
3572.8,0.084517
3575.27,0.084445
3577.73,0.084525
3580.2,0.084578
3582.68,0.084576
3585.16,0.084605
3587.64,0.08467
3590.12,0.084785
3592.61,0.08489
3595.1,0.084839
3597.6,0.08477
3600.09,0.08477
3602.6,0.084929
3605.1,0.085003
3607.61,0.084973
3610.12,0.084944
3612.64,0.085022
3615.16,0.085106
3617.68,0.085085
3620.21,0.085049
3622.74,0.085113
3625.27,0.085208
3627.81,0.085239
3630.35,0.085252
3632.89,0.08532
3635.44,0.085341
3637.99,0.085283
3640.54,0.085306
3643.1,0.085344
3645.66,0.085338
3648.23,0.085304
3650.8,0.085264
3653.37,0.085374
3655.95,0.085505
3658.53,0.085468
3661.11,0.085466
3663.7,0.08551
3666.29,0.085537
3668.89,0.085592
3671.48,0.085649
3674.09,0.085659
3676.69,0.08567
3679.3,0.085704
3681.91,0.085702
3684.53,0.085671
3687.15,0.085719
3689.78,0.085769
3692.4,0.085833
3695.04,0.085874
3697.67,0.085805
3700.31,0.085834
3702.95,0.085905
3705.6,0.08594
3708.25,0.085993
3710.91,0.086062
3713.56,0.086061
3716.23,0.08603
3718.89,0.086027
3721.56,0.086044
3724.23,0.086121
3726.91,0.086173
3729.59,0.086208
3732.28,0.086213
3734.97,0.086236
3737.66,0.086225
3740.36,0.086228
3743.06,0.08625
3745.76,0.086354
3748.47,0.086374
3751.18,0.086406
3753.9,0.086357
3756.62,0.086269
3759.34,0.086307
3762.07,0.086417
3764.8,0.086483
3767.54,0.086531
3770.28,0.086486
3773.02,0.086459
3775.77,0.08651
3778.52,0.086529
3781.28,0.086453
3784.04,0.086488
3786.8,0.086549
3789.57,0.086614
3792.34,0.08664
3795.12,0.086626
3797.9,0.086646
3800.69,0.086582
3803.47,0.086575
3806.27,0.086612
3809.06,0.086638
3811.86,0.086669
3814.67,0.086625
3817.48,0.086602
3820.29,0.08666
3823.11,0.08667
3825.93,0.086707
3828.76,0.086721
3831.59,0.086716
3834.42,0.086756
3837.26,0.086769
3840.1,0.086854
3842.95,0.086922
3845.8,0.086988
3848.65,0.087031
3851.51,0.087058
3854.38,0.087065
3857.24,0.087098
3860.12,0.087139
3862.99,0.087203
3865.87,0.08724
3868.76,0.087249
3871.65,0.087249
3874.54,0.087274
3877.44,0.087283
3880.34,0.087251
3883.25,0.087191
3886.16,0.087215
3889.07,0.087261
3891.99,0.087323
3894.92,0.087329
3897.85,0.087321
3900.78,0.087412
3903.72,0.087485
3906.66,0.087462
3909.6,0.087394
3912.55,0.087425
3915.51,0.087441
3918.47,0.08745
3921.43,0.087453
3924.4,0.087491
3927.38,0.08751
3930.35,0.087469
3933.33,0.087486
3936.32,0.087483
3939.31,0.087479
3942.31,0.087467
3945.31,0.087473
3948.31,0.087488
3951.32,0.087458
3954.34,0.087506
3957.35,0.08752
3960.38,0.087423
3963.41,0.087392
3966.44,0.08742
3969.48,0.087439
3972.52,0.087487
3975.56,0.087536
3978.61,0.087552
3981.67,0.087544
3984.73,0.087566
3987.8,0.08768
3990.87,0.087752
3993.94,0.087716
3997.02,0.087753
4000.1,0.087843
4003.19,0.087913
4006.29,0.087944
4009.39,0.088006
4012.49,0.088092
4015.6,0.088242
4018.71,0.088367
4021.83,0.088412
4024.95,0.088439
4028.08,0.088459
4031.21,0.088537
4034.35,0.088647
4037.49,0.088682
4040.64,0.088715
4043.79,0.08881
4046.94,0.088837
4050.11,0.088879
4053.27,0.088956
4056.44,0.089053
4059.62,0.08909
4062.8,0.089107
4065.99,0.089169
4069.18,0.089242
4072.38,0.089214
4075.58,0.089221
4078.78,0.08925
4082.0,0.089318
4085.21,0.08935
4088.43,0.089313
4091.66,0.089321
4094.89,0.089374
4098.13,0.089442
4101.37,0.089491
4104.62,0.089507
4107.87,0.089562
4111.13,0.089599
4114.39,0.089626
4117.66,0.089638
4120.93,0.089662
4124.21,0.089694
4127.5,0.08972
4130.79,0.089719
4134.08,0.08969
4137.38,0.089724
4140.68,0.089771
4143.99,0.089786
4147.31,0.08982
4150.63,0.089861
4153.95,0.089932
4157.29,0.090009
4160.62,0.09004
4163.96,0.089981
4167.31,0.090001
4170.66,0.090097
4174.02,0.090117
4177.39,0.090138
4180.75,0.090159
4184.13,0.090203
4187.51,0.090271
4190.89,0.09028
4194.28,0.090295
4197.68,0.090333
4201.08,0.090355
4204.49,0.090415
4207.9,0.090533
4211.32,0.090627
4214.74,0.090734
4218.17,0.090834
4221.61,0.090932
4225.05,0.090947
4228.5,0.090959
4231.95,0.091102
4235.4,0.091174
4238.87,0.091219
4242.34,0.091202
4245.81,0.091161
4249.29,0.091143
4252.78,0.091093
4256.27,0.091005
4259.77,0.09099
4263.27,0.091089
4266.78,0.091219
4270.29,0.091259
4273.81,0.091303
4277.34,0.09132
4280.87,0.091349
4284.41,0.091444
4287.95,0.09148
4291.5,0.091471
4295.06,0.091449
4298.62,0.09148
4302.19,0.091465
4305.76,0.091462
4309.34,0.091464
4312.92,0.091447
4316.52,0.091504
4320.11,0.09155
4323.72,0.091528
4327.32,0.091493
4330.94,0.091449
4334.56,0.091461
4338.19,0.091531
4341.82,0.09153
4345.46,0.091556
4349.11,0.091666
4352.76,0.091695
4356.42,0.091642
4360.08,0.091672
4363.75,0.091732
4367.43,0.091804
4371.11,0.091886
4374.8,0.091904
4378.49,0.091883
4382.19,0.091915
4385.9,0.091933
4389.61,0.091954
4393.33,0.091992
4397.06,0.092019
4400.79,0.092049
4404.53,0.092054
4408.28,0.092101
4412.03,0.092132
4415.79,0.092166
4419.55,0.092205
4423.32,0.09223
4427.1,0.092249
4430.88,0.092203
4434.68,0.092235
4438.47,0.092341
4442.28,0.092356
4446.08,0.092338
4449.9,0.092351
4453.72,0.092378
4457.55,0.092412
4461.39,0.092505
4465.23,0.092549
4469.08,0.092498
4472.94,0.092506
4476.8,0.09257
4480.67,0.092623
4484.55,0.092656
4488.43,0.092706
4492.32,0.092731
4496.21,0.092705
4500.12,0.092775
4504.03,0.092856
4507.94,0.092871
4511.87,0.092869
4515.8,0.092865
4519.73,0.092879
4523.68,0.092886
4527.63,0.092925
4531.59,0.09297
4535.55,0.09299
4539.52,0.092985
4543.5,0.093009
4547.49,0.093091
4551.48,0.093121
4555.48,0.093134
4559.49,0.093171
4563.5,0.093185
4567.52,0.093197
4571.55,0.093224
4575.58,0.093247
4579.63,0.093206
4583.67,0.09324
4587.73,0.093279
4591.79,0.093296
4595.86,0.093314
4599.94,0.093362
4604.03,0.093389
4608.12,0.093416
4612.22,0.09341
4616.33,0.093428
4620.44,0.093474
4624.56,0.093458
4628.69,0.093432
4632.83,0.093422
4636.97,0.093438
4641.12,0.093452
4645.28,0.093469
4649.45,0.093481
4653.62,0.093492
4657.8,0.093531
4661.99,0.093547
4666.19,0.093573
4670.39,0.093594
4674.6,0.093618
4678.82,0.093625
4683.05,0.093664
4687.28,0.093719
4691.52,0.093759
4695.77,0.093804
4700.03,0.093827
4704.3,0.093837
4708.57,0.093836
4712.85,0.093873
4717.14,0.093964
4721.43,0.094032
4725.74,0.093999
4730.05,0.093994
4734.37,0.093971
4738.7,0.093993
4743.03,0.094077
4747.38,0.094144
4751.73,0.094165
4756.09,0.094158
4760.45,0.094134
4764.83,0.094124
4769.21,0.094149
4773.6,0.0942
4778.0,0.094285
4782.41,0.094293
4786.83,0.094261
4791.25,0.094274
4795.68,0.09429
4800.13,0.094291
4804.57,0.094269
4809.03,0.094288
4813.5,0.094307
4817.97,0.094321
4822.45,0.094352
4826.94,0.094386
4831.44,0.094424
4835.95,0.094491
4840.46,0.09455
4844.99,0.094542
4849.52,0.094564
4854.06,0.094603
4858.61,0.094612
4863.17,0.094653
4867.73,0.094682
4872.31,0.094713
4876.89,0.094731
4881.48,0.09477
4886.08,0.094805
4890.69,0.094831
4895.31,0.094889
4899.94,0.094954
4904.57,0.094959
4909.22,0.094926
4913.87,0.094929
4918.53,0.094959
4923.21,0.094995
4927.88,0.095054
4932.57,0.095108
4937.27,0.095076
4941.98,0.095073
4946.69,0.095129
4951.42,0.095156
4956.15,0.09518
4960.9,0.095194
4965.65,0.095222
4970.41,0.095228
4975.18,0.095189
4979.96,0.09525
4984.75,0.095253
4989.54,0.095222
4994.35,0.095279
4999.17,0.095306
5003.99,0.095298
5008.83,0.095332
5013.67,0.095376
5018.52,0.095401
5023.39,0.095442
5028.26,0.095491
5033.14,0.09551
5038.03,0.095567
5042.93,0.095689
5047.84,0.09581
5052.76,0.095875
5057.69,0.095917
5062.63,0.095959
5067.58,0.096019
5072.54,0.096031
5077.51,0.096069
5082.49,0.096125
5087.47,0.096147
5092.47,0.096147
5097.48,0.096197
5102.5,0.096241
5107.52,0.096246
5112.56,0.096247
5117.61,0.096295
5122.66,0.096337
5127.73,0.096388
5132.81,0.096423
5137.89,0.096407
5142.99,0.0964
5148.1,0.096425
5153.22,0.096459
5158.34,0.096518
5163.48,0.096514
5168.63,0.09649
5173.79,0.09653
5178.96,0.096558
5184.13,0.096604
5189.32,0.096625
5194.52,0.096589
5199.73,0.096573
5204.96,0.096608
5210.19,0.096616
5215.43,0.096631
5220.68,0.096588
5225.94,0.096642
5231.22,0.096734
5236.5,0.096754
5241.79,0.096769
5247.1,0.096726
5252.42,0.096708
5257.74,0.096771
5263.08,0.09681
5268.43,0.096788
5273.79,0.096764
5279.16,0.096809
5284.54,0.096846
5289.93,0.096855
5295.34,0.096876
5300.75,0.096814
5306.18,0.096819
5311.61,0.096851
5317.06,0.096883
5322.52,0.096933
5327.99,0.096935
5333.47,0.096918
5338.96,0.096956
5344.47,0.096983
5349.98,0.096986
5355.51,0.096916
5361.05,0.096866
5366.6,0.096885
5372.16,0.09694
5377.73,0.097014
5383.32,0.096989
5388.91,0.096948
5394.52,0.096989
5400.14,0.097002
5405.77,0.09701
5411.41,0.097025
5417.07,0.097017
5422.74,0.097029
5428.41,0.096943
5434.1,0.096944
5439.81,0.097003
5445.52,0.096976
5451.25,0.096944
5456.98,0.096915
5462.73,0.096935
5468.5,0.096872
5474.27,0.096749
5480.06,0.096758
5485.86,0.096665
5491.67,0.096579
5497.49,0.09662
5503.33,0.096565
5509.18,0.096468
5515.04,0.096369
5520.91,0.096339
5526.8,0.096342
5532.69,0.0963
5538.61,0.096266
5544.53,0.096352
5550.47,0.096436
5556.41,0.096494
5562.38,0.096532
5568.35,0.096667
5574.34,0.096824
5580.34,0.096937
5586.35,0.096876
5592.38,0.096917
5598.42,0.097079
5604.47,0.097158
5610.54,0.097178
5616.61,0.097267
5622.71,0.097292
5628.81,0.097303
5634.93,0.097351
5641.06,0.097428
5647.21,0.097432
5653.36,0.09736
5659.54,0.09743
5665.72,0.097439
5671.92,0.097545
5678.13,0.097618
5684.36,0.097544
5690.6,0.097617
5696.85,0.09772
5703.12,0.097737
5709.4,0.097887
5715.69,0.097899
5722.0,0.097877
5728.33,0.09796
5734.66,0.097973
5741.01,0.097999
5747.38,0.098037
5753.76,0.098085
5760.15,0.098084
5766.56,0.098309
5772.98,0.09815
5779.41,0.098015
5785.86,0.098164
5792.33,0.098148
5798.81,0.098184
5805.3,0.098246
5811.81,0.098277
5818.33,0.098398
5824.87,0.098443
5831.42,0.098232
5837.99,0.098169
5844.57,0.098183
5851.17,0.09825
5857.78,0.098273
5864.41,0.098272
5871.05,0.098228
5877.7,0.098304
5884.38,0.098462
5891.06,0.09802
5897.76,0.098148
5904.48,0.09806
5911.21,0.098
5917.96,0.098145
5924.73,0.098073
5931.5,0.098116
5938.3,0.098253
5945.11,0.097959
5951.93,0.097876
5958.78,0.098043
5965.63,0.098037
5972.51,0.098093
5979.39,0.097914
5986.3,0.098011
5993.22,0.098039
6000.16,0.097897
6007.11,0.097918
6014.08,0.098029
6021.06,0.097933
6028.06,0.097858
6035.08,0.09792
6042.12,0.097995
6049.17,0.098197
6056.23,0.097807
6063.32,0.097499
6070.42,0.097922
6077.53,0.097947
6084.67,0.097697
6091.82,0.09773
6098.98,0.097877
6106.17,0.097933
6113.37,0.098113
6120.58,0.097987
6127.82,0.097826
6135.07,0.097981
6142.34,0.098086
6149.63,0.098088
6156.93,0.098149
6164.25,0.098215
6171.59,0.09816
6178.95,0.098291
6186.32,0.098506
6193.71,0.098375
6201.12,0.098358
6208.54,0.098594
6215.99,0.098651
6223.45,0.098706
6230.93,0.098782
6238.43,0.098851
6245.95,0.098892
6253.48,0.098955
6261.03,0.099061
6268.6,0.09915
6276.19,0.099188
6283.8,0.099257
6291.43,0.099315
6299.07,0.099374
6306.73,0.099481
6314.42,0.099598
6322.12,0.099662
6329.84,0.099721
6337.57,0.099883
6345.33,0.10016
6353.11,0.100145
6360.9,0.100162
6368.72,0.100442
6376.55,0.100535
6384.4,0.100526
6392.27,0.100717
6400.17,0.100852
6408.08,0.101079
6416.01,0.101325
6423.96,0.100913
6431.93,0.100893
6439.92,0.101139
6447.93,0.101151
6455.96,0.101239
6464.01,0.101126
6472.08,0.101145
6480.17,0.101175
6488.28,0.101185
6496.41,0.101116
6504.56,0.100746
6512.73,0.100658
6520.92,0.100847
6529.14,0.10062
6537.37,0.100416
6545.63,0.100453
6553.9,0.100342
6562.2,0.100119
6570.51,0.100021
6578.85,0.099853
6587.21,0.099428
6595.59,0.099365
6603.99,0.099142
6612.42,0.099023
6620.86,0.098908
6629.33,0.098726
6637.82,0.098645
6646.33,0.098145
6654.86,0.097792
6663.41,0.097835
6671.99,0.097722
6680.59,0.097491
6689.21,0.097218
6697.85,0.096877
6706.51,0.096803
6715.2,0.096682
6723.91,0.09637
6732.64,0.09612
6741.4,0.095947
6750.18,0.095863
6758.98,0.095723
6767.8,0.095598
6776.65,0.095617
6785.52,0.095521
6794.41,0.095393
6803.33,0.095065
6812.27,0.094969
6821.23,0.095037
6830.22,0.095054
6839.23,0.094873
6848.26,0.094814
6857.32,0.094893
6866.4,0.094936
6875.51,0.094606
6884.64,0.094615
6893.8,0.094742
6902.98,0.094788
6912.18,0.09486
6921.41,0.094864
6930.66,0.094962
6939.94,0.095076
6949.24,0.095196
6958.57,0.095351
6967.92,0.095365
6977.3,0.095326
6986.7,0.0956
6996.13,0.095773
7005.59,0.095905
7015.07,0.096077
7024.57,0.096393
7034.1,0.096636
7043.66,0.096977
7053.25,0.097208
7062.85,0.097269
7072.49,0.097568
7082.15,0.097876
7091.84,0.098069
7101.55,0.09816
7111.3,0.09825
7121.06,0.098354
7130.86,0.098371
7140.68,0.098471
7150.53,0.098555
7160.41,0.098511
7170.31,0.098563
7180.24,0.098582
7190.2,0.098616
7200.19,0.098818
7210.2,0.098984
7220.24,0.09899
7230.31,0.099027
7240.41,0.099209
7250.54,0.099386
7260.69,0.099549
7270.88,0.099664
7281.09,0.099776
7291.33,0.099824
7301.6,0.099972
7311.9,0.100099
7322.22,0.100155
7332.58,0.100266
7342.97,0.10041
7353.38,0.100467
7363.83,0.100534
7374.3,0.100601
7384.81,0.100675
7395.34,0.100701
7405.91,0.100786
7416.5,0.100915
7427.13,0.100968
7437.78,0.100987
7448.47,0.101028
7459.19,0.101068
7469.94,0.101111
7480.71,0.101103
7491.52,0.101153
7502.37,0.1012
7513.24,0.10122
7524.14,0.101217
7535.08,0.101217
7546.05,0.10125
7557.05,0.101288
7568.08,0.101269
7579.15,0.101293
7590.24,0.101317
7601.37,0.101336
7612.53,0.101336
7623.73,0.10135
7634.96,0.101336
7646.22,0.101346
7657.51,0.101342
7668.84,0.101377
7680.2,0.101379
7691.59,0.101352
7703.02,0.101299
7714.49,0.101298
7725.98,0.101323
7737.52,0.101343
7749.08,0.101287
7760.68,0.101231
7772.32,0.101177
7783.99,0.101148
7795.69,0.101095
7807.43,0.101025
7819.21,0.100986
7831.02,0.100999
7842.87,0.100988
7854.75,0.100942
7866.67,0.100916
7878.62,0.100935
7890.62,0.100982
7902.64,0.101052
7914.71,0.101085
7926.81,0.101087
7938.95,0.101012
7951.13,0.100927
7963.34,0.100823
7975.59,0.100771
7987.88,0.100758
8000.21,0.100703
8012.57,0.100658
8024.98,0.100619
8037.42,0.100532
8049.9,0.100486
8062.42,0.100435
8074.98,0.100337
8087.57,0.100237
8100.21,0.10014
8112.89,0.10007
8125.6,0.100012
8138.36,0.099922
8151.16,0.099851
8163.99,0.099741
8176.87,0.099636
8189.79,0.099557
8202.75,0.099405
8215.75,0.099252
8228.79,0.099169
8241.87,0.099049
8254.99,0.098901
8268.16,0.098737
8281.37,0.098577
8294.62,0.098426
8307.91,0.098259
8321.24,0.098059
8334.62,0.09785
8348.04,0.097637
8361.51,0.097407
8375.02,0.097203
8388.57,0.096976
8402.16,0.096736
8415.8,0.096443
8429.49,0.09614
8443.22,0.095897
8456.99,0.095654
8470.81,0.095358
8484.67,0.095039
8498.58,0.094781
8512.54,0.094463
8526.54,0.094081
8540.58,0.09376
8554.68,0.093452
8568.82,0.093086
8583.0,0.092727
8597.24,0.092363
8611.52,0.092003
8625.85,0.09163
8640.23,0.09126
8654.65,0.090911
8669.12,0.090616
8683.64,0.09033
8698.21,0.090011
8712.83,0.08964
8727.5,0.089348
8742.22,0.089125
8756.99,0.088836
8771.8,0.088565
8786.67,0.088307
8801.59,0.087992
8816.56,0.087699
8831.58,0.087388
8846.65,0.087104
8861.77,0.086857
8876.94,0.086607
8892.17,0.086336
8907.45,0.086105
8922.78,0.085913
8938.16,0.085739
8953.6,0.08555
8969.09,0.085298
8984.64,0.085039
9000.23,0.084685
9015.89,0.084387
9031.59,0.084079
9047.36,0.083802
9063.17,0.083536
9079.05,0.083237
9094.97,0.082919
9110.96,0.08261
9127.0,0.082293
9143.1,0.081976
9159.25,0.081642
9175.46,0.081188
9191.73,0.080661
9208.06,0.080213
9224.44,0.079847
9240.88,0.079511
9257.38,0.079209
9273.94,0.07915
9290.56,0.079108
9307.24,0.078929
9323.98,0.078671
9340.78,0.078328
9357.64,0.077946
9374.57,0.077469
9391.55,0.076944
9408.59,0.076492
9425.7,0.076078
9442.87,0.075699
9460.1,0.075284
9477.4,0.074893
9494.75,0.074581
9512.17,0.074332
9529.66,0.074063
9547.21,0.073815
9564.83,0.073609
9582.5,0.073399
9600.25,0.073128
9618.06,0.072805
9635.94,0.072431
9653.88,0.072028
9671.89,0.071591
9689.97,0.071102
9708.12,0.070546
9726.33,0.07002
9744.62,0.069482
9762.97,0.069016
9781.39,0.068664
9799.88,0.068362
9818.44,0.068014
9837.07,0.067799
9855.77,0.067653
9874.54,0.06748
9893.39,0.067274
9912.3,0.067102
9931.29,0.066958
9950.36,0.066875
9969.49,0.066774
9988.7,0.066734
10007.98,0.066727
10027.34,0.066698
10046.77,0.06667
10066.28,0.066619
10085.87,0.06659
10105.53,0.066649
10125.26,0.066681
10145.08,0.06669
10164.97,0.066802
10184.94,0.066926
10204.99,0.067001
10225.12,0.067137
10245.33,0.067247
10265.61,0.067337
10285.98,0.067488
10306.43,0.067612
10326.96,0.067666
10347.57,0.067734
10368.27,0.067783
10389.05,0.067896
10409.91,0.068113
10430.86,0.068415
10451.88,0.068795
10473.0,0.069137
10494.2,0.069447
10515.49,0.069772
10536.86,0.070085
10558.32,0.070331
10579.87,0.070524
10601.5,0.070798
10623.23,0.071081
10645.04,0.071298
10666.94,0.071512
10688.94,0.071769
10711.02,0.071994
10733.2,0.072157
10755.47,0.072357
10777.83,0.072613
10800.28,0.072835
10822.83,0.073062
10845.47,0.073265
10868.21,0.073423
10891.04,0.07356
10913.97,0.073758
10936.99,0.073969
10960.12,0.074105
10983.34,0.074246
11006.66,0.074444
11030.07,0.074701
11053.59,0.074989
11077.21,0.075273
11100.93,0.075587
11124.75,0.07593
11148.68,0.076307
11172.71,0.076654
11196.84,0.076942
11221.07,0.077216
11245.41,0.077445
11269.86,0.077636
11294.41,0.077658
11319.07,0.077522
11343.84,0.077308
11368.72,0.077065
11393.7,0.076952
11418.8,0.076971
11444.01,0.077082
11469.33,0.07718
11494.76,0.07731
11520.3,0.077571
11545.96,0.077856
11571.73,0.078157
11597.62,0.078512
11623.62,0.078776
11649.74,0.078958
11675.98,0.079109
11702.34,0.079203
11728.81,0.079114
11755.41,0.078942
11782.13,0.078799
11808.96,0.078682
11835.92,0.078465
11863.01,0.078267
11890.22,0.0781
11917.55,0.077795
11945.01,0.077399
11972.6,0.077064
12000.31,0.076769
12028.16,0.076436
12056.13,0.076104
12084.23,0.075907
12112.46,0.075706
12140.83,0.07551
12169.33,0.075301
12197.96,0.075033
12226.73,0.074763
12255.64,0.074447
12284.68,0.074101
12313.86,0.073769
12343.18,0.073325
12372.64,0.072861
12402.24,0.07246
12431.98,0.072035
12461.86,0.071577
12491.89,0.071098
12522.07,0.070664
12552.38,0.070358
12582.85,0.070033
12613.47,0.069763
12644.23,0.069576
12675.15,0.069342
12706.21,0.069063
12737.43,0.068819
12768.81,0.068598
12800.33,0.068335
12832.02,0.06808
12863.86,0.067822
12895.86,0.06749
12928.02,0.067174
12960.34,0.066862
12992.82,0.066565
13025.46,0.066236
13058.27,0.065914
13091.25,0.065618
13124.39,0.065286
13157.7,0.064924
13191.18,0.064581
13224.83,0.064168
13258.66,0.063732
13292.65,0.063317
13326.83,0.062925
13361.17,0.062555
13395.7,0.062245
13430.4,0.061918
13465.29,0.061587
13500.35,0.061238
13535.6,0.060927
13571.03,0.060616
13606.65,0.060317
13642.46,0.060013
13678.46,0.059613
13714.64,0.059203
13751.02,0.058875
13787.59,0.058561
13824.36,0.05836
13861.32,0.05835
13898.49,0.058437
13935.85,0.058425
13973.41,0.058381
14011.17,0.058276
14049.15,0.058258
14087.32,0.058279
14125.71,0.058287
14164.3,0.058254
14203.11,0.058171
14242.13,0.058036
14281.36,0.057967
14320.81,0.057853
14360.49,0.057879
14400.38,0.057912
14440.49,0.057899
14480.82,0.058013
14521.39,0.058179
14562.18,0.058259
14603.2,0.058269
14644.45,0.058329
14685.93,0.058407
14727.66,0.058578
14769.62,0.058894
14811.81,0.059262
14854.25,0.059694
14896.94,0.060261
14939.87,0.060836
14983.05,0.061537
15026.48,0.062265
15070.16,0.062952
15114.1,0.063851
15158.29,0.064863
15202.74,0.065979
15247.46,0.067
15292.43,0.068085
15337.68,0.069251
15383.19,0.070572
15428.97,0.071791
15475.03,0.072827
15521.36,0.073778
15567.97,0.074687
15614.87,0.075591
15662.04,0.076516
15709.5,0.077378
15757.25,0.07824
15805.29,0.079051
15853.62,0.079706
15902.26,0.080461
15951.19,0.081294
16000.42,0.082101
16049.95,0.083025
16099.8,0.083985
16149.95,0.08497
16200.42,0.085895
16251.21,0.086848
16302.31,0.087783
16353.74,0.08872
16405.49,0.089605
16457.57,0.090395
16509.98,0.091074
16562.73,0.091883
16615.82,0.092578
16669.24,0.093267
16723.02,0.093966
16777.14,0.094734
16831.61,0.095437
16886.43,0.0961
16941.62,0.096662
16997.16,0.097164
17053.08,0.097635
17109.36,0.098238
17166.01,0.098863
17223.04,0.099428
17280.45,0.100082
17338.24,0.101118
17396.43,0.102292
17455.0,0.102818
17513.97,0.103623
17573.34,0.104553
17633.11,0.105372
17693.29,0.106192
17753.89,0.107094
17814.9,0.107735
17876.33,0.108134
17938.18,0.108632
18000.47,0.109135
18063.19,0.109316
18126.35,0.109174
18189.95,0.108785
18254.0,0.108252
18318.5,0.107764
18383.46,0.107209
18448.88,0.106518
18514.77,0.105743
18581.13,0.105097
18647.97,0.104434
18715.29,0.103638
18783.1,0.102793
18851.4,0.101834
18920.2,0.100911
18989.51,0.099881
19059.32,0.098759
19129.65,0.097604
19200.5,0.095912
19271.88,0.094271
19343.79,0.092759
19416.24,0.090899
19489.23,0.088659
19562.77,0.086618
19636.88,0.084706
19711.54,0.082604
19786.78,0.080618
19862.59,0.078826
19938.98,0.077294
20015.96,0.076165
20093.55,0.075392
20171.73,0.074919
20250.53,0.075055
20329.94,0.075882
20409.98,0.077327
20490.65,0.079276
20571.96,0.081174
20653.92,0.083118
20736.54,0.085188
20819.82,0.086843
20903.77,0.088301
20988.4,0.089668
21073.72,0.090729
21159.73,0.091614
21246.46,0.092309
21333.89,0.09264
21422.04,0.09294
21510.93,0.093502
21600.56,0.093665
21690.94,0.09387
21782.08,0.094231
21873.99,0.094662
21966.67,0.094831
22060.15,0.09486
22154.42,0.095136
22249.51,0.095204
22345.41,0.094977
22442.14,0.094766
22539.72,0.094554
22638.14,0.094191
22737.43,0.094195
22837.6,0.093682
22938.65,0.092992
23040.6,0.09218
23143.46,0.091358
23247.24,0.090558
23351.96,0.089416
23457.63,0.087888
23564.25,0.086291
23671.85,0.084803
23780.44,0.083497
23890.02,0.082721
24000.63,0.082744
24112.26,0.082225
24224.93,0.082026
24338.66,0.081974
24453.47,0.081357
24569.36,0.079826
24686.36,0.078963
24804.47,0.079949
24923.73,0.080145
25044.13,0.079674
25165.71,0.079716
25288.46,0.080776
25412.43,0.08171
25537.61,0.082381
25664.04,0.083794
25791.72,0.084434
25920.68,0.08473
