Database of Origin,University of Winnipeg Spectrophotometer Facility
Sample Description,9.2. MAGNETITE: Merged RELAB & Nicole / Merged at 2.5 um / different viewing geometry
Date Added,2016-07-15 22:03:00.268022

Data ID,RPN_MAG_12          
Sample ID,MAG112
Mineral Name,Magnetite
Grain Size,<45
Viewing Geometry,30 / 0 | 30
Resolution,1.2-129
Material Class,Magnetite

Wavelength
305.0,0.049998
310.0,0.0499
315.0,0.050209
320.0,0.051576
325.0,0.052016
330.0,0.051857
335.0,0.052239
340.0,0.051832
345.0,0.052261
350.0,0.052355
355.0,0.052651
360.0,0.052753
365.0,0.053029
370.0,0.052995
375.0,0.053467
380.0,0.053138
385.0,0.053512
390.0,0.053421
395.0,0.053612
400.0,0.053898
405.0,0.054299
410.0,0.053834
415.0,0.053371
420.0,0.053286
425.0,0.05373
430.0,0.053562
435.0,0.053685
440.0,0.053427
445.0,0.053291
450.0,0.052835
455.0,0.052553
460.0,0.052374
465.0,0.052412
470.0,0.052322
475.0,0.052502
480.0,0.052471
485.0,0.052404
490.0,0.052479
495.0,0.052419
500.0,0.05238
505.0,0.052425
510.0,0.05236
515.0,0.052364
520.0,0.052434
525.0,0.052478
530.0,0.052705
535.0,0.053576
540.0,0.053504
545.0,0.053556
550.0,0.053686
555.0,0.05381
560.0,0.053733
565.0,0.053829
570.0,0.053879
575.0,0.053908
580.0,0.053993
585.0,0.054123
590.0,0.054089
595.0,0.054129
600.0,0.054192
605.0,0.054348
610.0,0.054554
615.0,0.054791
620.0,0.054948
625.0,0.05508
630.0,0.055224
635.0,0.055192
640.0,0.055273
645.0,0.055305
650.0,0.05538
655.0,0.055084
660.0,0.055025
665.0,0.054869
670.0,0.054835
675.0,0.054817
680.0,0.054446
685.0,0.05437
690.0,0.054335
695.0,0.054085
700.0,0.053552
705.0,0.053284
710.0,0.053195
715.0,0.053105
720.0,0.053266
725.0,0.052911
730.0,0.052788
735.0,0.052755
740.0,0.052223
745.0,0.052178
750.0,0.05201
755.0,0.051889
760.0,0.051664
765.0,0.051609
770.0,0.051429
775.0,0.051122
780.0,0.050795
785.0,0.050749
790.0,0.050616
795.0,0.050324
800.0,0.050237
805.0,0.04969
810.0,0.049575
815.0,0.049806
820.0,0.049156
825.0,0.049312
830.0,0.048909
835.0,0.048509
840.0,0.048986
845.0,0.048309
850.0,0.047866
855.0,0.046733
860.0,0.047561
865.0,0.046798
870.0,0.046535
875.0,0.046929
880.0,0.04662
885.0,0.046717
890.0,0.046725
895.0,0.045844
900.0,0.046128
905.0,0.045496
910.0,0.046197
915.0,0.046782
920.0,0.04614
925.0,0.046147
930.0,0.045735
935.0,0.045627
940.0,0.045568
945.0,0.045273
950.0,0.045336
955.0,0.045187
960.0,0.044556
965.0,0.044678
970.0,0.044786
975.0,0.044734
980.0,0.044493
985.0,0.044326
990.0,0.044317
995.0,0.044315
1000.0,0.044232
1005.0,0.044041
1010.0,0.043863
1015.0,0.043621
1020.0,0.043516
1025.0,0.043763
1030.0,0.043511
1035.0,0.043828
1040.0,0.043199
1045.0,0.043255
1050.0,0.043572
1055.0,0.04381
1060.0,0.043844
1065.0,0.043444
1070.0,0.043388
1075.0,0.043386
1080.0,0.04351
1085.0,0.043129
1090.0,0.043172
1095.0,0.043348
1100.0,0.043263
1105.0,0.043328
1110.0,0.043709
1115.0,0.043464
1120.0,0.043362
1125.0,0.043541
1130.0,0.043725
1135.0,0.04384
1140.0,0.04379
1145.0,0.043963
1150.0,0.043979
1155.0,0.044287
1160.0,0.044246
1165.0,0.044413
1170.0,0.044369
1175.0,0.044648
1180.0,0.044484
1185.0,0.044729
1190.0,0.045117
1195.0,0.04492
1200.0,0.045252
1205.0,0.045436
1210.0,0.045613
1215.0,0.045875
1220.0,0.045877
1225.0,0.04592
1230.0,0.045643
1235.0,0.04604
1240.0,0.046098
1245.0,0.0463
1250.0,0.046274
1255.0,0.046166
1260.0,0.046508
1265.0,0.046614
1270.0,0.046881
1275.0,0.046988
1280.0,0.047084
1285.0,0.047092
1290.0,0.04734
1295.0,0.047422
1300.0,0.047694
1305.0,0.047892
1310.0,0.048167
1315.0,0.048022
1320.0,0.048303
1325.0,0.048456
1330.0,0.04868
1335.0,0.048846
1340.0,0.049255
1345.0,0.048956
1350.0,0.049327
1355.0,0.049376
1360.0,0.049682
1365.0,0.049616
1370.0,0.049928
1375.0,0.050144
1380.0,0.050628
1385.0,0.051129
1390.0,0.050746
1395.0,0.051545
1400.0,0.051121
1405.0,0.051492
1410.0,0.05158
1415.0,0.051872
1420.0,0.052345
1425.0,0.052555
1430.0,0.052772
1435.0,0.053045
1440.0,0.052791
1445.0,0.053113
1450.0,0.053421
1455.0,0.053602
1460.0,0.053806
1465.0,0.054047
1470.0,0.054414
1475.0,0.054585
1480.0,0.054336
1485.0,0.054867
1490.0,0.055293
1495.0,0.055292
1500.0,0.055424
1505.0,0.055573
1510.0,0.055723
1515.0,0.056056
1520.0,0.055934
1525.0,0.056412
1530.0,0.056259
1535.0,0.056766
1540.0,0.05657
1545.0,0.056553
1550.0,0.056603
1555.0,0.057239
1560.0,0.056953
1565.0,0.057552
1570.0,0.057705
1575.0,0.057683
1580.0,0.057845
1585.0,0.057785
1590.0,0.05859
1595.0,0.058256
1600.0,0.058412
1605.0,0.058583
1610.0,0.059191
1615.0,0.058684
1620.0,0.059037
1625.0,0.059051
1630.0,0.05938
1635.0,0.059454
1640.0,0.059621
1645.0,0.059701
1650.0,0.060156
1655.0,0.060269
1660.0,0.060258
1665.0,0.060586
1670.0,0.06102
1675.0,0.061511
1680.0,0.06157
1685.0,0.061278
1690.0,0.061777
1695.0,0.061763
1700.0,0.062141
1705.0,0.062259
1710.0,0.062233
1715.0,0.062545
1720.0,0.062476
1725.0,0.062568
1730.0,0.062908
1735.0,0.063035
1740.0,0.062982
1745.0,0.063131
1750.0,0.063312
1755.0,0.063272
1760.0,0.063576
1765.0,0.063532
1770.0,0.064052
1775.0,0.064256
1780.0,0.064241
1785.0,0.064085
1790.0,0.064299
1795.0,0.064774
1800.0,0.064328
1805.0,0.064802
1810.0,0.064929
1815.0,0.064894
1820.0,0.065278
1825.0,0.065377
1830.0,0.065574
1835.0,0.065748
1840.0,0.066074
1845.0,0.06605
1850.0,0.06635
1855.0,0.066335
1860.0,0.066307
1865.0,0.066662
1870.0,0.067096
1875.0,0.066812
1880.0,0.066601
1885.0,0.066684
1890.0,0.06692
1895.0,0.067416
1900.0,0.067621
1905.0,0.067549
1910.0,0.067492
1915.0,0.067643
1920.0,0.067841
1925.0,0.067663
1930.0,0.067931
1935.0,0.06789
1940.0,0.068034
1945.0,0.068023
1950.0,0.068204
1955.0,0.06832
1960.0,0.06875
1965.0,0.068531
1970.0,0.068646
1975.0,0.068852
1980.0,0.069135
1985.0,0.069133
1990.0,0.069147
1995.0,0.069152
2000.0,0.069559
2005.0,0.069407
2010.0,0.069429
2015.0,0.069552
2020.0,0.069605
2025.0,0.069927
2030.0,0.069973
2035.0,0.069969
2040.0,0.070149
2045.0,0.070121
2050.0,0.070372
2055.0,0.070363
2060.0,0.070722
2065.0,0.070652
2070.0,0.070688
2075.0,0.070788
2080.0,0.070853
2085.0,0.0713
2090.0,0.07133
2095.0,0.071571
2100.0,0.071389
2105.0,0.07144
2110.0,0.071489
2115.0,0.071721
2120.0,0.071579
2125.0,0.071786
2130.0,0.071759
2135.0,0.071716
2140.0,0.071857
2145.0,0.07195
2150.0,0.071928
2155.0,0.072226
2160.0,0.072226
2165.0,0.07193
2170.0,0.072279
2175.0,0.07229
2180.0,0.072288
2185.0,0.072285
2190.0,0.072637
2195.0,0.072803
2200.0,0.072708
2205.0,0.072823
2210.0,0.072945
2215.0,0.072958
2220.0,0.073136
2225.0,0.07332
2230.0,0.073229
2235.0,0.073188
2240.0,0.073209
2245.0,0.073421
2250.0,0.073706
2255.0,0.073656
2260.0,0.073734
2265.0,0.07387
2270.0,0.073733
2275.0,0.073883
2280.0,0.074193
2285.0,0.073871
2290.0,0.073894
2295.0,0.074056
2300.0,0.074539
2305.0,0.074725
2310.0,0.074644
2315.0,0.074341
2320.0,0.074655
2325.0,0.07467
2330.0,0.074861
2335.0,0.074835
2340.0,0.075068
2345.0,0.074772
2350.0,0.075164
2355.0,0.075157
2360.0,0.074993
2365.0,0.075238
2370.0,0.075347
2375.0,0.075172
2380.0,0.075294
2385.0,0.075649
2390.0,0.075538
2395.0,0.07572
2400.0,0.076171
2405.0,0.076296
2410.0,0.075926
2415.0,0.076082
2420.0,0.076298
2425.0,0.076198
2430.0,0.076386
2435.0,0.076316
2440.0,0.076305
2445.0,0.076404
2450.0,0.076413
2455.0,0.076155
2460.0,0.076529
2465.0,0.076343
2470.0,0.076435
2475.0,0.076789
2480.0,0.076598
2485.0,0.076821
2490.0,0.076555
2495.0,0.076667
2500.0,0.076771
2502.0,0.07674
2503.2,0.076492
2504.41,0.076325
2505.62,0.076853
2506.83,0.076936
2508.05,0.076826
2509.26,0.076805
2510.48,0.076691
2511.69,0.076605
2512.91,0.076683
2514.13,0.076787
2515.35,0.076755
2516.57,0.076739
2517.79,0.076605
2519.02,0.076617
2520.24,0.076868
2521.47,0.076909
2522.69,0.076968
2523.92,0.076914
2525.15,0.076683
2526.38,0.076704
2527.61,0.076619
2528.85,0.076389
2530.08,0.076392
2531.32,0.076599
2532.55,0.076901
2533.79,0.077006
2535.03,0.077047
2536.27,0.076826
2537.51,0.07671
2538.75,0.076709
2540.0,0.076501
2541.24,0.076398
2542.49,0.076566
2543.74,0.076799
2544.99,0.076912
2546.24,0.076875
2547.49,0.076771
2548.74,0.076476
2549.99,0.076481
2551.25,0.076484
2552.5,0.076385
2553.76,0.076428
2555.02,0.076495
2556.28,0.076487
2557.54,0.076565
2558.8,0.076651
2560.07,0.076586
2561.33,0.076523
2562.6,0.07662
2563.86,0.076777
2565.13,0.076695
2566.4,0.07661
2567.67,0.076708
2568.95,0.076647
2570.22,0.076646
2571.5,0.076641
2572.77,0.076612
2574.05,0.07646
2575.33,0.076678
2576.61,0.076592
2577.89,0.076401
2579.17,0.076703
2580.46,0.076919
2581.74,0.076842
2583.03,0.076586
2584.31,0.076604
2585.6,0.076605
2586.89,0.076482
2588.19,0.076315
2589.48,0.076365
2590.77,0.076658
2592.07,0.07677
2593.36,0.076578
2594.66,0.076394
2595.96,0.076403
2597.26,0.076872
2598.56,0.077066
2599.87,0.076881
2601.17,0.076567
2602.48,0.076511
2603.78,0.076669
2605.09,0.076534
2606.4,0.076669
2607.71,0.076681
2609.03,0.076572
2610.34,0.076525
2611.66,0.076544
2612.97,0.076492
2614.29,0.07664
2615.61,0.076518
2616.93,0.076333
2618.25,0.076419
2619.57,0.076502
2620.9,0.076279
2622.22,0.076388
2623.55,0.076495
2624.88,0.076244
2626.21,0.076283
2627.54,0.076536
2628.87,0.076594
2630.21,0.076314
2631.54,0.076325
2632.88,0.076637
2634.21,0.076466
2635.55,0.076198
2636.89,0.076247
2638.24,0.076404
2639.58,0.076415
2640.92,0.07638
2642.27,0.076347
2643.62,0.076378
2644.97,0.07633
2646.32,0.076388
2647.67,0.076561
2649.02,0.076586
2650.38,0.076411
2651.73,0.076321
2653.09,0.076368
2654.45,0.076383
2655.81,0.076289
2657.17,0.076308
2658.53,0.076304
2659.89,0.076261
2661.26,0.076313
2662.63,0.076426
2664.0,0.076411
2665.36,0.076219
2666.74,0.0762
2668.11,0.076254
2669.48,0.07633
2670.86,0.076356
2672.23,0.076304
2673.61,0.076335
2674.99,0.076075
2676.37,0.075753
2677.76,0.075756
2679.14,0.076086
2680.52,0.0762
2681.91,0.076397
2683.3,0.076372
2684.69,0.076044
2686.08,0.075898
2687.47,0.076084
2688.87,0.076159
2690.26,0.076048
2691.66,0.07609
2693.06,0.075904
2694.46,0.075782
2695.86,0.075766
2697.26,0.075926
2698.66,0.076109
2700.07,0.075926
2701.48,0.07578
2702.89,0.075895
2704.3,0.075986
2705.71,0.075874
2707.12,0.075871
2708.53,0.075785
2709.95,0.075687
2711.37,0.075532
2712.79,0.075535
2714.21,0.075471
2715.63,0.075314
2717.05,0.075165
2718.48,0.075114
2719.9,0.074992
2721.33,0.074697
2722.76,0.074749
2724.19,0.074672
2725.62,0.074491
2727.06,0.074265
2728.49,0.073869
2729.93,0.073607
2731.37,0.073527
2732.81,0.073405
2734.25,0.073372
2735.69,0.073309
2737.14,0.073157
2738.58,0.073108
2740.03,0.072958
2741.48,0.073038
2742.93,0.073182
2744.38,0.073109
2745.83,0.073077
2747.29,0.072975
2748.75,0.072815
2750.2,0.072857
2751.66,0.072778
2753.13,0.072676
2754.59,0.072419
2756.05,0.072313
2757.52,0.072591
2758.99,0.072736
2760.46,0.072671
2761.93,0.072676
2763.4,0.072509
2764.87,0.072541
2766.35,0.072654
2767.82,0.072718
2769.3,0.072706
2770.78,0.07279
2772.26,0.072776
2773.75,0.072787
2775.23,0.072744
2776.72,0.072862
2778.21,0.07289
2779.7,0.072762
2781.19,0.072718
2782.68,0.072932
2784.18,0.072929
2785.67,0.072918
2787.17,0.072941
2788.67,0.072933
2790.17,0.072939
2791.67,0.073065
2793.18,0.073027
2794.68,0.072857
2796.19,0.07268
2797.7,0.072751
2799.21,0.072926
2800.72,0.07294
2802.24,0.072895
2803.75,0.072812
2805.27,0.072864
2806.79,0.072837
2808.31,0.072758
2809.83,0.072675
2811.35,0.072715
2812.88,0.072908
2814.41,0.072909
2815.93,0.07281
2817.46,0.072723
2819.0,0.072785
2820.53,0.072778
2822.07,0.072725
2823.6,0.07271
2825.14,0.072751
2826.68,0.072812
2828.22,0.07289
2829.77,0.072887
2831.31,0.072967
2832.86,0.073027
2834.41,0.073095
2835.96,0.073129
2837.51,0.072944
2839.07,0.072758
2840.62,0.072848
2842.18,0.072785
2843.74,0.072761
2845.3,0.072781
2846.86,0.07295
2848.43,0.072865
2849.99,0.072785
2851.56,0.072838
2853.13,0.072813
2854.7,0.07282
2856.27,0.07278
2857.85,0.072757
2859.42,0.072831
2861.0,0.072727
2862.58,0.072914
2864.16,0.072966
2865.75,0.072953
2867.33,0.072944
2868.92,0.07298
2870.51,0.072947
2872.1,0.072767
2873.69,0.072741
2875.28,0.072744
2876.88,0.072771
2878.48,0.072885
2880.07,0.072763
2881.68,0.072708
2883.28,0.072603
2884.88,0.072523
2886.49,0.072573
2888.1,0.072634
2889.71,0.072547
2891.32,0.072539
2892.93,0.072506
2894.55,0.072559
2896.16,0.072467
2897.78,0.072459
2899.4,0.072528
2901.03,0.072488
2902.65,0.072355
2904.28,0.072315
2905.91,0.072324
2907.54,0.072346
2909.17,0.072494
2910.8,0.072671
2912.44,0.072498
2914.07,0.072476
2915.71,0.072462
2917.35,0.072388
2918.99,0.072421
2920.64,0.072474
2922.29,0.072353
2923.93,0.07238
2925.58,0.072548
2927.24,0.072453
2928.89,0.072317
2930.55,0.072346
2932.2,0.072365
2933.86,0.07234
2935.52,0.072359
2937.19,0.072461
2938.85,0.072482
2940.52,0.072322
2942.19,0.072228
2943.86,0.072405
2945.53,0.072579
2947.21,0.072557
2948.88,0.072431
2950.56,0.072387
2952.24,0.07235
2953.92,0.072428
2955.61,0.072506
2957.29,0.072573
2958.98,0.072514
2960.67,0.072469
2962.36,0.072594
2964.06,0.072451
2965.75,0.07231
2967.45,0.072308
2969.15,0.072385
2970.85,0.072506
2972.55,0.072484
2974.26,0.072398
2975.97,0.072417
2977.68,0.072511
2979.39,0.072564
2981.1,0.07258
2982.82,0.072627
2984.53,0.072622
2986.25,0.072557
2987.97,0.072528
2989.7,0.072525
2991.42,0.07264
2993.15,0.072666
2994.88,0.072743
2996.61,0.072793
2998.34,0.072681
3000.08,0.072699
3001.82,0.072792
3003.55,0.072757
3005.3,0.072816
3007.04,0.072828
3008.78,0.072656
3010.53,0.072622
3012.28,0.072659
3014.03,0.072777
3015.79,0.072842
3017.54,0.072801
3019.3,0.072822
3021.06,0.07289
3022.82,0.072848
3024.58,0.072744
3026.35,0.072826
3028.12,0.073033
3029.89,0.073079
3031.66,0.073038
3033.43,0.073018
3035.21,0.073074
3036.99,0.07303
3038.77,0.07294
3040.55,0.073003
3042.33,0.073073
3044.12,0.07314
3045.91,0.073179
3047.7,0.073173
3049.49,0.07308
3051.29,0.073124
3053.08,0.073252
3054.88,0.073259
3056.68,0.073179
3058.49,0.073146
3060.29,0.073273
3062.1,0.073378
3063.91,0.073346
3065.72,0.07341
3067.54,0.073334
3069.35,0.073267
3071.17,0.073244
3072.99,0.073413
3074.81,0.073451
3076.64,0.07339
3078.47,0.073309
3080.29,0.073392
3082.13,0.073504
3083.96,0.073434
3085.79,0.073405
3087.63,0.073471
3089.47,0.073497
3091.31,0.073455
3093.16,0.073353
3095.01,0.07333
3096.85,0.073342
3098.71,0.073418
3100.56,0.073422
3102.41,0.073336
3104.27,0.073336
3106.13,0.073435
3107.99,0.073522
3109.86,0.073532
3111.73,0.073613
3113.59,0.073722
3115.47,0.073709
3117.34,0.073703
3119.21,0.073646
3121.09,0.073457
3122.97,0.073411
3124.86,0.073626
3126.74,0.073718
3128.63,0.073648
3130.52,0.073601
3132.41,0.073614
3134.3,0.07364
3136.2,0.073556
3138.1,0.073439
3140.0,0.07355
3141.9,0.073637
3143.81,0.073726
3145.71,0.073812
3147.62,0.073849
3149.54,0.073767
3151.45,0.0738
3153.37,0.073691
3155.29,0.07363
3157.21,0.073642
3159.13,0.073694
3161.06,0.073721
3162.99,0.073732
3164.92,0.073703
3166.85,0.073721
3168.79,0.07374
3170.72,0.073722
3172.67,0.073664
3174.61,0.073648
3176.55,0.073586
3178.5,0.073628
3180.45,0.07368
3182.4,0.073753
3184.36,0.073908
3186.32,0.073868
3188.27,0.073772
3190.24,0.073766
3192.2,0.073734
3194.17,0.073743
3196.14,0.073852
3198.11,0.073905
3200.08,0.073874
3202.06,0.0739
3204.04,0.07383
3206.02,0.073776
3208.0,0.073818
3209.99,0.073833
3211.98,0.073854
3213.97,0.073939
3215.96,0.073865
3217.96,0.073808
3219.96,0.073814
3221.96,0.073816
3223.96,0.073932
3225.97,0.073952
3227.98,0.073882
3229.99,0.07391
3232.0,0.073914
3234.02,0.073901
3236.04,0.073893
3238.06,0.073974
3240.08,0.07402
3242.11,0.073985
3244.14,0.074011
3246.17,0.073922
3248.2,0.073835
3250.24,0.073827
3252.28,0.073885
3254.32,0.073946
3256.37,0.073896
3258.41,0.073844
3260.46,0.073882
3262.51,0.073885
3264.57,0.073985
3266.63,0.074078
3268.69,0.074088
3270.75,0.074076
3272.81,0.074023
3274.88,0.073993
3276.95,0.074065
3279.02,0.074048
3281.1,0.073973
3283.18,0.074029
3285.26,0.074065
3287.34,0.07399
3289.43,0.074001
3291.51,0.074062
3293.61,0.074065
3295.7,0.074092
3297.8,0.074033
3299.9,0.074067
3302.0,0.074119
3304.1,0.074166
3306.21,0.074162
3308.32,0.074217
3310.43,0.074191
3312.55,0.074085
3314.66,0.074115
3316.79,0.074165
3318.91,0.074131
3321.03,0.074222
3323.16,0.074317
3325.29,0.074311
3327.43,0.074295
3329.57,0.074195
3331.71,0.074111
3333.85,0.074154
3335.99,0.07414
3338.14,0.074145
3340.29,0.074146
3342.45,0.074078
3344.6,0.074024
3346.76,0.074058
3348.92,0.074124
3351.09,0.074182
3353.26,0.074253
3355.43,0.074232
3357.6,0.074298
3359.78,0.074326
3361.96,0.07431
3364.14,0.074375
3366.32,0.074385
3368.51,0.074394
3370.7,0.074434
3372.89,0.07449
3375.09,0.074548
3377.29,0.07454
3379.49,0.074486
3381.69,0.074476
3383.9,0.074404
3386.11,0.074421
3388.32,0.074486
3390.54,0.074405
3392.76,0.07439
3394.98,0.074559
3397.21,0.074617
3399.43,0.074585
3401.66,0.074581
3403.9,0.07457
3406.13,0.07466
3408.37,0.074712
3410.61,0.074612
3412.86,0.074636
3415.11,0.074734
3417.36,0.07476
3419.61,0.074686
3421.87,0.074649
3424.13,0.074685
3426.39,0.074629
3428.66,0.074683
3430.93,0.07479
3433.2,0.074801
3435.48,0.074759
3437.76,0.074736
3440.04,0.074719
3442.32,0.074744
3444.61,0.074773
3446.9,0.074696
3449.19,0.07472
3451.49,0.074765
3453.79,0.074698
3456.09,0.074677
3458.4,0.074767
3460.7,0.074774
3463.02,0.074733
3465.33,0.074738
3467.65,0.074782
3469.97,0.074836
3472.29,0.074841
3474.62,0.074798
3476.95,0.074754
3479.29,0.074772
3481.62,0.074738
3483.96,0.07472
3486.3,0.074785
3488.65,0.074831
3491.0,0.074839
3493.35,0.074868
3495.71,0.075054
3498.07,0.075003
3500.43,0.074907
3502.79,0.075015
3505.16,0.075073
3507.53,0.075082
3509.91,0.075003
3512.29,0.074992
3514.67,0.074986
3517.05,0.074993
3519.44,0.075012
3521.83,0.075052
3524.23,0.075062
3526.62,0.075101
3529.02,0.07505
3531.43,0.074961
3533.83,0.075005
3536.24,0.075036
3538.66,0.075064
3541.08,0.075116
3543.5,0.075072
3545.92,0.075107
3548.35,0.075107
3550.78,0.075058
3553.21,0.075041
3555.65,0.075114
3558.09,0.075149
3560.53,0.075223
3562.98,0.075214
3565.43,0.0752
3567.88,0.075219
3570.34,0.075248
3572.8,0.075264
3575.27,0.07522
3577.73,0.075234
3580.2,0.075243
3582.68,0.075231
3585.16,0.075314
3587.64,0.075392
3590.12,0.075434
3592.61,0.075436
3595.1,0.075494
3597.6,0.075467
3600.09,0.075405
3602.6,0.075488
3605.1,0.07549
3607.61,0.075507
3610.12,0.075574
3612.64,0.075551
3615.16,0.075516
3617.68,0.075552
3620.21,0.075567
3622.74,0.075538
3625.27,0.075553
3627.81,0.075595
3630.35,0.075663
3632.89,0.07569
3635.44,0.07577
3637.99,0.075836
3640.54,0.075775
3643.1,0.075709
3645.66,0.075734
3648.23,0.075759
3650.8,0.07582
3653.37,0.075852
3655.95,0.075805
3658.53,0.075789
3661.11,0.075843
3663.7,0.075947
3666.29,0.075994
3668.89,0.075996
3671.48,0.075956
3674.09,0.075993
3676.69,0.076062
3679.3,0.076054
3681.91,0.076032
3684.53,0.076063
3687.15,0.076112
3689.78,0.076073
3692.4,0.076004
3695.04,0.076097
3697.67,0.076155
3700.31,0.076217
3702.95,0.076257
3705.6,0.076243
3708.25,0.076192
3710.91,0.07617
3713.56,0.076196
3716.23,0.076247
3718.89,0.076321
3721.56,0.076357
3724.23,0.076302
3726.91,0.076296
3729.59,0.076389
3732.28,0.076426
3734.97,0.07638
3737.66,0.076457
3740.36,0.076497
3743.06,0.076467
3745.76,0.076405
3748.47,0.076422
3751.18,0.076517
3753.9,0.076602
3756.62,0.076649
3759.34,0.076701
3762.07,0.076739
3764.8,0.076747
3767.54,0.076836
3770.28,0.076834
3773.02,0.076728
3775.77,0.076717
3778.52,0.076779
3781.28,0.076868
3784.04,0.076827
3786.8,0.076805
3789.57,0.076847
3792.34,0.076867
3795.12,0.076948
3797.9,0.077011
3800.69,0.07703
3803.47,0.076968
3806.27,0.076939
3809.06,0.077047
3811.86,0.077145
3814.67,0.077165
3817.48,0.077141
3820.29,0.07713
3823.11,0.077202
3825.93,0.07724
3828.76,0.07724
3831.59,0.077329
3834.42,0.077334
3837.26,0.077317
3840.1,0.07738
3842.95,0.077432
3845.8,0.077425
3848.65,0.077424
3851.51,0.077439
3854.38,0.077455
3857.24,0.077455
3860.12,0.077408
3862.99,0.07748
3865.87,0.077525
3868.76,0.077516
3871.65,0.07756
3874.54,0.077577
3877.44,0.077603
3880.34,0.077654
3883.25,0.077714
3886.16,0.077663
3889.07,0.07767
3891.99,0.077717
3894.92,0.077725
3897.85,0.077709
3900.78,0.077672
3903.72,0.077772
3906.66,0.077892
3909.6,0.07785
3912.55,0.077794
3915.51,0.077782
3918.47,0.077877
3921.43,0.077954
3924.4,0.077896
3927.38,0.077932
3930.35,0.07798
3933.33,0.077969
3936.32,0.078013
3939.31,0.078087
3942.31,0.078103
3945.31,0.078078
3948.31,0.078046
3951.32,0.078071
3954.34,0.078166
3957.35,0.078283
3960.38,0.07833
3963.41,0.078282
3966.44,0.078278
3969.48,0.078318
3972.52,0.078366
3975.56,0.078409
3978.61,0.078375
3981.67,0.078352
3984.73,0.078388
3987.8,0.078418
3990.87,0.078516
3993.94,0.078597
3997.02,0.078591
4000.1,0.078564
4003.19,0.07855
4006.29,0.078593
4009.39,0.078655
4012.49,0.078713
4015.6,0.078745
4018.71,0.078761
4021.83,0.078794
4024.95,0.078851
4028.08,0.078879
4031.21,0.078923
4034.35,0.078919
4037.49,0.078945
4040.64,0.078984
4043.79,0.078988
4046.94,0.078991
4050.11,0.079011
4053.27,0.079044
4056.44,0.079143
4059.62,0.07922
4062.8,0.079188
4065.99,0.079141
4069.18,0.079146
4072.38,0.079176
4075.58,0.07922
4078.78,0.079251
4082.0,0.079253
4085.21,0.079245
4088.43,0.07926
4091.66,0.079372
4094.89,0.079436
4098.13,0.079459
4101.37,0.079505
4104.62,0.079539
4107.87,0.07956
4111.13,0.079574
4114.39,0.079566
4117.66,0.079561
4120.93,0.079575
4124.21,0.079602
4127.5,0.079651
4130.79,0.079663
4134.08,0.079699
4137.38,0.079768
4140.68,0.079855
4143.99,0.079842
4147.31,0.079804
4150.63,0.079827
4153.95,0.079852
4157.29,0.079889
4160.62,0.079952
4163.96,0.080029
4167.31,0.080074
4170.66,0.080057
4174.02,0.080082
4177.39,0.080071
4180.75,0.080077
4184.13,0.080155
4187.51,0.080257
4190.89,0.080286
4194.28,0.080261
4197.68,0.08025
4201.08,0.080322
4204.49,0.08035
4207.9,0.080262
4211.32,0.080287
4214.74,0.080432
4218.17,0.080434
4221.61,0.080382
4225.05,0.080407
4228.5,0.080449
4231.95,0.080521
4235.4,0.080591
4238.87,0.080624
4242.34,0.080592
4245.81,0.080628
4249.29,0.080702
4252.78,0.080721
4256.27,0.080744
4259.77,0.080786
4263.27,0.080887
4266.78,0.080924
4270.29,0.080905
4273.81,0.080939
4277.34,0.080989
4280.87,0.080984
4284.41,0.081007
4287.95,0.08107
4291.5,0.081105
4295.06,0.081119
4298.62,0.081146
4302.19,0.081199
4305.76,0.081251
4309.34,0.081328
4312.92,0.081411
4316.52,0.081457
4320.11,0.081425
4323.72,0.081405
4327.32,0.081441
4330.94,0.081491
4334.56,0.081533
4338.19,0.081557
4341.82,0.081609
4345.46,0.081613
4349.11,0.081662
4352.76,0.081732
4356.42,0.081776
4360.08,0.081811
4363.75,0.081896
4367.43,0.081931
4371.11,0.081898
4374.8,0.081885
4378.49,0.081935
4382.19,0.082009
4385.9,0.082077
4389.61,0.082129
4393.33,0.082143
4397.06,0.082116
4400.79,0.082113
4404.53,0.082197
4408.28,0.082233
4412.03,0.082218
4415.79,0.082264
4419.55,0.082354
4423.32,0.082422
4427.1,0.08244
4430.88,0.082428
4434.68,0.082493
4438.47,0.082595
4442.28,0.082632
4446.08,0.082574
4449.9,0.08256
4453.72,0.082631
4457.55,0.082716
4461.39,0.082715
4465.23,0.082745
4469.08,0.082805
4472.94,0.082832
4476.8,0.08284
4480.67,0.082874
4484.55,0.082898
4488.43,0.082931
4492.32,0.083017
4496.21,0.083113
4500.12,0.08309
4504.03,0.083025
4507.94,0.083074
4511.87,0.083124
4515.8,0.083199
4519.73,0.083207
4523.68,0.083245
4527.63,0.083312
4531.59,0.083323
4535.55,0.083334
4539.52,0.083417
4543.5,0.083463
4547.49,0.083466
4551.48,0.083485
4555.48,0.083585
4559.49,0.083636
4563.5,0.083646
4567.52,0.083685
4571.55,0.083726
4575.58,0.083743
4579.63,0.083755
4583.67,0.083825
4587.73,0.083828
4591.79,0.083836
4595.86,0.083911
4599.94,0.083938
4604.03,0.083913
4608.12,0.083973
4612.22,0.08404
4616.33,0.084043
4620.44,0.084089
4624.56,0.08414
4628.69,0.084199
4632.83,0.084226
4636.97,0.084242
4641.12,0.084217
4645.28,0.08425
4649.45,0.08431
4653.62,0.084333
4657.8,0.084325
4661.99,0.08437
4666.19,0.084481
4670.39,0.084509
4674.6,0.084485
4678.82,0.084516
4683.05,0.084558
4687.28,0.084655
4691.52,0.084678
4695.77,0.084656
4700.03,0.084687
4704.3,0.084737
4708.57,0.084809
4712.85,0.084834
4717.14,0.084823
4721.43,0.084881
4725.74,0.084964
4730.05,0.084984
4734.37,0.085025
4738.7,0.085053
4743.03,0.085042
4747.38,0.085074
4751.73,0.085128
4756.09,0.08517
4760.45,0.085214
4764.83,0.085253
4769.21,0.085279
4773.6,0.085335
4778.0,0.085354
4782.41,0.085415
4786.83,0.085473
4791.25,0.085493
4795.68,0.085516
4800.13,0.085525
4804.57,0.085574
4809.03,0.085628
4813.5,0.08565
4817.97,0.085692
4822.45,0.085722
4826.94,0.085751
4831.44,0.085793
4835.95,0.085827
4840.46,0.085841
4844.99,0.085862
4849.52,0.08591
4854.06,0.085977
4858.61,0.086008
4863.17,0.086006
4867.73,0.08603
4872.31,0.086051
4876.89,0.086082
4881.48,0.086162
4886.08,0.086182
4890.69,0.086167
4895.31,0.086178
4899.94,0.086192
4904.57,0.086247
4909.22,0.086323
4913.87,0.08631
4918.53,0.086305
4923.21,0.08637
4927.88,0.086417
4932.57,0.086464
4937.27,0.086516
4941.98,0.086499
4946.69,0.086549
4951.42,0.086606
4956.15,0.086616
4960.9,0.086637
4965.65,0.08668
4970.41,0.086685
4975.18,0.086715
4979.96,0.086772
4984.75,0.08679
4989.54,0.086812
4994.35,0.08686
4999.17,0.08693
5003.99,0.086998
5008.83,0.087027
5013.67,0.087071
5018.52,0.087087
5023.39,0.087137
5028.26,0.087155
5033.14,0.087154
5038.03,0.087207
5042.93,0.087275
5047.84,0.08735
5052.76,0.087371
5057.69,0.087399
5062.63,0.087439
5067.58,0.087506
5072.54,0.087586
5077.51,0.087592
5082.49,0.087589
5087.47,0.087612
5092.47,0.087648
5097.48,0.087744
5102.5,0.087842
5107.52,0.087837
5112.56,0.087868
5117.61,0.087918
5122.66,0.087961
5127.73,0.087977
5132.81,0.08801
5137.89,0.088043
5142.99,0.088054
5148.1,0.088065
5153.22,0.088151
5158.34,0.088222
5163.48,0.088236
5168.63,0.08827
5173.79,0.088285
5178.96,0.0883
5184.13,0.08835
5189.32,0.088409
5194.52,0.088443
5199.73,0.088433
5204.96,0.088426
5210.19,0.088486
5215.43,0.088525
5220.68,0.088582
5225.94,0.088632
5231.22,0.088634
5236.5,0.088662
5241.79,0.088727
5247.1,0.088779
5252.42,0.08878
5257.74,0.088744
5263.08,0.088743
5268.43,0.08875
5273.79,0.08878
5279.16,0.088857
5284.54,0.088898
5289.93,0.088915
5295.34,0.088919
5300.75,0.088939
5306.18,0.088964
5311.61,0.089019
5317.06,0.089039
5322.52,0.089059
5327.99,0.089108
5333.47,0.089145
5338.96,0.08915
5344.47,0.089187
5349.98,0.089237
5355.51,0.089301
5361.05,0.089337
5366.6,0.089347
5372.16,0.089357
5377.73,0.089387
5383.32,0.089459
5388.91,0.08952
5394.52,0.089563
5400.14,0.089628
5405.77,0.089695
5411.41,0.08977
5417.07,0.08986
5422.74,0.089878
5428.41,0.08992
5434.1,0.08998
5439.81,0.090023
5445.52,0.090053
5451.25,0.090082
5456.98,0.090127
5462.73,0.090178
5468.5,0.09024
5474.27,0.090281
5480.06,0.090303
5485.86,0.090369
5491.67,0.090405
5497.49,0.090398
5503.33,0.090351
5509.18,0.090399
5515.04,0.09048
5520.91,0.090523
5526.8,0.090537
5532.69,0.090564
5538.61,0.090621
5544.53,0.090648
5550.47,0.090655
5556.41,0.090704
5562.38,0.090763
5568.35,0.090809
5574.34,0.090854
5580.34,0.090893
5586.35,0.090932
5592.38,0.090964
5598.42,0.091007
5604.47,0.091063
5610.54,0.091102
5616.61,0.091144
5622.71,0.091168
5628.81,0.091172
5634.93,0.091253
5641.06,0.09132
5647.21,0.091384
5653.36,0.09142
5659.54,0.091433
5665.72,0.091482
5671.92,0.091513
5678.13,0.091563
5684.36,0.091624
5690.6,0.091677
5696.85,0.091722
5703.12,0.091772
5709.4,0.091846
5715.69,0.091952
5722.0,0.092024
5728.33,0.092046
5734.66,0.092069
5741.01,0.092148
5747.38,0.092201
5753.76,0.092312
5760.15,0.092361
5766.56,0.092386
5772.98,0.092486
5779.41,0.092507
5785.86,0.092482
5792.33,0.092499
5798.81,0.092532
5805.3,0.092567
5811.81,0.092606
5818.33,0.092666
5824.87,0.092779
5831.42,0.092851
5837.99,0.092828
5844.57,0.092816
5851.17,0.092819
5857.78,0.09286
5864.41,0.092909
5871.05,0.092979
5877.7,0.093005
5884.38,0.093125
5891.06,0.093169
5897.76,0.093169
5904.48,0.093261
5911.21,0.093249
5917.96,0.093235
5924.73,0.093224
5931.5,0.093274
5938.3,0.093393
5945.11,0.093489
5951.93,0.09347
5958.78,0.093452
5965.63,0.093486
5972.51,0.093627
5979.39,0.093656
5986.3,0.093671
5993.22,0.093737
6000.16,0.093766
6007.11,0.093782
6014.08,0.093823
6021.06,0.093893
6028.06,0.093917
6035.08,0.093962
6042.12,0.094034
6049.17,0.094135
6056.23,0.094285
6063.32,0.094281
6070.42,0.094264
6077.53,0.094292
6084.67,0.094322
6091.82,0.094292
6098.98,0.0943
6106.17,0.094332
6113.37,0.094394
6120.58,0.094458
6127.82,0.094422
6135.07,0.094466
6142.34,0.0945
6149.63,0.094539
6156.93,0.094581
6164.25,0.094625
6171.59,0.094653
6178.95,0.09465
6186.32,0.094711
6193.71,0.094794
6201.12,0.094791
6208.54,0.094794
6215.99,0.094786
6223.45,0.094819
6230.93,0.09487
6238.43,0.094902
6245.95,0.094905
6253.48,0.094962
6261.03,0.095028
6268.6,0.095071
6276.19,0.095113
6283.8,0.09515
6291.43,0.0952
6299.07,0.095248
6306.73,0.09528
6314.42,0.095299
6322.12,0.095304
6329.84,0.09534
6337.57,0.095391
6345.33,0.095478
6353.11,0.095615
6360.9,0.095634
6368.72,0.095603
6376.55,0.095686
6384.4,0.095784
6392.27,0.095836
6400.17,0.095881
6408.08,0.095915
6416.01,0.096073
6423.96,0.096227
6431.93,0.096206
6439.92,0.096209
6447.93,0.096223
6455.96,0.09626
6464.01,0.096292
6472.08,0.096335
6480.17,0.096362
6488.28,0.096401
6496.41,0.096538
6504.56,0.09662
6512.73,0.096545
6520.92,0.096518
6529.14,0.096591
6537.37,0.096595
6545.63,0.096557
6553.9,0.096582
6562.2,0.096664
6570.51,0.096704
6578.85,0.096799
6587.21,0.096833
6595.59,0.096827
6603.99,0.096832
6612.42,0.096847
6620.86,0.096838
6629.33,0.096869
6637.82,0.097001
6646.33,0.097111
6654.86,0.097039
6663.41,0.097003
6671.99,0.097057
6680.59,0.097146
6689.21,0.097196
6697.85,0.097156
6706.51,0.097188
6715.2,0.097271
6723.91,0.09729
6732.64,0.097312
6741.4,0.097326
6750.18,0.097343
6758.98,0.097404
6767.8,0.097465
6776.65,0.097509
6785.52,0.097524
6794.41,0.097622
6803.33,0.097671
6812.27,0.097661
6821.23,0.097708
6830.22,0.097774
6839.23,0.097805
6848.26,0.097816
6857.32,0.097893
6866.4,0.098004
6875.51,0.098083
6884.64,0.098034
6893.8,0.098024
6902.98,0.098041
6912.18,0.098116
6921.41,0.098138
6930.66,0.098155
6939.94,0.098146
6949.24,0.098158
6958.57,0.098212
6967.92,0.0983
6977.3,0.098275
6986.7,0.098253
6996.13,0.098275
7005.59,0.098304
7015.07,0.098318
7024.57,0.098388
7034.1,0.098436
7043.66,0.098494
7053.25,0.098554
7062.85,0.098596
7072.49,0.098682
7082.15,0.098743
7091.84,0.098753
7101.55,0.09875
7111.3,0.098792
7121.06,0.098905
7130.86,0.098997
7140.68,0.099008
7150.53,0.09903
7160.41,0.099106
7170.31,0.099167
7180.24,0.099203
7190.2,0.099219
7200.19,0.099211
7210.2,0.099205
7220.24,0.099278
7230.31,0.099313
7240.41,0.099354
7250.54,0.099364
7260.69,0.099399
7270.88,0.099458
7281.09,0.099521
7291.33,0.099539
7301.6,0.099548
7311.9,0.099595
7322.22,0.099625
7332.58,0.099649
7342.97,0.099726
7353.38,0.099774
7363.83,0.099787
7374.3,0.099814
7384.81,0.099857
7395.34,0.099889
7405.91,0.099898
7416.5,0.099916
7427.13,0.099968
7437.78,0.100031
7448.47,0.100074
7459.19,0.100102
7469.94,0.100161
7480.71,0.100192
7491.52,0.100232
7502.37,0.100259
7513.24,0.100273
7524.14,0.100281
7535.08,0.100305
7546.05,0.100337
7557.05,0.100398
7568.08,0.100419
7579.15,0.100446
7590.24,0.100476
7601.37,0.100518
7612.53,0.100525
7623.73,0.100532
7634.96,0.100564
7646.22,0.100608
7657.51,0.100611
7668.84,0.100644
7680.2,0.100728
7691.59,0.100791
7703.02,0.10084
7714.49,0.100911
7725.98,0.100982
7737.52,0.101062
7749.08,0.101087
7760.68,0.10109
7772.32,0.10113
7783.99,0.101169
7795.69,0.101171
7807.43,0.101231
7819.21,0.101287
7831.02,0.101325
7842.87,0.101338
7854.75,0.10136
7866.67,0.101467
7878.62,0.101593
7890.62,0.101663
7902.64,0.101743
7914.71,0.101851
7926.81,0.101914
7938.95,0.101914
7951.13,0.101908
7963.34,0.101906
7975.59,0.101949
7987.88,0.102013
8000.21,0.102047
8012.57,0.102052
8024.98,0.102093
8037.42,0.102149
8049.9,0.102215
8062.42,0.102262
8074.98,0.102292
8087.57,0.102301
8100.21,0.102301
8112.89,0.102375
8125.6,0.102415
8138.36,0.102485
8151.16,0.102541
8163.99,0.102608
8176.87,0.102689
8189.79,0.102776
8202.75,0.102888
8215.75,0.102923
8228.79,0.102974
8241.87,0.103062
8254.99,0.103142
8268.16,0.103162
8281.37,0.103158
8294.62,0.103156
8307.91,0.103195
8321.24,0.103215
8334.62,0.10324
8348.04,0.103275
8361.51,0.103347
8375.02,0.103375
8388.57,0.103382
8402.16,0.103386
8415.8,0.103441
8429.49,0.103489
8443.22,0.103487
8456.99,0.103498
8470.81,0.103554
8484.67,0.103576
8498.58,0.103633
8512.54,0.103719
8526.54,0.103836
8540.58,0.103914
8554.68,0.103975
8568.82,0.10403
8583.0,0.104063
8597.24,0.104043
8611.52,0.103983
8625.85,0.103956
8640.23,0.104039
8654.65,0.104175
8669.12,0.104407
8683.64,0.104646
8698.21,0.104838
8712.83,0.104995
8727.5,0.105183
8742.22,0.105357
8756.99,0.105488
8771.8,0.10569
8786.67,0.10589
8801.59,0.106023
8816.56,0.106195
8831.58,0.106327
8846.65,0.106486
8861.77,0.106602
8876.94,0.106718
8892.17,0.106897
8907.45,0.10706
8922.78,0.107185
8938.16,0.10735
8953.6,0.107493
8969.09,0.107584
8984.64,0.107729
9000.23,0.107822
9015.89,0.107852
9031.59,0.107967
9047.36,0.108084
9063.17,0.1082
9079.05,0.108281
9094.97,0.108343
9110.96,0.108424
9127.0,0.108529
9143.1,0.108608
9159.25,0.108659
9175.46,0.108705
9191.73,0.108718
9208.06,0.108719
9224.44,0.108756
9240.88,0.108785
9257.38,0.108832
9273.94,0.108827
9290.56,0.108807
9307.24,0.108767
9323.98,0.108663
9340.78,0.108621
9357.64,0.108547
9374.57,0.10835
9391.55,0.108152
9408.59,0.107941
9425.7,0.107734
9442.87,0.107542
9460.1,0.107404
9477.4,0.107316
9494.75,0.107222
9512.17,0.107163
9529.66,0.107117
9547.21,0.107154
9564.83,0.107255
9582.5,0.107344
9600.25,0.107415
9618.06,0.107501
9635.94,0.107569
9653.88,0.107554
9671.89,0.107575
9689.97,0.107569
9708.12,0.107505
9726.33,0.10747
9744.62,0.107433
9762.97,0.107369
9781.39,0.107225
9799.88,0.107116
9818.44,0.107023
9837.07,0.106888
9855.77,0.106787
9874.54,0.106705
9893.39,0.106649
9912.3,0.106534
9931.29,0.106392
9950.36,0.106282
9969.49,0.106235
9988.7,0.106138
10007.98,0.106008
10027.34,0.105884
10046.77,0.105797
10066.28,0.105691
10085.87,0.105595
10105.53,0.105534
10125.26,0.105498
10145.08,0.105379
10164.97,0.105258
10184.94,0.105243
10204.99,0.105214
10225.12,0.105083
10245.33,0.105009
10265.61,0.104923
10285.98,0.104866
10306.43,0.104784
10326.96,0.104778
10347.57,0.104814
10368.27,0.104771
10389.05,0.104742
10409.91,0.104777
10430.86,0.10481
10451.88,0.104852
10473.0,0.104883
10494.2,0.104875
10515.49,0.104842
10536.86,0.104908
10558.32,0.104964
10579.87,0.105004
10601.5,0.105063
10623.23,0.10516
10645.04,0.105286
10666.94,0.105401
10688.94,0.105489
10711.02,0.105549
10733.2,0.105675
10755.47,0.105857
10777.83,0.106021
10800.28,0.106218
10822.83,0.106285
10845.47,0.106386
10868.21,0.106549
10891.04,0.1067
10913.97,0.106819
10936.99,0.106964
10960.12,0.10717
10983.34,0.107302
11006.66,0.107368
11030.07,0.10745
11053.59,0.107621
11077.21,0.107772
11100.93,0.107834
11124.75,0.107891
11148.68,0.108049
11172.71,0.108203
11196.84,0.108258
11221.07,0.10834
11245.41,0.108466
11269.86,0.108594
11294.41,0.108651
11319.07,0.108717
11343.84,0.108825
11368.72,0.108993
11393.7,0.109104
11418.8,0.109217
11444.01,0.109393
11469.33,0.109486
11494.76,0.109579
11520.3,0.109667
11545.96,0.109718
11571.73,0.109827
11597.62,0.109893
11623.62,0.109903
11649.74,0.110049
11675.98,0.110227
11702.34,0.110322
11728.81,0.11034
11755.41,0.110358
11782.13,0.110362
11808.96,0.110315
11835.92,0.110362
11863.01,0.110344
11890.22,0.110303
11917.55,0.110252
11945.01,0.110137
11972.6,0.11005
12000.31,0.110075
12028.16,0.11005
12056.13,0.110065
12084.23,0.110082
12112.46,0.11015
12140.83,0.110213
12169.33,0.110218
12197.96,0.110259
12226.73,0.110326
12255.64,0.110388
12284.68,0.110413
12313.86,0.110373
12343.18,0.110414
12372.64,0.110447
12402.24,0.110477
12431.98,0.110623
12461.86,0.110791
12491.89,0.110858
12522.07,0.110894
12552.38,0.110964
12582.85,0.111006
12613.47,0.111083
12644.23,0.111148
12675.15,0.111216
12706.21,0.111394
12737.43,0.111494
12768.81,0.11164
12800.33,0.111789
12832.02,0.111888
12863.86,0.112036
12895.86,0.112157
12928.02,0.112243
12960.34,0.112281
12992.82,0.112275
13025.46,0.112357
13058.27,0.112376
13091.25,0.112405
13124.39,0.11256
13157.7,0.112711
13191.18,0.112784
13224.83,0.112886
13258.66,0.113068
13292.65,0.113236
13326.83,0.113328
13361.17,0.113566
13395.7,0.11385
13430.4,0.114006
13465.29,0.114132
13500.35,0.114306
13535.6,0.11465
13571.03,0.114914
13606.65,0.114987
13642.46,0.115051
13678.46,0.11514
13714.64,0.11525
13751.02,0.11534
13787.59,0.115408
13824.36,0.115521
13861.32,0.115718
13898.49,0.115885
13935.85,0.115958
13973.41,0.116047
14011.17,0.116163
14049.15,0.116234
14087.32,0.116296
14125.71,0.116389
14164.3,0.116548
14203.11,0.116649
14242.13,0.11674
14281.36,0.116863
14320.81,0.116869
14360.49,0.116884
14400.38,0.117031
14440.49,0.117209
14480.82,0.117412
14521.39,0.11763
14562.18,0.117853
14603.2,0.118061
14644.45,0.118232
14685.93,0.118327
14727.66,0.11862
14769.62,0.118928
14811.81,0.119234
14854.25,0.119453
14896.94,0.119697
14939.87,0.11994
14983.05,0.120287
15026.48,0.120598
15070.16,0.120757
15114.1,0.120844
15158.29,0.121001
15202.74,0.121262
15247.46,0.121554
15292.43,0.121766
15337.68,0.121952
15383.19,0.122169
15428.97,0.122334
15475.03,0.122459
15521.36,0.12272
15567.97,0.12297
15614.87,0.123193
15662.04,0.12351
15709.5,0.123761
15757.25,0.124043
15805.29,0.124281
15853.62,0.124493
15902.26,0.124844
15951.19,0.12516
16000.42,0.125471
16049.95,0.125893
16099.8,0.126424
16149.95,0.126705
16200.42,0.126961
16251.21,0.127417
16302.31,0.128015
16353.74,0.12871
16405.49,0.129364
16457.57,0.129932
16509.98,0.130686
16562.73,0.131453
16615.82,0.132228
16669.24,0.133013
16723.02,0.133884
16777.14,0.134756
16831.61,0.135657
16886.43,0.136455
16941.62,0.137569
16997.16,0.138948
17053.08,0.140235
17109.36,0.14145
17166.01,0.142868
17223.04,0.144317
17280.45,0.145734
17338.24,0.147435
17396.43,0.1497
17455.0,0.151625
17513.97,0.153388
17573.34,0.155565
17633.11,0.158067
17693.29,0.160408
17753.89,0.162589
17814.9,0.16465
17876.33,0.166336
17938.18,0.167373
18000.47,0.167858
18063.19,0.167603
18126.35,0.166901
18189.95,0.165789
18254.0,0.164186
18318.5,0.162249
18383.46,0.160291
18448.88,0.158261
18514.77,0.156099
18581.13,0.154318
18647.97,0.152746
18715.29,0.151082
18783.1,0.149734
18851.4,0.148626
18920.2,0.147611
18989.51,0.14673
19059.32,0.145972
19129.65,0.145129
19200.5,0.144602
19271.88,0.144252
19343.79,0.143936
19416.24,0.143746
19489.23,0.143596
19562.77,0.143444
19636.88,0.143243
19711.54,0.143148
19786.78,0.143357
19862.59,0.14355
19938.98,0.143623
20015.96,0.14372
20093.55,0.143837
20171.73,0.144035
20250.53,0.144141
20329.94,0.144494
20409.98,0.144932
20490.65,0.145393
20571.96,0.145609
20653.92,0.145655
20736.54,0.145964
20819.82,0.146284
20903.77,0.146422
20988.4,0.146619
21073.72,0.146936
21159.73,0.146842
21246.46,0.146764
21333.89,0.146835
21422.04,0.147004
21510.93,0.147031
21600.56,0.147137
21690.94,0.14713
21782.08,0.147233
21873.99,0.147487
21966.67,0.148063
22060.15,0.147583
22154.42,0.147293
22249.51,0.147789
22345.41,0.148199
22442.14,0.148187
22539.72,0.148524
22638.14,0.149145
22737.43,0.149509
22837.6,0.149362
22938.65,0.149801
23040.6,0.150029
23143.46,0.150131
23247.24,0.150553
23351.96,0.150604
23457.63,0.150548
23564.25,0.150835
23671.85,0.151113
23780.44,0.151338
23890.02,0.151499
24000.63,0.151966
24112.26,0.152364
24224.93,0.153606
24338.66,0.153922
24453.47,0.153169
24569.36,0.153654
24686.36,0.154969
24804.47,0.156215
24923.73,0.157357
25044.13,0.15754
25165.71,0.158978
25288.46,0.159893
25412.43,0.159598
25537.61,0.160029
25664.04,0.161776
25791.72,0.16336
25920.68,0.164878
