Database of Origin,University of Winnipeg Spectrophotometer Facility
Sample Description,8. Sulfates: RELAB + Nicolet spectra / Spectra all made consistently merged: Jan. / 10 / 2005
Date Added,2016-07-15 22:05:54.878552

Data ID,RPN_SUL_18          
Sample ID,SPT105
Mineral Name,ammonium sulfate (syn)
Grain Size,45-90
Viewing Geometry,30 / 0 | 30
Resolution,5 / 1.3-129
Material Class,Sulfate

Wavelength
305.0,0.608212
310.0,0.617845
315.0,0.624815
320.0,0.634411
325.0,0.641917
330.0,0.650393
335.0,0.659068
340.0,0.668942
345.0,0.67767
350.0,0.688189
355.0,0.695919
360.0,0.707829
365.0,0.718455
370.0,0.72759
375.0,0.734879
380.0,0.744184
385.0,0.752205
390.0,0.760515
395.0,0.767213
400.0,0.777744
405.0,0.78051
410.0,0.786035
415.0,0.793555
420.0,0.800736
425.0,0.802873
430.0,0.808903
435.0,0.812364
440.0,0.816484
445.0,0.819396
450.0,0.823081
455.0,0.824252
460.0,0.827266
465.0,0.833044
470.0,0.832527
475.0,0.834913
480.0,0.837634
485.0,0.841065
490.0,0.840309
495.0,0.843507
500.0,0.844954
505.0,0.849542
510.0,0.84811
515.0,0.850741
520.0,0.853613
525.0,0.856275
530.0,0.85752
535.0,0.857932
540.0,0.859085
545.0,0.860513
550.0,0.864421
555.0,0.867099
560.0,0.867701
565.0,0.868654
570.0,0.871686
575.0,0.873796
580.0,0.874467
585.0,0.877238
590.0,0.876378
595.0,0.878077
600.0,0.879217
605.0,0.87824
610.0,0.878335
615.0,0.880384
620.0,0.877822
625.0,0.878667
630.0,0.87936
635.0,0.877802
640.0,0.875944
645.0,0.878155
650.0,0.87799
655.0,0.879021
660.0,0.878814
665.0,0.877638
670.0,0.879494
675.0,0.875763
680.0,0.877247
685.0,0.877147
690.0,0.876596
695.0,0.877918
700.0,0.877591
705.0,0.87536
710.0,0.874648
715.0,0.876377
720.0,0.873063
725.0,0.8749
730.0,0.873256
735.0,0.873522
740.0,0.872298
745.0,0.873567
750.0,0.873163
755.0,0.87211
760.0,0.870162
765.0,0.871251
770.0,0.870458
775.0,0.869713
780.0,0.868792
785.0,0.869338
790.0,0.867882
795.0,0.865765
800.0,0.865695
805.0,0.864223
810.0,0.865628
815.0,0.864033
820.0,0.863427
825.0,0.863804
830.0,0.867219
835.0,0.865414
840.0,0.865682
845.0,0.864217
850.0,0.865928
855.0,0.867045
860.0,0.868036
865.0,0.868244
870.0,0.867423
875.0,0.869962
880.0,0.87136
885.0,0.869851
890.0,0.868653
895.0,0.866698
900.0,0.862975
905.0,0.868088
910.0,0.863483
915.0,0.862369
920.0,0.863993
925.0,0.864564
930.0,0.864314
935.0,0.864547
940.0,0.865198
945.0,0.867417
950.0,0.865512
955.0,0.867119
960.0,0.866818
965.0,0.867692
970.0,0.867653
975.0,0.866976
980.0,0.866002
985.0,0.868963
990.0,0.867935
995.0,0.866358
1000.0,0.863577
1005.0,0.862605
1010.0,0.8583
1015.0,0.854879
1020.0,0.850013
1025.0,0.845507
1030.0,0.840152
1035.0,0.833739
1040.0,0.826012
1045.0,0.819801
1050.0,0.812728
1055.0,0.809705
1060.0,0.811632
1065.0,0.807432
1070.0,0.81258
1075.0,0.812927
1080.0,0.816627
1085.0,0.823548
1090.0,0.824823
1095.0,0.828975
1100.0,0.833041
1105.0,0.836634
1110.0,0.840897
1115.0,0.843419
1120.0,0.848531
1125.0,0.848372
1130.0,0.851824
1135.0,0.852502
1140.0,0.853654
1145.0,0.852532
1150.0,0.854052
1155.0,0.853775
1160.0,0.851009
1165.0,0.851802
1170.0,0.849989
1175.0,0.845494
1180.0,0.84204
1185.0,0.841037
1190.0,0.834242
1195.0,0.825813
1200.0,0.818241
1205.0,0.807143
1210.0,0.792537
1215.0,0.778947
1220.0,0.761981
1225.0,0.75053
1230.0,0.735641
1235.0,0.728529
1240.0,0.717776
1245.0,0.707333
1250.0,0.698355
1255.0,0.690122
1260.0,0.682777
1265.0,0.675598
1270.0,0.672979
1275.0,0.669861
1280.0,0.673553
1285.0,0.671677
1290.0,0.671579
1295.0,0.675321
1300.0,0.674233
1305.0,0.678728
1310.0,0.67998
1315.0,0.683393
1320.0,0.686692
1325.0,0.692536
1330.0,0.69357
1335.0,0.701285
1340.0,0.705132
1345.0,0.708044
1350.0,0.710049
1355.0,0.716829
1360.0,0.717214
1365.0,0.723184
1370.0,0.725425
1375.0,0.727478
1380.0,0.728725
1385.0,0.732501
1390.0,0.734561
1395.0,0.732621
1400.0,0.73329
1405.0,0.734634
1410.0,0.734911
1415.0,0.732309
1420.0,0.732351
1425.0,0.726831
1430.0,0.722882
1435.0,0.717503
1440.0,0.712336
1445.0,0.702142
1450.0,0.692222
1455.0,0.683503
1460.0,0.671694
1465.0,0.659849
1470.0,0.646386
1475.0,0.632664
1480.0,0.618612
1485.0,0.601657
1490.0,0.584964
1495.0,0.568144
1500.0,0.550868
1505.0,0.531116
1510.0,0.510466
1515.0,0.488179
1520.0,0.467828
1525.0,0.441341
1530.0,0.417396
1535.0,0.39402
1540.0,0.372433
1545.0,0.353745
1550.0,0.337078
1555.0,0.320233
1560.0,0.307285
1565.0,0.295802
1570.0,0.290429
1575.0,0.288352
1580.0,0.292565
1585.0,0.300182
1590.0,0.30696
1595.0,0.317938
1600.0,0.328658
1605.0,0.337596
1610.0,0.346312
1615.0,0.355464
1620.0,0.363751
1625.0,0.369816
1630.0,0.373117
1635.0,0.376404
1640.0,0.378157
1645.0,0.380924
1650.0,0.387552
1655.0,0.393863
1660.0,0.400381
1665.0,0.408446
1670.0,0.41808
1675.0,0.425735
1680.0,0.433038
1685.0,0.439815
1690.0,0.445759
1695.0,0.45169
1700.0,0.458348
1705.0,0.464265
1710.0,0.468952
1715.0,0.474104
1720.0,0.478046
1725.0,0.482417
1730.0,0.486267
1735.0,0.488663
1740.0,0.49155
1745.0,0.492284
1750.0,0.493661
1755.0,0.495323
1760.0,0.49453
1765.0,0.494306
1770.0,0.493321
1775.0,0.493059
1780.0,0.492072
1785.0,0.489935
1790.0,0.489331
1795.0,0.486124
1800.0,0.483459
1805.0,0.481996
1810.0,0.47973
1815.0,0.476845
1820.0,0.473386
1825.0,0.471998
1830.0,0.4673
1835.0,0.465999
1840.0,0.46109
1845.0,0.456671
1850.0,0.451365
1855.0,0.446781
1860.0,0.440353
1865.0,0.434791
1870.0,0.427328
1875.0,0.420669
1880.0,0.412832
1885.0,0.404906
1890.0,0.396234
1895.0,0.388487
1900.0,0.378826
1905.0,0.370017
1910.0,0.360868
1915.0,0.350834
1920.0,0.340299
1925.0,0.330478
1930.0,0.319565
1935.0,0.309483
1940.0,0.297276
1945.0,0.285516
1950.0,0.272823
1955.0,0.25795
1960.0,0.242077
1965.0,0.226095
1970.0,0.209233
1975.0,0.19241
1980.0,0.175013
1985.0,0.156154
1990.0,0.137939
1995.0,0.120032
2000.0,0.103744
2005.0,0.089887
2010.0,0.080493
2015.0,0.074203
2020.0,0.069166
2025.0,0.066008
2030.0,0.06357
2035.0,0.061417
2040.0,0.059921
2045.0,0.058666
2050.0,0.057171
2055.0,0.056819
2060.0,0.056401
2065.0,0.055638
2070.0,0.055425
2075.0,0.053863
2080.0,0.05132
2085.0,0.049064
2090.0,0.04653
2095.0,0.044316
2100.0,0.041653
2105.0,0.038923
2110.0,0.035951
2115.0,0.033264
2120.0,0.031572
2125.0,0.030093
2130.0,0.02895
2135.0,0.028785
2140.0,0.028389
2145.0,0.028753
2150.0,0.028711
2155.0,0.029204
2160.0,0.029897
2165.0,0.031237
2170.0,0.032754
2175.0,0.034545
2180.0,0.037073
2185.0,0.039691
2190.0,0.042574
2195.0,0.046162
2200.0,0.049383
2205.0,0.052854
2210.0,0.056104
2215.0,0.059315
2220.0,0.062768
2225.0,0.066551
2230.0,0.070574
2235.0,0.074297
2240.0,0.077609
2245.0,0.080993
2250.0,0.085083
2255.0,0.089489
2260.0,0.093426
2265.0,0.097867
2270.0,0.102511
2275.0,0.106381
2280.0,0.110671
2285.0,0.11547
2290.0,0.119182
2295.0,0.123185
2300.0,0.127455
2305.0,0.131856
2310.0,0.136333
2315.0,0.139189
2320.0,0.14268
2325.0,0.147417
2330.0,0.151824
2335.0,0.156195
2340.0,0.161446
2345.0,0.167297
2350.0,0.173558
2355.0,0.17956
2360.0,0.185117
2365.0,0.190867
2370.0,0.196385
2375.0,0.202813
2380.0,0.20966
2385.0,0.216098
2390.0,0.221307
2395.0,0.228288
2400.0,0.235801
2405.0,0.243687
2410.0,0.250482
2415.0,0.257933
2420.0,0.264787
2425.0,0.270217
2430.0,0.274182
2435.0,0.279345
2440.0,0.283718
2445.0,0.287262
2450.0,0.289948
2455.0,0.291148
2460.0,0.291205
2465.0,0.291941
2470.0,0.29076
2475.0,0.288749
2480.0,0.286688
2485.0,0.286415
2490.0,0.283986
2495.0,0.281017
2500.0,0.278156
2505.0,0.276104
2510.0,0.274265
2515.0,0.268572
2520.0,0.265966
2525.0,0.263058
2530.0,0.259667
2535.0,0.257127
2540.0,0.252817
2545.0,0.247791
2550.0,0.244353
2555.0,0.239066
2560.0,0.235387
2565.13,0.230064
2570.22,0.225078
2575.33,0.221513
2580.46,0.216111
2581.74,0.215409
2583.03,0.214397
2584.31,0.212821
2585.6,0.212112
2586.89,0.210552
2588.19,0.208629
2589.48,0.20749
2590.77,0.206604
2592.07,0.20537
2593.36,0.203659
2594.66,0.201451
2595.96,0.201477
2597.26,0.201608
2598.56,0.200603
2599.87,0.198979
2601.17,0.197157
2602.48,0.195468
2603.78,0.194352
2605.09,0.193004
2606.4,0.192179
2607.71,0.191518
2609.03,0.19051
2610.34,0.189085
2611.66,0.187187
2612.97,0.185384
2614.29,0.185144
2615.61,0.18434
2616.93,0.182568
2618.25,0.181527
2619.57,0.180416
2620.9,0.17921
2622.22,0.178526
2623.55,0.176517
2624.88,0.175015
2626.21,0.173884
2627.54,0.173197
2628.87,0.171568
2630.21,0.169263
2631.54,0.168702
2632.88,0.168753
2634.21,0.1679
2635.55,0.166666
2636.89,0.164981
2638.24,0.162974
2639.58,0.16076
2640.92,0.159625
2642.27,0.159049
2643.62,0.157939
2644.97,0.156324
2646.32,0.155311
2647.67,0.154477
2649.02,0.152713
2650.38,0.151006
2651.73,0.149428
2653.09,0.147883
2654.45,0.147059
2655.81,0.145082
2657.17,0.143647
2658.53,0.143232
2659.89,0.142926
2661.26,0.141265
2662.63,0.138822
2664.0,0.137257
2665.36,0.136039
2666.74,0.135079
2668.11,0.135217
2669.48,0.13382
2670.86,0.130787
2672.23,0.1287
2673.61,0.127577
2674.99,0.126599
2676.37,0.125519
2677.76,0.124549
2679.14,0.122959
2680.52,0.120919
2681.91,0.119943
2683.3,0.118323
2684.69,0.117083
2686.08,0.116071
2687.47,0.114506
2688.87,0.113281
2690.26,0.111884
2691.66,0.109772
2693.06,0.107831
2694.46,0.106769
2695.86,0.105591
2697.26,0.104555
2698.66,0.102546
2700.07,0.100683
2701.48,0.099828
2702.89,0.098671
2704.3,0.097485
2705.71,0.096034
2707.12,0.094294
2708.53,0.09286
2709.95,0.092073
2711.37,0.090769
2712.79,0.089248
2714.21,0.088164
2715.63,0.087579
2717.05,0.085511
2718.48,0.084167
2719.9,0.083221
2721.33,0.08098
2722.76,0.079656
2724.19,0.078717
2725.62,0.077542
2727.06,0.076502
2728.49,0.075384
2729.93,0.074228
2731.37,0.072695
2732.81,0.071308
2734.25,0.070624
2735.69,0.069637
2737.14,0.068281
2738.58,0.067473
2740.03,0.06717
2741.48,0.066047
2742.93,0.064136
2744.38,0.062808
2745.83,0.062835
2747.29,0.062465
2748.75,0.061128
2750.2,0.059808
2751.66,0.058714
2753.13,0.058
2754.59,0.057139
2756.05,0.056278
2757.52,0.056187
2758.99,0.055743
2760.46,0.054864
2761.93,0.054162
2763.4,0.05287
2764.87,0.051899
2766.35,0.052003
2767.82,0.050971
2769.3,0.050094
2770.78,0.049874
2772.26,0.048847
2773.75,0.04756
2775.23,0.047242
2776.72,0.047129
2778.21,0.046543
2779.7,0.046357
2781.19,0.045815
2782.68,0.044885
2784.18,0.043872
2785.67,0.043157
2787.17,0.043132
2788.67,0.042327
2790.17,0.042085
2791.67,0.04244
2793.18,0.042435
2794.68,0.041346
2796.19,0.040179
2797.7,0.039668
2799.21,0.039762
2800.72,0.039712
2802.24,0.03945
2803.75,0.039098
2805.27,0.038556
2806.79,0.037599
2808.31,0.036896
2809.83,0.036461
2811.35,0.035664
2812.88,0.035277
2814.41,0.035371
2815.93,0.035011
2817.46,0.034559
2819.0,0.034489
2820.53,0.034062
2822.07,0.032897
2823.6,0.032368
2825.14,0.032128
2826.68,0.03202
2828.22,0.031725
2829.77,0.031217
2831.31,0.031278
2832.86,0.031654
2834.41,0.030289
2835.96,0.02966
2837.51,0.030396
2839.07,0.030468
2840.62,0.029619
2842.18,0.028988
2843.74,0.028357
2845.3,0.027988
2846.86,0.027937
2848.43,0.027726
2849.99,0.028233
2851.56,0.02864
2853.13,0.027866
2854.7,0.027146
2856.27,0.027424
2857.85,0.027335
2859.42,0.026371
2861.0,0.025361
2862.58,0.025274
2864.16,0.025614
2865.75,0.025306
2867.33,0.025249
2868.92,0.02507
2870.51,0.024121
2872.1,0.023633
2873.69,0.024088
2875.28,0.023924
2876.88,0.023837
2878.48,0.023988
2880.07,0.023801
2881.68,0.023249
2883.28,0.022834
2884.88,0.022739
2886.49,0.022658
2888.1,0.022292
2889.71,0.021353
2891.32,0.020972
2892.93,0.021415
2894.55,0.021642
2896.16,0.021258
2897.78,0.021181
2899.4,0.021866
2901.03,0.021688
2902.65,0.020447
2904.28,0.02016
2905.91,0.020496
2907.54,0.019906
2909.17,0.019922
2910.8,0.020066
2912.44,0.019791
2914.07,0.019199
2915.71,0.018846
2917.35,0.018348
2918.99,0.018299
2920.64,0.018401
2922.29,0.018617
2923.93,0.01892
2925.58,0.018166
2927.24,0.017577
2928.89,0.01778
2930.55,0.017746
2932.2,0.017675
2933.86,0.0179
2935.52,0.017224
2937.19,0.015882
2938.85,0.016384
2940.52,0.016493
2942.19,0.016199
2943.86,0.016075
2945.53,0.015892
2947.21,0.015782
2948.88,0.015955
2950.56,0.015639
2952.24,0.015287
2953.92,0.015376
2955.61,0.014817
2957.29,0.01432
2958.98,0.014671
2960.67,0.014623
2962.36,0.014487
2964.06,0.013947
2965.75,0.013345
2967.45,0.013381
2969.15,0.013442
2970.85,0.013181
2972.55,0.012887
2974.26,0.012464
2975.97,0.01249
2977.68,0.012389
2979.39,0.011964
2981.1,0.011829
2982.82,0.011758
2984.53,0.011708
2986.25,0.011418
2987.97,0.011416
2989.7,0.011732
2991.42,0.011959
2993.15,0.011798
2994.88,0.011314
2996.61,0.0112
2998.34,0.011209
3000.08,0.010889
3001.82,0.011128
3003.55,0.011027
3005.3,0.010801
3007.04,0.01069
3008.78,0.010989
3010.53,0.01126
3012.28,0.011867
3014.03,0.012477
3015.79,0.012682
3017.54,0.012583
3019.3,0.012468
3021.06,0.012733
3022.82,0.012935
3024.58,0.012974
3026.35,0.013289
3028.12,0.013722
3029.89,0.014386
3031.66,0.014832
3033.43,0.014909
3035.21,0.014754
3036.99,0.014584
3038.77,0.014808
3040.55,0.014898
3042.33,0.015056
3044.12,0.015449
3045.91,0.01612
3047.7,0.016861
3049.49,0.017217
3051.29,0.017595
3053.08,0.017583
3054.88,0.017331
3056.68,0.017788
3058.49,0.018063
3060.29,0.018284
3062.1,0.018989
3063.91,0.019517
3065.72,0.019203
3067.54,0.019167
3069.35,0.019332
3071.17,0.019778
3072.99,0.020686
3074.81,0.020875
3076.64,0.020958
3078.47,0.021191
3080.29,0.021267
3082.13,0.021408
3083.96,0.021932
3085.79,0.022341
3087.63,0.022508
3089.47,0.023451
3091.31,0.023877
3093.16,0.023822
3095.01,0.023597
3096.85,0.023432
3098.71,0.023674
3100.56,0.024093
3102.41,0.024717
3104.27,0.024919
3106.13,0.025052
3107.99,0.025186
3109.86,0.025409
3111.73,0.025285
3113.59,0.02544
3115.47,0.025937
3117.34,0.026251
3119.21,0.026214
3121.09,0.025974
3122.97,0.025463
3124.86,0.025233
3126.74,0.025696
3128.63,0.025742
3130.52,0.025498
3132.41,0.02532
3134.3,0.02569
3136.2,0.026058
3138.1,0.026256
3140.0,0.026266
3141.9,0.026292
3143.81,0.02603
3145.71,0.025626
3147.62,0.025544
3149.54,0.025962
3151.45,0.026392
3153.37,0.02602
3155.29,0.02569
3157.21,0.025877
3159.13,0.02604
3161.06,0.025865
3162.99,0.025673
3164.92,0.026215
3166.85,0.026759
3168.79,0.026368
3170.72,0.026084
3172.67,0.026073
3174.61,0.026028
3176.55,0.025923
3178.5,0.025713
3180.45,0.025849
3182.4,0.026045
3184.36,0.026074
3186.32,0.025933
3188.27,0.025716
3190.24,0.025417
3192.2,0.025688
3194.17,0.025889
3196.14,0.025367
3198.11,0.025119
3200.08,0.025242
3202.06,0.025566
3204.04,0.025856
3206.02,0.025893
3208.0,0.025697
3209.99,0.025453
3211.98,0.025687
3213.97,0.0258
3215.96,0.025749
3217.96,0.025738
3219.96,0.025744
3221.96,0.0259
3223.96,0.025923
3225.97,0.025715
3227.98,0.02582
3229.99,0.026016
3232.0,0.02533
3234.02,0.025021
3236.04,0.02548
3238.06,0.025602
3240.08,0.025762
3242.11,0.026192
3244.14,0.026427
3246.17,0.026544
3248.2,0.026214
3250.24,0.026144
3252.28,0.026276
3254.32,0.026244
3256.37,0.026795
3258.41,0.02748
3260.46,0.027835
3262.51,0.02767
3264.57,0.027249
3266.63,0.027023
3268.69,0.027079
3270.75,0.027366
3272.81,0.02771
3274.88,0.027701
3276.95,0.027922
3279.02,0.027984
3281.1,0.0278
3283.18,0.027751
3285.26,0.027819
3287.34,0.028267
3289.43,0.028635
3291.51,0.028861
3293.61,0.029188
3295.7,0.028939
3297.8,0.028596
3299.9,0.028419
3302.0,0.028237
3304.1,0.028576
3306.21,0.028933
3308.32,0.028935
3310.43,0.029072
3312.55,0.029196
3314.66,0.029065
3316.79,0.029074
3318.91,0.029195
3321.03,0.029631
3323.16,0.029734
3325.29,0.02937
3327.43,0.029712
3329.57,0.029756
3331.71,0.029641
3333.85,0.029613
3335.99,0.029665
3338.14,0.029839
3340.29,0.029548
3342.45,0.029611
3344.6,0.029869
3346.76,0.029741
3348.92,0.029823
3351.09,0.029635
3353.26,0.029511
3355.43,0.029795
3357.6,0.02995
3359.78,0.029551
3361.96,0.029115
3364.14,0.029463
3366.32,0.029992
3368.51,0.030283
3370.7,0.030263
3372.89,0.029935
3375.09,0.029981
3377.29,0.030113
3379.49,0.030298
3381.69,0.029968
3383.9,0.03013
3386.11,0.030429
3388.32,0.029972
3390.54,0.030176
3392.76,0.030404
3394.98,0.030378
3397.21,0.030377
3399.43,0.030113
3401.66,0.030008
3403.9,0.030149
3406.13,0.030347
3408.37,0.030166
3410.61,0.030026
3412.86,0.030152
3415.11,0.029993
3417.36,0.02996
3419.61,0.030237
3421.87,0.03021
3424.13,0.030401
3426.39,0.030214
3428.66,0.029574
3430.93,0.029735
3433.2,0.030386
3435.48,0.030409
3437.76,0.030152
3440.04,0.029798
3442.32,0.02963
3444.61,0.029856
3446.9,0.029706
3449.19,0.029377
3451.49,0.029493
3453.79,0.029749
3456.09,0.02975
3458.4,0.029628
3460.7,0.029523
3463.02,0.029686
3465.33,0.029958
3467.65,0.030052
3469.97,0.030013
3472.29,0.029917
3474.62,0.030097
3476.95,0.030437
3479.29,0.030246
3481.62,0.029745
3483.96,0.029837
3486.3,0.030142
3488.65,0.030118
3491.0,0.029763
3493.35,0.029926
3495.71,0.030424
3498.07,0.030567
3500.43,0.030632
3502.79,0.030613
3505.16,0.030858
3507.53,0.03112
3509.91,0.030735
3512.29,0.030575
3514.67,0.030858
3517.05,0.030864
3519.44,0.030652
3521.83,0.030474
3524.23,0.030363
3526.62,0.030656
3529.02,0.030983
3531.43,0.031024
3533.83,0.031256
3536.24,0.031351
3538.66,0.031617
3541.08,0.031631
3543.5,0.031345
3545.92,0.03128
3548.35,0.031144
3550.78,0.031304
3553.21,0.03147
3555.65,0.031525
3558.09,0.031714
3560.53,0.031979
3562.98,0.031896
3565.43,0.031815
3567.88,0.031981
3570.34,0.032136
3572.8,0.031907
3575.27,0.031769
3577.73,0.032032
3580.2,0.032035
3582.68,0.031756
3585.16,0.031845
3587.64,0.031752
3590.12,0.031883
3592.61,0.032315
3595.1,0.032247
3597.6,0.032118
3600.09,0.032168
3602.6,0.032312
3605.1,0.032696
3607.61,0.033058
3610.12,0.032939
3612.64,0.032818
3615.16,0.032786
3617.68,0.03239
3620.21,0.032379
3622.74,0.032665
3625.27,0.032813
3627.81,0.032811
3630.35,0.032924
3632.89,0.03259
3635.44,0.032618
3637.99,0.032962
3640.54,0.032805
3643.1,0.032609
3645.66,0.032656
3648.23,0.03272
3650.8,0.032665
3653.37,0.032661
3655.95,0.033078
3658.53,0.033293
3661.11,0.033094
3663.7,0.033105
3666.29,0.033209
3668.89,0.03287
3671.48,0.032689
3674.09,0.032951
3676.69,0.03316
3679.3,0.033089
3681.91,0.03302
3684.53,0.033168
3687.15,0.033338
3689.78,0.033404
3692.4,0.033429
3695.04,0.033603
3697.67,0.033657
3700.31,0.033221
3702.95,0.033448
3705.6,0.033749
3708.25,0.033784
3710.91,0.033778
3713.56,0.033615
3716.23,0.033519
3718.89,0.033404
3721.56,0.033272
3724.23,0.033576
3726.91,0.033796
3729.59,0.033925
3732.28,0.033881
3734.97,0.033995
3737.66,0.03407
3740.36,0.034173
3743.06,0.034192
3745.76,0.033936
3748.47,0.034024
3751.18,0.034195
3753.9,0.034284
3756.62,0.034254
3759.34,0.034321
3762.07,0.034678
3764.8,0.034676
3767.54,0.03478
3770.28,0.034936
3773.02,0.034754
3775.77,0.034679
3778.52,0.034844
3781.28,0.035129
3784.04,0.035123
3786.8,0.035122
3789.57,0.035116
3792.34,0.035198
3795.12,0.03534
3797.9,0.035269
3800.69,0.035347
3803.47,0.035512
3806.27,0.035696
3809.06,0.035746
3811.86,0.035808
3814.67,0.036004
3817.48,0.036049
3820.29,0.036131
3823.11,0.036486
3825.93,0.037022
3828.76,0.037161
3831.59,0.036839
3834.42,0.036811
3837.26,0.037016
3840.1,0.037273
3842.95,0.037499
3845.8,0.037649
3848.65,0.037946
3851.51,0.038173
3854.38,0.038236
3857.24,0.038174
3860.12,0.038105
3862.99,0.038179
3865.87,0.038409
3868.76,0.038729
3871.65,0.039025
3874.54,0.039041
3877.44,0.039283
3880.34,0.039773
3883.25,0.03993
3886.16,0.040085
3889.07,0.04046
3891.99,0.040842
3894.92,0.041045
3897.85,0.041232
3900.78,0.04146
3903.72,0.04146
3906.66,0.041375
3909.6,0.041588
3912.55,0.042049
3915.51,0.042433
3918.47,0.042628
3921.43,0.04287
3924.4,0.043263
3927.38,0.043361
3930.35,0.043385
3933.33,0.043641
3936.32,0.044179
3939.31,0.044515
3942.31,0.044739
3945.31,0.045269
3948.31,0.045836
3951.32,0.046061
3954.34,0.046143
3957.35,0.046404
3960.38,0.046786
3963.41,0.047111
3966.44,0.047385
3969.48,0.047785
3972.52,0.047891
3975.56,0.048175
3978.61,0.048655
3981.67,0.049088
3984.73,0.049464
3987.8,0.049861
3990.87,0.050313
3993.94,0.050783
3997.02,0.050956
4000.1,0.051095
4003.19,0.051621
4006.29,0.052137
4009.39,0.05233
4012.49,0.052624
4015.6,0.053299
4018.71,0.053955
4021.83,0.054319
4024.95,0.054661
4028.08,0.055025
4031.21,0.055538
4034.35,0.055891
4037.49,0.056496
4040.64,0.057032
4043.79,0.057068
4046.94,0.057471
4050.11,0.058215
4053.27,0.058708
4056.44,0.058987
4059.62,0.059305
4062.8,0.059836
4065.99,0.060427
4069.18,0.061194
4072.38,0.061598
4075.58,0.061841
4078.78,0.062463
4082.0,0.06283
4085.21,0.063238
4088.43,0.063647
4091.66,0.063918
4094.89,0.064336
4098.13,0.064723
4101.37,0.065259
4104.62,0.065633
4107.87,0.065753
4111.13,0.066181
4114.39,0.066686
4117.66,0.067044
4120.93,0.067352
4124.21,0.067698
4127.5,0.068159
4130.79,0.068737
4134.08,0.069168
4137.38,0.069317
4140.68,0.06961
4143.99,0.070132
4147.31,0.070406
4150.63,0.070703
4153.95,0.071143
4157.29,0.071484
4160.62,0.071779
4163.96,0.072136
4167.31,0.072783
4170.66,0.073123
4174.02,0.073333
4177.39,0.073725
4180.75,0.074199
4184.13,0.074376
4187.51,0.074457
4190.89,0.074915
4194.28,0.075294
4197.68,0.075424
4201.08,0.075602
4204.49,0.075886
4207.9,0.076177
4211.32,0.076547
4214.74,0.076831
4218.17,0.077075
4221.61,0.077255
4225.05,0.077692
4228.5,0.078086
4231.95,0.077937
4235.4,0.07801
4238.87,0.078481
4242.34,0.078726
4245.81,0.078856
4249.29,0.078634
4252.78,0.078741
4256.27,0.079018
4259.77,0.078911
4263.27,0.07895
4266.78,0.079074
4270.29,0.079054
4273.81,0.078932
4277.34,0.078866
4280.87,0.07864
4284.41,0.078298
4287.95,0.078158
4291.5,0.078192
4295.06,0.078419
4298.62,0.078679
4302.19,0.078728
4305.76,0.078487
4309.34,0.078469
4312.92,0.07856
4316.52,0.078249
4320.11,0.077889
4323.72,0.077705
4327.32,0.077478
4330.94,0.077277
4334.56,0.07698
4338.19,0.076777
4341.82,0.076527
4345.46,0.076324
4349.11,0.076549
4352.76,0.076333
4356.42,0.075973
4360.08,0.075855
4363.75,0.07563
4367.43,0.075468
4371.11,0.075175
4374.8,0.074978
4378.49,0.074879
4382.19,0.074556
4385.9,0.074222
4389.61,0.073734
4393.33,0.07328
4397.06,0.072774
4400.79,0.072392
4404.53,0.072182
4408.28,0.071845
4412.03,0.071288
4415.79,0.070763
4419.55,0.070494
4423.32,0.070145
4427.1,0.069882
4430.88,0.069352
4434.68,0.068942
4438.47,0.068633
4442.28,0.068088
4446.08,0.067331
4449.9,0.06692
4453.72,0.066602
4457.55,0.066149
4461.39,0.065605
4465.23,0.065088
4469.08,0.064795
4472.94,0.064646
4476.8,0.064078
4480.67,0.063236
4484.55,0.062769
4488.43,0.062524
4492.32,0.062216
4496.21,0.061775
4500.12,0.061352
4504.03,0.060916
4507.94,0.060377
4511.87,0.060074
4515.8,0.059799
4519.73,0.059031
4523.68,0.058557
4527.63,0.058465
4531.59,0.058268
4535.55,0.05785
4539.52,0.057509
4543.5,0.057245
4547.49,0.056873
4551.48,0.056726
4555.48,0.056441
4559.49,0.056113
4563.5,0.055857
4567.52,0.055778
4571.55,0.055795
4575.58,0.055264
4579.63,0.054609
4583.67,0.054349
4587.73,0.054322
4591.79,0.053996
4595.86,0.053605
4599.94,0.0533
4604.03,0.053182
4608.12,0.053129
4612.22,0.052852
4616.33,0.052302
4620.44,0.052026
4624.56,0.051705
4628.69,0.051431
4632.83,0.051255
4636.97,0.050912
4641.12,0.050417
4645.28,0.050277
4649.45,0.050187
4653.62,0.049901
4657.8,0.049653
4661.99,0.049579
4666.19,0.049292
4670.39,0.048903
4674.6,0.048427
4678.82,0.048181
4683.05,0.047882
4687.28,0.047404
4691.52,0.047103
4695.77,0.046793
4700.03,0.046405
4704.3,0.045962
4708.57,0.045349
4712.85,0.044564
4717.14,0.04393
4721.43,0.043256
4725.74,0.042692
4730.05,0.042201
4734.37,0.041422
4738.7,0.040918
4743.03,0.040697
4747.38,0.040346
4751.73,0.03997
4756.09,0.039457
4760.45,0.038996
4764.83,0.038844
4769.21,0.038678
4773.6,0.038541
4778.0,0.038235
4782.41,0.038315
4786.83,0.038091
4791.25,0.037676
4795.68,0.037524
4800.13,0.037193
4804.57,0.036827
4809.03,0.036629
4813.5,0.036548
4817.97,0.036088
4822.45,0.035688
4826.94,0.035613
4831.44,0.035372
4835.95,0.03505
4840.46,0.034916
4844.99,0.034896
4849.52,0.03466
4854.06,0.034265
4858.61,0.034078
4863.17,0.033969
4867.73,0.033561
4872.31,0.033414
4876.89,0.033538
4881.48,0.033704
4886.08,0.033587
4890.69,0.033322
4895.31,0.033324
4899.94,0.033418
4904.57,0.033399
4909.22,0.033816
4913.87,0.034162
4918.53,0.03437
4923.21,0.034301
4927.88,0.034558
4932.57,0.034968
4937.27,0.035136
4941.98,0.035241
4946.69,0.035309
4951.42,0.035642
4956.15,0.03591
4960.9,0.035774
4965.65,0.035863
4970.41,0.035942
4975.18,0.03606
4979.96,0.036348
4984.75,0.036313
4989.54,0.036416
4994.35,0.036626
4999.17,0.0366
5003.99,0.036597
5008.83,0.036545
5013.67,0.036619
5018.52,0.036813
5023.39,0.036955
5028.26,0.037149
5033.14,0.037285
5038.03,0.037144
5042.93,0.036839
5047.84,0.036909
5052.76,0.036953
5057.69,0.03695
5062.63,0.037047
5067.58,0.037016
5072.54,0.036956
5077.51,0.03692
5082.49,0.036908
5087.47,0.036961
5092.47,0.03719
5097.48,0.037129
5102.5,0.036809
5107.52,0.036825
5112.56,0.036964
5117.61,0.036897
5122.66,0.036943
5127.73,0.03687
5132.81,0.036764
5137.89,0.036999
5142.99,0.036955
5148.1,0.036815
5153.22,0.036922
5158.34,0.03694
5163.48,0.036867
5168.63,0.036922
5173.79,0.037008
5178.96,0.036846
5184.13,0.0366
5189.32,0.036516
5194.52,0.036636
5199.73,0.036472
5204.96,0.036379
5210.19,0.036224
5215.43,0.036001
5220.68,0.036149
5225.94,0.036326
5231.22,0.036344
5236.5,0.03603
5241.79,0.035718
5247.1,0.035631
5252.42,0.035582
5257.74,0.03542
5263.08,0.035295
5268.43,0.035165
5273.79,0.034975
5279.16,0.034747
5284.54,0.034522
5289.93,0.034469
5295.34,0.034455
5300.75,0.034263
5306.18,0.034078
5311.61,0.034055
5317.06,0.034114
5322.52,0.034246
5327.99,0.034089
5333.47,0.033625
5338.96,0.033203
5344.47,0.03306
5349.98,0.033004
5355.51,0.032744
5361.05,0.032744
5366.6,0.033026
5372.16,0.032992
5377.73,0.032725
5383.32,0.032483
5388.91,0.032428
5394.52,0.032392
5400.14,0.032084
5405.77,0.031542
5411.41,0.031455
5417.07,0.031476
5422.74,0.031385
5428.41,0.031306
5434.1,0.031218
5439.81,0.030921
5445.52,0.030594
5451.25,0.030437
5456.98,0.030272
5462.73,0.02996
5468.5,0.029875
5474.27,0.030011
5480.06,0.029998
5485.86,0.029811
5491.67,0.029557
5497.49,0.029322
5503.33,0.029224
5509.18,0.029237
5515.04,0.029195
5520.91,0.029159
5526.8,0.029256
5532.69,0.029127
5538.61,0.028981
5544.53,0.028937
5550.47,0.028855
5556.41,0.028715
5562.38,0.028508
5568.35,0.028396
5574.34,0.028405
5580.34,0.028344
5586.35,0.02831
5592.38,0.028317
5598.42,0.028195
5604.47,0.028185
5610.54,0.028173
5616.61,0.028092
5622.71,0.028144
5628.81,0.027991
5634.93,0.027882
5641.06,0.027842
5647.21,0.027998
5653.36,0.027919
5659.54,0.027778
5665.72,0.027962
5671.92,0.027962
5678.13,0.027522
5684.36,0.027427
5690.6,0.027711
5696.85,0.027898
5703.12,0.027956
5709.4,0.027785
5715.69,0.02744
5722.0,0.027573
5728.33,0.027895
5734.66,0.02771
5741.01,0.027537
5747.38,0.0277
5753.76,0.027702
5760.15,0.027563
5766.56,0.027648
5772.98,0.027941
5779.41,0.027823
5785.86,0.027472
5792.33,0.027453
5798.81,0.027437
5805.3,0.02742
5811.81,0.027444
5818.33,0.027521
5824.87,0.027587
5831.42,0.027497
5837.99,0.027393
5844.57,0.027349
5851.17,0.027446
5857.78,0.027458
5864.41,0.027463
5871.05,0.027525
5877.7,0.02733
5884.38,0.027235
5891.06,0.027525
5897.76,0.027709
5904.48,0.027726
5911.21,0.027329
5917.96,0.02709
5924.73,0.027366
5931.5,0.027562
5938.3,0.027689
5945.11,0.027691
5951.93,0.027639
5958.78,0.027654
5965.63,0.027685
5972.51,0.027697
5979.39,0.027793
5986.3,0.02773
5993.22,0.027668
6000.16,0.027797
6007.11,0.028007
6014.08,0.028099
6021.06,0.028197
6028.06,0.028192
6035.08,0.02816
6042.12,0.028219
6049.17,0.028076
6056.23,0.028138
6063.32,0.028493
6070.42,0.028576
6077.53,0.028308
6084.67,0.028088
6091.82,0.028161
6098.98,0.028147
6106.17,0.028058
6113.37,0.027868
6120.58,0.027879
6127.82,0.027816
6135.07,0.027725
6142.34,0.027681
6149.63,0.027573
6156.93,0.027622
6164.25,0.027669
6171.59,0.027477
6178.95,0.027145
6186.32,0.0268
6193.71,0.026926
6201.12,0.027078
6208.54,0.026887
6215.99,0.02683
6223.45,0.026738
6230.93,0.026482
6238.43,0.026349
6245.95,0.026034
6253.48,0.025801
6261.03,0.025507
6268.6,0.025324
6276.19,0.025173
6283.8,0.024933
6291.43,0.024751
6299.07,0.024726
6306.73,0.024672
6314.42,0.024505
6322.12,0.02415
6329.84,0.02405
6337.57,0.024126
6345.33,0.024163
6353.11,0.024084
6360.9,0.023803
6368.72,0.023445
6376.55,0.02306
6384.4,0.022953
6392.27,0.02286
6400.17,0.02242
6408.08,0.0221
6416.01,0.021955
6423.96,0.02162
6431.93,0.021244
6439.92,0.020819
6447.93,0.020401
6455.96,0.020206
6464.01,0.019823
6472.08,0.019452
6480.17,0.019231
6488.28,0.018816
6496.41,0.018195
6504.56,0.017675
6512.73,0.0176
6520.92,0.017421
6529.14,0.016993
6537.37,0.016639
6545.63,0.016298
6553.9,0.015898
6562.2,0.01548
6570.51,0.014953
6578.85,0.014582
6587.21,0.01416
6595.59,0.013843
6603.99,0.013562
6612.42,0.013222
6620.86,0.01258
6629.33,0.012083
6637.82,0.012036
6646.33,0.011863
6654.86,0.011218
6663.41,0.010664
6671.99,0.010393
6680.59,0.010102
6689.21,0.00965
6697.85,0.009478
6706.51,0.00958
6715.2,0.009562
6723.91,0.009747
6732.64,0.010337
6741.4,0.011064
6750.18,0.011907
6758.98,0.012896
6767.8,0.01428
6776.65,0.016062
6785.52,0.018076
6794.41,0.020136
6803.33,0.022524
6812.27,0.025096
6821.23,0.027647
6830.22,0.03044
6839.23,0.033487
6848.26,0.036124
6857.32,0.038659
6866.4,0.041391
6875.51,0.04449
6884.64,0.047194
6893.8,0.049602
6902.98,0.051794
6912.18,0.05421
6921.41,0.056682
6930.66,0.058806
6939.94,0.060757
6949.24,0.063214
6958.57,0.065552
6967.92,0.067963
6977.3,0.070623
6986.7,0.072876
6996.13,0.07467
7005.59,0.076786
7015.07,0.078751
7024.57,0.079943
7034.1,0.080784
7043.66,0.081198
7053.25,0.081248
7062.85,0.080892
7072.49,0.08007
7082.15,0.078754
7091.84,0.07708
7101.55,0.075271
7111.3,0.073416
7121.06,0.071474
7130.86,0.069209
7140.68,0.06704
7150.53,0.065042
7160.41,0.063183
7170.31,0.061232
7180.24,0.059494
7190.2,0.057802
7200.19,0.05631
7210.2,0.054996
7220.24,0.053715
7230.31,0.052501
7240.41,0.051326
7250.54,0.050183
7260.69,0.049273
7270.88,0.048421
7281.09,0.047548
7291.33,0.0468
7301.6,0.046127
7311.9,0.045492
7322.22,0.044956
7332.58,0.04427
7342.97,0.043717
7353.38,0.0433
7363.83,0.042843
7374.3,0.042218
7384.81,0.041734
7395.34,0.041438
7405.91,0.040875
7416.5,0.040285
7427.13,0.039877
7437.78,0.039324
7448.47,0.039069
7459.19,0.038924
7469.94,0.038492
7480.71,0.038239
7491.52,0.038131
7502.37,0.038051
7513.24,0.037849
7524.14,0.037466
7535.08,0.037322
7546.05,0.037329
7557.05,0.037232
7568.08,0.037024
7579.15,0.0368
7590.24,0.036548
7601.37,0.0364
7612.53,0.036538
7623.73,0.036583
7634.96,0.036477
7646.22,0.036545
7657.51,0.036451
7668.84,0.036389
7680.2,0.036554
7691.59,0.036772
7703.02,0.036593
7714.49,0.036493
7725.98,0.036382
7737.52,0.036198
7749.08,0.036067
7760.68,0.036099
7772.32,0.036072
7783.99,0.036055
7795.69,0.035644
7807.43,0.035323
7819.21,0.035059
7831.02,0.034946
7842.87,0.034818
7854.75,0.034312
7866.67,0.033934
7878.62,0.03363
7890.62,0.033304
7902.64,0.033032
7914.71,0.032486
7926.81,0.031859
7938.95,0.031505
7951.13,0.031118
7963.34,0.030428
7975.59,0.03
7987.88,0.029574
8000.21,0.028874
8012.57,0.02805
8024.98,0.027222
8037.42,0.026593
8049.9,0.025861
8062.42,0.025077
8074.98,0.024384
8087.57,0.023759
8100.21,0.022887
8112.89,0.022199
8125.6,0.021772
8138.36,0.021184
8151.16,0.020394
8163.99,0.019586
8176.87,0.01895
8189.79,0.018376
8202.75,0.017829
8215.75,0.016943
8228.79,0.015912
8241.87,0.014765
8254.99,0.013716
8268.16,0.013101
8281.37,0.012278
8294.62,0.011447
8307.91,0.010552
8321.24,0.009655
8334.62,0.008687
8348.04,0.007561
8361.51,0.006653
8375.02,0.006161
8388.57,0.005526
8402.16,0.005089
8415.8,0.00496
8429.49,0.004895
8443.22,0.005147
8456.99,0.006048
8470.81,0.007823
8484.67,0.010115
8498.58,0.013324
8512.54,0.018017
8526.54,0.024267
8540.58,0.031935
8554.68,0.04082
8568.82,0.05064
8583.0,0.061352
8597.24,0.072505
8611.52,0.084019
8625.85,0.095361
8640.23,0.106164
8654.65,0.116409
8669.12,0.126029
8683.64,0.134804
8698.21,0.142856
8712.83,0.150204
8727.5,0.157254
8742.22,0.163625
8756.99,0.16888
8771.8,0.173989
8786.67,0.178858
8801.59,0.182854
8816.56,0.186501
8831.58,0.190221
8846.65,0.19328
8861.77,0.195482
8876.94,0.197183
8892.17,0.198559
8907.45,0.199556
8922.78,0.199963
8938.16,0.200326
8953.6,0.200207
8969.09,0.199786
8984.64,0.199064
9000.23,0.198303
9015.89,0.197171
9031.59,0.196087
9047.36,0.194929
9063.17,0.193263
9079.05,0.191545
9094.97,0.189485
9110.96,0.186567
9127.0,0.183366
9143.1,0.180002
9159.25,0.176507
9175.46,0.172539
9191.73,0.168626
9208.06,0.164371
9224.44,0.159717
9240.88,0.154784
9257.38,0.150083
9273.94,0.145016
9290.56,0.139935
9307.24,0.13501
9323.98,0.130189
9340.78,0.125437
9357.64,0.120775
9374.57,0.116797
9391.55,0.113121
9408.59,0.109515
9425.7,0.106374
9442.87,0.103536
9460.1,0.100449
9477.4,0.09798
9494.75,0.095727
9512.17,0.093377
9529.66,0.09138
9547.21,0.089463
9564.83,0.08751
9582.5,0.085493
9600.25,0.084102
9618.06,0.082807
9635.94,0.081131
9653.88,0.079667
9671.89,0.078633
9689.97,0.077511
9708.12,0.07624
9726.33,0.075277
9744.62,0.07453
9762.97,0.073717
9781.39,0.072993
9799.88,0.07231
9818.44,0.071463
9837.07,0.070679
9855.77,0.070174
9874.54,0.069684
9893.39,0.069014
9912.3,0.068307
9931.29,0.067453
9950.36,0.066689
9969.49,0.066382
9988.7,0.066462
10007.98,0.06626
10027.34,0.065561
10046.77,0.064961
10066.28,0.064631
10085.87,0.064453
10105.53,0.064436
10125.26,0.064375
10145.08,0.063913
10164.97,0.063385
10184.94,0.062964
10204.99,0.062786
10225.12,0.062637
10245.33,0.061971
10265.61,0.061122
10285.98,0.061384
10306.43,0.062386
10326.96,0.063043
10347.57,0.063708
10368.27,0.064436
10389.05,0.064678
10409.91,0.064747
10430.86,0.065044
10451.88,0.06555
10473.0,0.06623
10494.2,0.066712
10515.49,0.067449
10536.86,0.068523
10558.32,0.06911
10579.87,0.069424
10601.5,0.069879
10623.23,0.07031
10645.04,0.070851
10666.94,0.07133
10688.94,0.071816
10711.02,0.072155
10733.2,0.072589
10755.47,0.0734
10777.83,0.073647
10800.28,0.073721
10822.83,0.074267
10845.47,0.074768
10868.21,0.075362
10891.04,0.07602
10913.97,0.076328
10936.99,0.07665
10960.12,0.076786
10983.34,0.076942
11006.66,0.07705
11030.07,0.077483
11053.59,0.078161
11077.21,0.07883
11100.93,0.079326
11124.75,0.079734
11148.68,0.080096
11172.71,0.080635
11196.84,0.080982
11221.07,0.081662
11245.41,0.082345
11269.86,0.082666
11294.41,0.082801
11319.07,0.08343
11343.84,0.084051
11368.72,0.084487
11393.7,0.084874
11418.8,0.085692
11444.01,0.086365
11469.33,0.086442
11494.76,0.087042
11520.3,0.087796
11545.96,0.088389
11571.73,0.089151
11597.62,0.08917
11623.62,0.089561
11649.74,0.090592
11675.98,0.091095
11702.34,0.091064
11728.81,0.091451
11755.41,0.091992
11782.13,0.092165
11808.96,0.092518
11835.92,0.09307
11863.01,0.093494
11890.22,0.093633
11917.55,0.093802
11945.01,0.094044
11972.6,0.094292
12000.31,0.094668
12028.16,0.094678
12056.13,0.094641
12084.23,0.094713
12112.46,0.094645
12140.83,0.094619
12169.33,0.094691
12197.96,0.094359
12226.73,0.094308
12255.64,0.094475
12284.68,0.094413
12313.86,0.094159
12343.18,0.09411
12372.64,0.093634
12402.24,0.092908
12431.98,0.092345
12461.86,0.092183
12491.89,0.092547
12522.07,0.092592
12552.38,0.092066
12582.85,0.090935
12613.47,0.090671
12644.23,0.090801
12675.15,0.090443
12706.21,0.090135
12737.43,0.089948
12768.81,0.089539
12800.33,0.088812
12832.02,0.088308
12863.86,0.088117
12895.86,0.08756
12928.02,0.087063
12960.34,0.087034
12992.82,0.086858
13025.46,0.086867
13058.27,0.086442
13091.25,0.085638
13124.39,0.085116
13157.7,0.084711
13191.18,0.084358
13224.83,0.084082
13258.66,0.083633
13292.65,0.082913
13326.83,0.082209
13361.17,0.081844
13395.7,0.081628
13430.4,0.081151
13465.29,0.079978
13500.35,0.079228
13535.6,0.079324
13571.03,0.078834
13606.65,0.077711
13642.46,0.076626
13678.46,0.075946
13714.64,0.07498
13751.02,0.07401
13787.59,0.073162
13824.36,0.072227
13861.32,0.071452
13898.49,0.070414
13935.85,0.069317
13973.41,0.068008
14011.17,0.066954
14049.15,0.066044
14087.32,0.065087
14125.71,0.063899
14164.3,0.062811
14203.11,0.061751
14242.13,0.060937
14281.36,0.060373
14320.81,0.060083
14360.49,0.059591
14400.38,0.058214
14440.49,0.057046
14480.82,0.0568
14521.39,0.056369
14562.18,0.05574
14603.2,0.054811
14644.45,0.053551
14685.93,0.052774
14727.66,0.052107
14769.62,0.051418
14811.81,0.051302
14854.25,0.051037
14896.94,0.050082
14939.87,0.049329
14983.05,0.048836
15026.48,0.047957
15070.16,0.046671
15114.1,0.045149
15158.29,0.044285
15202.74,0.043276
15247.46,0.041267
15292.43,0.039311
15337.68,0.037538
15383.19,0.035632
15428.97,0.033817
15475.03,0.031485
15521.36,0.028081
15567.97,0.024628
15614.87,0.02132
15662.04,0.018597
15709.5,0.015955
15757.25,0.014408
15805.29,0.017588
15853.62,0.027641
15902.26,0.045315
15951.19,0.069481
16000.42,0.096044
16049.95,0.117596
16099.8,0.12739
16149.95,0.127318
16200.42,0.124432
16251.21,0.122002
16302.31,0.118733
16353.74,0.111033
16405.49,0.098803
16457.57,0.086498
16509.98,0.077418
16562.73,0.071253
16615.82,0.066197
16669.24,0.061948
16723.02,0.058482
16777.14,0.05588
16831.61,0.053924
16886.43,0.052424
16941.62,0.051022
16997.16,0.0502
17053.08,0.050297
17109.36,0.050343
17166.01,0.050105
17223.04,0.049311
17280.45,0.049157
17338.24,0.049485
17396.43,0.049243
17455.0,0.048586
17513.97,0.048769
17573.34,0.048737
17633.11,0.048913
17693.29,0.049661
17753.89,0.049475
17814.9,0.048737
17876.33,0.048619
17938.18,0.048872
18000.47,0.0487
18063.19,0.048391
18126.35,0.04896
18189.95,0.049098
18254.0,0.048651
18318.5,0.048537
18383.46,0.04888
18448.88,0.049975
18514.77,0.050221
18581.13,0.049448
18647.97,0.048394
18715.29,0.048285
18783.1,0.048516
18851.4,0.048818
18920.2,0.049017
18989.51,0.048828
19059.32,0.04905
19129.65,0.049303
19200.5,0.048991
19271.88,0.049158
19343.79,0.048771
19416.24,0.047216
19489.23,0.047378
19562.77,0.047276
19636.88,0.046646
19711.54,0.046723
19786.78,0.046632
19862.59,0.046913
19938.98,0.04664
20015.96,0.045814
20093.55,0.046237
20171.73,0.047086
20250.53,0.046911
20329.94,0.045945
20409.98,0.046218
20490.65,0.0468
20571.96,0.046445
20653.92,0.045414
20736.54,0.045158
20819.82,0.044771
20903.77,0.04482
20988.4,0.046175
21073.72,0.044716
21159.73,0.043047
21246.46,0.042792
21333.89,0.041936
21422.04,0.041178
21510.93,0.041091
21600.56,0.041778
21690.94,0.042411
21782.08,0.042223
21873.99,0.041019
21966.67,0.041716
22060.15,0.043498
22154.42,0.041787
22249.51,0.038938
22345.41,0.03761
22442.14,0.037898
22539.72,0.037106
22638.14,0.036036
22737.43,0.037509
22837.6,0.038564
22938.65,0.036364
23040.6,0.034213
23143.46,0.035433
23247.24,0.037922
23351.96,0.036459
23457.63,0.033836
23564.25,0.031895
23671.85,0.029515
23780.44,0.030173
23890.02,0.033085
24000.63,0.032843
24112.26,0.032246
24224.93,0.035085
24338.66,0.034119
24453.47,0.030227
24569.36,0.03005
24686.36,0.029856
24804.47,0.028739
24923.73,0.026332
25044.13,0.023587
25165.71,0.025673
25288.46,0.025138
25412.43,0.024577
25537.61,0.028034
25664.04,0.028346
25791.72,0.024089
25920.68,0.024872
