Database of Origin,University of Winnipeg Spectrophotometer Facility
Sample Description,9.2. MAGNETITE: Merged RELAB & Nicole / Merged at 2.5 um / different viewing geometry
Date Added,2016-07-15 22:03:00.090405

Data ID,RPN_MAG_05          
Sample ID,MAG105
Mineral Name,Magnetite
Grain Size,<45
Viewing Geometry,30 / 0 | 30
Resolution,1.2-129
Material Class,Magnetite

Wavelength
305.0,0.050295
310.0,0.048365
315.0,0.051149
320.0,0.050104
325.0,0.051166
330.0,0.05083
335.0,0.051183
340.0,0.051003
345.0,0.051188
350.0,0.051375
355.0,0.051533
360.0,0.051798
365.0,0.051276
370.0,0.051709
375.0,0.051624
380.0,0.051469
385.0,0.051377
390.0,0.051193
395.0,0.050918
400.0,0.050897
405.0,0.05064
410.0,0.050932
415.0,0.050784
420.0,0.050458
425.0,0.050329
430.0,0.05
435.0,0.049972
440.0,0.049464
445.0,0.048912
450.0,0.048699
455.0,0.048457
460.0,0.048324
465.0,0.048138
470.0,0.048034
475.0,0.047999
480.0,0.047856
485.0,0.04802
490.0,0.047931
495.0,0.047743
500.0,0.047671
505.0,0.047597
510.0,0.047458
515.0,0.047392
520.0,0.047467
525.0,0.047599
530.0,0.047672
535.0,0.047733
540.0,0.047775
545.0,0.047872
550.0,0.048013
555.0,0.048067
560.0,0.048072
565.0,0.04807
570.0,0.048105
575.0,0.048166
580.0,0.048137
585.0,0.04818
590.0,0.04812
595.0,0.048202
600.0,0.048181
605.0,0.048194
610.0,0.048555
615.0,0.048769
620.0,0.048897
625.0,0.04904
630.0,0.049158
635.0,0.049144
640.0,0.049007
645.0,0.049118
650.0,0.049091
655.0,0.048906
660.0,0.048793
665.0,0.048752
670.0,0.048415
675.0,0.04831
680.0,0.04824
685.0,0.047988
690.0,0.047987
695.0,0.047531
700.0,0.047376
705.0,0.047211
710.0,0.047023
715.0,0.046882
720.0,0.04673
725.0,0.046814
730.0,0.046249
735.0,0.046079
740.0,0.045953
745.0,0.045831
750.0,0.045559
755.0,0.04553
760.0,0.04521
765.0,0.045097
770.0,0.044542
775.0,0.044549
780.0,0.044173
785.0,0.044122
790.0,0.043778
795.0,0.043619
800.0,0.043704
805.0,0.043355
810.0,0.043066
815.0,0.042417
820.0,0.042442
825.0,0.04197
830.0,0.041885
835.0,0.041995
840.0,0.041541
845.0,0.04114
850.0,0.041364
855.0,0.040851
860.0,0.040867
865.0,0.041
870.0,0.040835
875.0,0.040249
880.0,0.040021
885.0,0.039599
890.0,0.040105
895.0,0.039605
900.0,0.039225
905.0,0.038977
910.0,0.039853
915.0,0.039344
920.0,0.039268
925.0,0.039194
930.0,0.038895
935.0,0.038882
940.0,0.038921
945.0,0.038608
950.0,0.038462
955.0,0.038562
960.0,0.038558
965.0,0.03857
970.0,0.038372
975.0,0.038127
980.0,0.037719
985.0,0.037764
990.0,0.0378
995.0,0.037686
1000.0,0.037605
1005.0,0.037366
1010.0,0.037747
1015.0,0.037147
1020.0,0.037155
1025.0,0.03724
1030.0,0.036988
1035.0,0.037112
1040.0,0.037058
1045.0,0.036869
1050.0,0.036959
1055.0,0.037067
1060.0,0.036938
1065.0,0.037114
1070.0,0.037111
1075.0,0.036939
1080.0,0.036899
1085.0,0.036959
1090.0,0.037242
1095.0,0.037236
1100.0,0.03728
1105.0,0.037198
1110.0,0.037348
1115.0,0.037462
1120.0,0.037319
1125.0,0.037702
1130.0,0.037854
1135.0,0.037742
1140.0,0.037884
1145.0,0.037893
1150.0,0.038044
1155.0,0.038292
1160.0,0.038361
1165.0,0.038305
1170.0,0.038569
1175.0,0.03842
1180.0,0.038798
1185.0,0.038885
1190.0,0.038901
1195.0,0.0394
1200.0,0.039095
1205.0,0.039515
1210.0,0.039551
1215.0,0.039856
1220.0,0.039744
1225.0,0.039856
1230.0,0.040246
1235.0,0.040228
1240.0,0.040669
1245.0,0.040681
1250.0,0.040712
1255.0,0.040897
1260.0,0.041012
1265.0,0.041
1270.0,0.041312
1275.0,0.041466
1280.0,0.041576
1285.0,0.041636
1290.0,0.0419
1295.0,0.04193
1300.0,0.042221
1305.0,0.04233
1310.0,0.042678
1315.0,0.042612
1320.0,0.042954
1325.0,0.043081
1330.0,0.043194
1335.0,0.043511
1340.0,0.043686
1345.0,0.043925
1350.0,0.0438
1355.0,0.044025
1360.0,0.043925
1365.0,0.043903
1370.0,0.044398
1375.0,0.045078
1380.0,0.044471
1385.0,0.044831
1390.0,0.04522
1395.0,0.045316
1400.0,0.045727
1405.0,0.045667
1410.0,0.046354
1415.0,0.046463
1420.0,0.046816
1425.0,0.046871
1430.0,0.047209
1435.0,0.047288
1440.0,0.047607
1445.0,0.047981
1450.0,0.048006
1455.0,0.047861
1460.0,0.048398
1465.0,0.048734
1470.0,0.048596
1475.0,0.049025
1480.0,0.049267
1485.0,0.049604
1490.0,0.049593
1495.0,0.049666
1500.0,0.049982
1505.0,0.05023
1510.0,0.050336
1515.0,0.05051
1520.0,0.050648
1525.0,0.050873
1530.0,0.051204
1535.0,0.051323
1540.0,0.051605
1545.0,0.05151
1550.0,0.051496
1555.0,0.051747
1560.0,0.052002
1565.0,0.052287
1570.0,0.052313
1575.0,0.052415
1580.0,0.05269
1585.0,0.05273
1590.0,0.052891
1595.0,0.053282
1600.0,0.053422
1605.0,0.053374
1610.0,0.053801
1615.0,0.053642
1620.0,0.054083
1625.0,0.054046
1630.0,0.054322
1635.0,0.054582
1640.0,0.054517
1645.0,0.054743
1650.0,0.054789
1655.0,0.055028
1660.0,0.055008
1665.0,0.054554
1670.0,0.055206
1675.0,0.0557
1680.0,0.055823
1685.0,0.055457
1690.0,0.055891
1695.0,0.055683
1700.0,0.056518
1705.0,0.056738
1710.0,0.056801
1715.0,0.056996
1720.0,0.057103
1725.0,0.057168
1730.0,0.05714
1735.0,0.057416
1740.0,0.057673
1745.0,0.057454
1750.0,0.057985
1755.0,0.058224
1760.0,0.058093
1765.0,0.058246
1770.0,0.058357
1775.0,0.058432
1780.0,0.05852
1785.0,0.058852
1790.0,0.058721
1795.0,0.059069
1800.0,0.059228
1805.0,0.059174
1810.0,0.059555
1815.0,0.059664
1820.0,0.059941
1825.0,0.059899
1830.0,0.060031
1835.0,0.060127
1840.0,0.059987
1845.0,0.060054
1850.0,0.060279
1855.0,0.060353
1860.0,0.060727
1865.0,0.060812
1870.0,0.060954
1875.0,0.060697
1880.0,0.06102
1885.0,0.061366
1890.0,0.061447
1895.0,0.061646
1900.0,0.061831
1905.0,0.061642
1910.0,0.061886
1915.0,0.062049
1920.0,0.062094
1925.0,0.062107
1930.0,0.062419
1935.0,0.062313
1940.0,0.062445
1945.0,0.062351
1950.0,0.062584
1955.0,0.06279
1960.0,0.062962
1965.0,0.062809
1970.0,0.063041
1975.0,0.06335
1980.0,0.063259
1985.0,0.063382
1990.0,0.06343
1995.0,0.063592
2000.0,0.063705
2005.0,0.06371
2010.0,0.064062
2015.0,0.064134
2020.0,0.064259
2025.0,0.064099
2030.0,0.064308
2035.0,0.064443
2040.0,0.064756
2045.0,0.064684
2050.0,0.064994
2055.0,0.064967
2060.0,0.064703
2065.0,0.065088
2070.0,0.065152
2075.0,0.064869
2080.0,0.065268
2085.0,0.065276
2090.0,0.065309
2095.0,0.065403
2100.0,0.065488
2105.0,0.0657
2110.0,0.065714
2115.0,0.065692
2120.0,0.065809
2125.0,0.06618
2130.0,0.066158
2135.0,0.06645
2140.0,0.066281
2145.0,0.066326
2150.0,0.06648
2155.0,0.066461
2160.0,0.066501
2165.0,0.066582
2170.0,0.066576
2175.0,0.066797
2180.0,0.066614
2185.0,0.066616
2190.0,0.066727
2195.0,0.06671
2200.0,0.066908
2205.0,0.066986
2210.0,0.06715
2215.0,0.067108
2220.0,0.067323
2225.0,0.067162
2230.0,0.067171
2235.0,0.067457
2240.0,0.067528
2245.0,0.067692
2250.0,0.067348
2255.0,0.067754
2260.0,0.068011
2265.0,0.068036
2270.0,0.067937
2275.0,0.068145
2280.0,0.068179
2285.0,0.067911
2290.0,0.068327
2295.0,0.068415
2300.0,0.068618
2305.0,0.068745
2310.0,0.068752
2315.0,0.068877
2320.0,0.068975
2325.0,0.068826
2330.0,0.069129
2335.0,0.06911
2340.0,0.0692
2345.0,0.069362
2350.0,0.069297
2355.0,0.06923
2360.0,0.069368
2365.0,0.069269
2370.0,0.069718
2375.0,0.069706
2380.0,0.06955
2385.0,0.069746
2390.0,0.06961
2395.0,0.069868
2400.0,0.070301
2405.0,0.070134
2410.0,0.070276
2415.0,0.070157
2420.0,0.070085
2425.0,0.070157
2430.0,0.070318
2435.0,0.070531
2440.0,0.07021
2445.0,0.070487
2450.0,0.070359
2455.0,0.070443
2460.0,0.070557
2465.0,0.07058
2470.0,0.070512
2475.0,0.07108
2480.0,0.07082
2485.0,0.071014
2490.0,0.07105
2495.0,0.071232
2500.0,0.0712
2502.0,0.071037
2503.2,0.071134
2504.41,0.07121
2505.62,0.071343
2506.83,0.07116
2508.05,0.070866
2509.26,0.070921
2510.48,0.071005
2511.69,0.070992
2512.91,0.071025
2514.13,0.071146
2515.35,0.071343
2516.57,0.071297
2517.79,0.070802
2519.02,0.070778
2520.24,0.071279
2521.47,0.07139
2522.69,0.071175
2523.92,0.071094
2525.15,0.07139
2526.38,0.071311
2527.61,0.070874
2528.85,0.070989
2530.08,0.071253
2531.32,0.07121
2532.55,0.07124
2533.79,0.07121
2535.03,0.070934
2536.27,0.070705
2537.51,0.070908
2538.75,0.071239
2540.0,0.071034
2541.24,0.070961
2542.49,0.071151
2543.74,0.071297
2544.99,0.071288
2546.24,0.071315
2547.49,0.071162
2548.74,0.071006
2549.99,0.071048
2551.25,0.071142
2552.5,0.071121
2553.76,0.071119
2555.02,0.071265
2556.28,0.07152
2557.54,0.071506
2558.8,0.071283
2560.07,0.071116
2561.33,0.070915
2562.6,0.071056
2563.86,0.071488
2565.13,0.071414
2566.4,0.071104
2567.67,0.071154
2568.95,0.071432
2570.22,0.0714
2571.5,0.071289
2572.77,0.071294
2574.05,0.071246
2575.33,0.071535
2576.61,0.071468
2577.89,0.071051
2579.17,0.071209
2580.46,0.071119
2581.74,0.070956
2583.03,0.071317
2584.31,0.071474
2585.6,0.071436
2586.89,0.071186
2588.19,0.071027
2589.48,0.071189
2590.77,0.071148
2592.07,0.071002
2593.36,0.070885
2594.66,0.070898
2595.96,0.071408
2597.26,0.071861
2598.56,0.071769
2599.87,0.071402
2601.17,0.071556
2602.48,0.071499
2603.78,0.07124
2605.09,0.070905
2606.4,0.07083
2607.71,0.071255
2609.03,0.071177
2610.34,0.071013
2611.66,0.071201
2612.97,0.071171
2614.29,0.071072
2615.61,0.071181
2616.93,0.071107
2618.25,0.071316
2619.57,0.071365
2620.9,0.07108
2622.22,0.071346
2623.55,0.071418
2624.88,0.071179
2626.21,0.071276
2627.54,0.071467
2628.87,0.071396
2630.21,0.071126
2631.54,0.07094
2632.88,0.071275
2634.21,0.071359
2635.55,0.07133
2636.89,0.071312
2638.24,0.07141
2639.58,0.071419
2640.92,0.071199
2642.27,0.071086
2643.62,0.071266
2644.97,0.071354
2646.32,0.071342
2647.67,0.071328
2649.02,0.071435
2650.38,0.07117
2651.73,0.07113
2653.09,0.071322
2654.45,0.07133
2655.81,0.070882
2657.17,0.070862
2658.53,0.071045
2659.89,0.071119
2661.26,0.071198
2662.63,0.071136
2664.0,0.070616
2665.36,0.070546
2666.74,0.07118
2668.11,0.071454
2669.48,0.071252
2670.86,0.070935
2672.23,0.070898
2673.61,0.071111
2674.99,0.071068
2676.37,0.070845
2677.76,0.070833
2679.14,0.071016
2680.52,0.071157
2681.91,0.071129
2683.3,0.070976
2684.69,0.070868
2686.08,0.070876
2687.47,0.070985
2688.87,0.071051
2690.26,0.070996
2691.66,0.070767
2693.06,0.070751
2694.46,0.070755
2695.86,0.07077
2697.26,0.07076
2698.66,0.071021
2700.07,0.071208
2701.48,0.071062
2702.89,0.070777
2704.3,0.070616
2705.71,0.070673
2707.12,0.07098
2708.53,0.071041
2709.95,0.071021
2711.37,0.07105
2712.79,0.071126
2714.21,0.070942
2715.63,0.070584
2717.05,0.070447
2718.48,0.070716
2719.9,0.070773
2721.33,0.070505
2722.76,0.070503
2724.19,0.070576
2725.62,0.070695
2727.06,0.070913
2728.49,0.07099
2729.93,0.071094
2731.37,0.07115
2732.81,0.071097
2734.25,0.07058
2735.69,0.070365
2737.14,0.070702
2738.58,0.070674
2740.03,0.070769
2741.48,0.070947
2742.93,0.070936
2744.38,0.070748
2745.83,0.070685
2747.29,0.070806
2748.75,0.070945
2750.2,0.071069
2751.66,0.070937
2753.13,0.070914
2754.59,0.071012
2756.05,0.070642
2757.52,0.070635
2758.99,0.070944
2760.46,0.070801
2761.93,0.070668
2763.4,0.070822
2764.87,0.070912
2766.35,0.07072
2767.82,0.070747
2769.3,0.070876
2770.78,0.070638
2772.26,0.070457
2773.75,0.070491
2775.23,0.070617
2776.72,0.070838
2778.21,0.070835
2779.7,0.070672
2781.19,0.07039
2782.68,0.070392
2784.18,0.070644
2785.67,0.070669
2787.17,0.070395
2788.67,0.070227
2790.17,0.070371
2791.67,0.070307
2793.18,0.070145
2794.68,0.070298
2796.19,0.070371
2797.7,0.070547
2799.21,0.070563
2800.72,0.070427
2802.24,0.070307
2803.75,0.070243
2805.27,0.070356
2806.79,0.070539
2808.31,0.070413
2809.83,0.07019
2811.35,0.070239
2812.88,0.07042
2814.41,0.07029
2815.93,0.070205
2817.46,0.070243
2819.0,0.070272
2820.53,0.070273
2822.07,0.070073
2823.6,0.07018
2825.14,0.07024
2826.68,0.070062
2828.22,0.070097
2829.77,0.070039
2831.31,0.070072
2832.86,0.07021
2834.41,0.070215
2835.96,0.07006
2837.51,0.070107
2839.07,0.070214
2840.62,0.070098
2842.18,0.069959
2843.74,0.070025
2845.3,0.069915
2846.86,0.069884
2848.43,0.069898
2849.99,0.070119
2851.56,0.070179
2853.13,0.07007
2854.7,0.069938
2856.27,0.069855
2857.85,0.069802
2859.42,0.069877
2861.0,0.06992
2862.58,0.070016
2864.16,0.070009
2865.75,0.069972
2867.33,0.069799
2868.92,0.069802
2870.51,0.069866
2872.1,0.069908
2873.69,0.069854
2875.28,0.069592
2876.88,0.069687
2878.48,0.069953
2880.07,0.069854
2881.68,0.069831
2883.28,0.069837
2884.88,0.070051
2886.49,0.070148
2888.1,0.070033
2889.71,0.06976
2891.32,0.069665
2892.93,0.069794
2894.55,0.069945
2896.16,0.070189
2897.78,0.069955
2899.4,0.069556
2901.03,0.069529
2902.65,0.06967
2904.28,0.069715
2905.91,0.0698
2907.54,0.070051
2909.17,0.070072
2910.8,0.070029
2912.44,0.070019
2914.07,0.069872
2915.71,0.069752
2917.35,0.069701
2918.99,0.069855
2920.64,0.06993
2922.29,0.069748
2923.93,0.069801
2925.58,0.069937
2927.24,0.069812
2928.89,0.069716
2930.55,0.06982
2932.2,0.069943
2933.86,0.070008
2935.52,0.070151
2937.19,0.07014
2938.85,0.070089
2940.52,0.069863
2942.19,0.069733
2943.86,0.0696
2945.53,0.069491
2947.21,0.069573
2948.88,0.069795
2950.56,0.069784
2952.24,0.069618
2953.92,0.069592
2955.61,0.069678
2957.29,0.069788
2958.98,0.069731
2960.67,0.069614
2962.36,0.069761
2964.06,0.069788
2965.75,0.069694
2967.45,0.069633
2969.15,0.069603
2970.85,0.069541
2972.55,0.069447
2974.26,0.069496
2975.97,0.06945
2977.68,0.069567
2979.39,0.06964
2981.1,0.069461
2982.82,0.069357
2984.53,0.0695
2986.25,0.069494
2987.97,0.069391
2989.7,0.069383
2991.42,0.069603
2993.15,0.069639
2994.88,0.069374
2996.61,0.069259
2998.34,0.069536
3000.08,0.069578
3001.82,0.069375
3003.55,0.069408
3005.3,0.069416
3007.04,0.069473
3008.78,0.069537
3010.53,0.06951
3012.28,0.069492
3014.03,0.069494
3015.79,0.069446
3017.54,0.069594
3019.3,0.069642
3021.06,0.069533
3022.82,0.069387
3024.58,0.069468
3026.35,0.069452
3028.12,0.069393
3029.89,0.069343
3031.66,0.069277
3033.43,0.069371
3035.21,0.069583
3036.99,0.069584
3038.77,0.069525
3040.55,0.069482
3042.33,0.069381
3044.12,0.069441
3045.91,0.069516
3047.7,0.069442
3049.49,0.069328
3051.29,0.069382
3053.08,0.069571
3054.88,0.069556
3056.68,0.069499
3058.49,0.069399
3060.29,0.06927
3062.1,0.069227
3063.91,0.069286
3065.72,0.069363
3067.54,0.069382
3069.35,0.069424
3071.17,0.069609
3072.99,0.069593
3074.81,0.069404
3076.64,0.069427
3078.47,0.069488
3080.29,0.069428
3082.13,0.069455
3083.96,0.069557
3085.79,0.06943
3087.63,0.069247
3089.47,0.069261
3091.31,0.069367
3093.16,0.069324
3095.01,0.069349
3096.85,0.069559
3098.71,0.069646
3100.56,0.069498
3102.41,0.069349
3104.27,0.069335
3106.13,0.069396
3107.99,0.069375
3109.86,0.069442
3111.73,0.069556
3113.59,0.069408
3115.47,0.069324
3117.34,0.069281
3119.21,0.069275
3121.09,0.069286
3122.97,0.069353
3124.86,0.069285
3126.74,0.069313
3128.63,0.069482
3130.52,0.069463
3132.41,0.069379
3134.3,0.06929
3136.2,0.069188
3138.1,0.069282
3140.0,0.069221
3141.9,0.06904
3143.81,0.069196
3145.71,0.069255
3147.62,0.06921
3149.54,0.069264
3151.45,0.069309
3153.37,0.069282
3155.29,0.069293
3157.21,0.069309
3159.13,0.069275
3161.06,0.069291
3162.99,0.069405
3164.92,0.069438
3166.85,0.069428
3168.79,0.069368
3170.72,0.069241
3172.67,0.069234
3174.61,0.06926
3176.55,0.069175
3178.5,0.069122
3180.45,0.069167
3182.4,0.069379
3184.36,0.06941
3186.32,0.069358
3188.27,0.069407
3190.24,0.069229
3192.2,0.069185
3194.17,0.069328
3196.14,0.069323
3198.11,0.069279
3200.08,0.069303
3202.06,0.069339
3204.04,0.069347
3206.02,0.069384
3208.0,0.069385
3209.99,0.069163
3211.98,0.069068
3213.97,0.06923
3215.96,0.069272
3217.96,0.06924
3219.96,0.069263
3221.96,0.069279
3223.96,0.069182
3225.97,0.069128
3227.98,0.069231
3229.99,0.069336
3232.0,0.069353
3234.02,0.069317
3236.04,0.069283
3238.06,0.069298
3240.08,0.06932
3242.11,0.069242
3244.14,0.069224
3246.17,0.069224
3248.2,0.06929
3250.24,0.069297
3252.28,0.069274
3254.32,0.069371
3256.37,0.069357
3258.41,0.069258
3260.46,0.06938
3262.51,0.069418
3264.57,0.069302
3266.63,0.069248
3268.69,0.069282
3270.75,0.06932
3272.81,0.069374
3274.88,0.069409
3276.95,0.069332
3279.02,0.069248
3281.1,0.069279
3283.18,0.069269
3285.26,0.069264
3287.34,0.069363
3289.43,0.069262
3291.51,0.069256
3293.61,0.069336
3295.7,0.069314
3297.8,0.069109
3299.9,0.069029
3302.0,0.069215
3304.1,0.06926
3306.21,0.069269
3308.32,0.069337
3310.43,0.069311
3312.55,0.069445
3314.66,0.069498
3316.79,0.069403
3318.91,0.069325
3321.03,0.069348
3323.16,0.069324
3325.29,0.069407
3327.43,0.069527
3329.57,0.069483
3331.71,0.069447
3333.85,0.069349
3335.99,0.069231
3338.14,0.069353
3340.29,0.06948
3342.45,0.069463
3344.6,0.069459
3346.76,0.069569
3348.92,0.06957
3351.09,0.069417
3353.26,0.069358
3355.43,0.069391
3357.6,0.069414
3359.78,0.069389
3361.96,0.069498
3364.14,0.069558
3366.32,0.069534
3368.51,0.069513
3370.7,0.069602
3372.89,0.069799
3375.09,0.069781
3377.29,0.069683
3379.49,0.069594
3381.69,0.069617
3383.9,0.069537
3386.11,0.069489
3388.32,0.069455
3390.54,0.069556
3392.76,0.069661
3394.98,0.06963
3397.21,0.069607
3399.43,0.069735
3401.66,0.069797
3403.9,0.069762
3406.13,0.069648
3408.37,0.069587
3410.61,0.06966
3412.86,0.069721
3415.11,0.069663
3417.36,0.069741
3419.61,0.069933
3421.87,0.069986
3424.13,0.069979
3426.39,0.069972
3428.66,0.069937
3430.93,0.069806
3433.2,0.069672
3435.48,0.069737
3437.76,0.069831
3440.04,0.069797
3442.32,0.069804
3444.61,0.069887
3446.9,0.069921
3449.19,0.069844
3451.49,0.069812
3453.79,0.069897
3456.09,0.069927
3458.4,0.069936
3460.7,0.069927
3463.02,0.06989
3465.33,0.069962
3467.65,0.069889
3469.97,0.069801
3472.29,0.069894
3474.62,0.06996
3476.95,0.069852
3479.29,0.069813
3481.62,0.069863
3483.96,0.069822
3486.3,0.069856
3488.65,0.069838
3491.0,0.069921
3493.35,0.070025
3495.71,0.070094
3498.07,0.070043
3500.43,0.069963
3502.79,0.069966
3505.16,0.070051
3507.53,0.070139
3509.91,0.070119
3512.29,0.070079
3514.67,0.070153
3517.05,0.070189
3519.44,0.07014
3521.83,0.07008
3524.23,0.070093
3526.62,0.07003
3529.02,0.070069
3531.43,0.070122
3533.83,0.070111
3536.24,0.070115
3538.66,0.070118
3541.08,0.070136
3543.5,0.07009
3545.92,0.070078
3548.35,0.070125
3550.78,0.07017
3553.21,0.070322
3555.65,0.07037
3558.09,0.070189
3560.53,0.070128
3562.98,0.0702
3565.43,0.07032
3567.88,0.070389
3570.34,0.070435
3572.8,0.070402
3575.27,0.070363
3577.73,0.070371
3580.2,0.070277
3582.68,0.070304
3585.16,0.070461
3587.64,0.07053
3590.12,0.070478
3592.61,0.070409
3595.1,0.070398
3597.6,0.070473
3600.09,0.070573
3602.6,0.070645
3605.1,0.070617
3607.61,0.07053
3610.12,0.07049
3612.64,0.07046
3615.16,0.070457
3617.68,0.070561
3620.21,0.070616
3622.74,0.070643
3625.27,0.07073
3627.81,0.070729
3630.35,0.070617
3632.89,0.070577
3635.44,0.070652
3637.99,0.070744
3640.54,0.07074
3643.1,0.070773
3645.66,0.070891
3648.23,0.070826
3650.8,0.070713
3653.37,0.070671
3655.95,0.070725
3658.53,0.070817
3661.11,0.070931
3663.7,0.070974
3666.29,0.070963
3668.89,0.07092
3671.48,0.070902
3674.09,0.070969
3676.69,0.071047
3679.3,0.070993
3681.91,0.071061
3684.53,0.07112
3687.15,0.071058
3689.78,0.071068
3692.4,0.071198
3695.04,0.071206
3697.67,0.071167
3700.31,0.071187
3702.95,0.071228
3705.6,0.071293
3708.25,0.071258
3710.91,0.071148
3713.56,0.071194
3716.23,0.071328
3718.89,0.071284
3721.56,0.071266
3724.23,0.071407
3726.91,0.07149
3729.59,0.071474
3732.28,0.071443
3734.97,0.071502
3737.66,0.071486
3740.36,0.071508
3743.06,0.07164
3745.76,0.071635
3748.47,0.071564
3751.18,0.071534
3753.9,0.071563
3756.62,0.071635
3759.34,0.071663
3762.07,0.071723
3764.8,0.071739
3767.54,0.071654
3770.28,0.071663
3773.02,0.071715
3775.77,0.07174
3778.52,0.071674
3781.28,0.071749
3784.04,0.071867
3786.8,0.071892
3789.57,0.071897
3792.34,0.071899
3795.12,0.071853
3797.9,0.071812
3800.69,0.071833
3803.47,0.071945
3806.27,0.07207
3809.06,0.072047
3811.86,0.072021
3814.67,0.072044
3817.48,0.072108
3820.29,0.072165
3823.11,0.072247
3825.93,0.072223
3828.76,0.072121
3831.59,0.072184
3834.42,0.072266
3837.26,0.072268
3840.1,0.072326
3842.95,0.072379
3845.8,0.07237
3848.65,0.072315
3851.51,0.072353
3854.38,0.072419
3857.24,0.072429
3860.12,0.072435
3862.99,0.072452
3865.87,0.072451
3868.76,0.072478
3871.65,0.072544
3874.54,0.072599
3877.44,0.072621
3880.34,0.072617
3883.25,0.072664
3886.16,0.07267
3889.07,0.072662
3891.99,0.072735
3894.92,0.072811
3897.85,0.072841
3900.78,0.072838
3903.72,0.072797
3906.66,0.07288
3909.6,0.07301
3912.55,0.073008
3915.51,0.07294
3918.47,0.072939
3921.43,0.072923
3924.4,0.072963
3927.38,0.073102
3930.35,0.073133
3933.33,0.07306
3936.32,0.073064
3939.31,0.073109
3942.31,0.073183
3945.31,0.073215
3948.31,0.073295
3951.32,0.073302
3954.34,0.073144
3957.35,0.073108
3960.38,0.073208
3963.41,0.073284
3966.44,0.07337
3969.48,0.073464
3972.52,0.073495
3975.56,0.073475
3978.61,0.073461
3981.67,0.073557
3984.73,0.073604
3987.8,0.073615
3990.87,0.073621
3993.94,0.073629
3997.02,0.073626
4000.1,0.073717
4003.19,0.073755
4006.29,0.073642
4009.39,0.073598
4012.49,0.073729
4015.6,0.073821
4018.71,0.073843
4021.83,0.073859
4024.95,0.073819
4028.08,0.07388
4031.21,0.074048
4034.35,0.074113
4037.49,0.074043
4040.64,0.074021
4043.79,0.07413
4046.94,0.074183
4050.11,0.074203
4053.27,0.074217
4056.44,0.074283
4059.62,0.07436
4062.8,0.074374
4065.99,0.074401
4069.18,0.074423
4072.38,0.074415
4075.58,0.074353
4078.78,0.074432
4082.0,0.074525
4085.21,0.074541
4088.43,0.074562
4091.66,0.07459
4094.89,0.074637
4098.13,0.074612
4101.37,0.074632
4104.62,0.074722
4107.87,0.074814
4111.13,0.074737
4114.39,0.07469
4117.66,0.074757
4120.93,0.074803
4124.21,0.074815
4127.5,0.074812
4130.79,0.074869
4134.08,0.074965
4137.38,0.075019
4140.68,0.074971
4143.99,0.075022
4147.31,0.075139
4150.63,0.075207
4153.95,0.075159
4157.29,0.075101
4160.62,0.075147
4163.96,0.075222
4167.31,0.075225
4170.66,0.075303
4174.02,0.075333
4177.39,0.075287
4180.75,0.075266
4184.13,0.075313
4187.51,0.075304
4190.89,0.075349
4194.28,0.075469
4197.68,0.07553
4201.08,0.075527
4204.49,0.0755
4207.9,0.075611
4211.32,0.075701
4214.74,0.075634
4218.17,0.07567
4221.61,0.075869
4225.05,0.076012
4228.5,0.076083
4231.95,0.07608
4235.4,0.076079
4238.87,0.076127
4242.34,0.076153
4245.81,0.0763
4249.29,0.076276
4252.78,0.076153
4256.27,0.076168
4259.77,0.076147
4263.27,0.076173
4266.78,0.076211
4270.29,0.076234
4273.81,0.076293
4277.34,0.076423
4280.87,0.076483
4284.41,0.076593
4287.95,0.076617
4291.5,0.076614
4295.06,0.076628
4298.62,0.076642
4302.19,0.076658
4305.76,0.076695
4309.34,0.076745
4312.92,0.076813
4316.52,0.076812
4320.11,0.076777
4323.72,0.076745
4327.32,0.076791
4330.94,0.076896
4334.56,0.076916
4338.19,0.076891
4341.82,0.076947
4345.46,0.076999
4349.11,0.07701
4352.76,0.077083
4356.42,0.077222
4360.08,0.077227
4363.75,0.077165
4367.43,0.077278
4371.11,0.077411
4374.8,0.077418
4378.49,0.077336
4382.19,0.077362
4385.9,0.077425
4389.61,0.077391
4393.33,0.077453
4397.06,0.077535
4400.79,0.077521
4404.53,0.07759
4408.28,0.077674
4412.03,0.077692
4415.79,0.077747
4419.55,0.077774
4423.32,0.077763
4427.1,0.077817
4430.88,0.077888
4434.68,0.077896
4438.47,0.077939
4442.28,0.077962
4446.08,0.07794
4449.9,0.077955
4453.72,0.077994
4457.55,0.07803
4461.39,0.078089
4465.23,0.078153
4469.08,0.078256
4472.94,0.078347
4476.8,0.078378
4480.67,0.078338
4484.55,0.078302
4488.43,0.078393
4492.32,0.078478
4496.21,0.078519
4500.12,0.07855
4504.03,0.078606
4507.94,0.078585
4511.87,0.078597
4515.8,0.078698
4519.73,0.078769
4523.68,0.078803
4527.63,0.078823
4531.59,0.07882
4535.55,0.078831
4539.52,0.07892
4543.5,0.078974
4547.49,0.079013
4551.48,0.079086
4555.48,0.079122
4559.49,0.079065
4563.5,0.07908
4567.52,0.079162
4571.55,0.079203
4575.58,0.079251
4579.63,0.079298
4583.67,0.079296
4587.73,0.079299
4591.79,0.079311
4595.86,0.079345
4599.94,0.079419
4604.03,0.079525
4608.12,0.07959
4612.22,0.079668
4616.33,0.079659
4620.44,0.079715
4624.56,0.079753
4628.69,0.079757
4632.83,0.079781
4636.97,0.079818
4641.12,0.079836
4645.28,0.079869
4649.45,0.079944
4653.62,0.079964
4657.8,0.080014
4661.99,0.08007
4666.19,0.080118
4670.39,0.080173
4674.6,0.080194
4678.82,0.08024
4683.05,0.080315
4687.28,0.080353
4691.52,0.080414
4695.77,0.080454
4700.03,0.080414
4704.3,0.080448
4708.57,0.080571
4712.85,0.080643
4717.14,0.080626
4721.43,0.080626
4725.74,0.080718
4730.05,0.08082
4734.37,0.08087
4738.7,0.080935
4743.03,0.080996
4747.38,0.081038
4751.73,0.080989
4756.09,0.081083
4760.45,0.081221
4764.83,0.08126
4769.21,0.081222
4773.6,0.081195
4778.0,0.081211
4782.41,0.081248
4786.83,0.081272
4791.25,0.081286
4795.68,0.081338
4800.13,0.081495
4804.57,0.081601
4809.03,0.081572
4813.5,0.081581
4817.97,0.081647
4822.45,0.081656
4826.94,0.081708
4831.44,0.081749
4835.95,0.08176
4840.46,0.081843
4844.99,0.081918
4849.52,0.081935
4854.06,0.081931
4858.61,0.081966
4863.17,0.082082
4867.73,0.082085
4872.31,0.082067
4876.89,0.082164
4881.48,0.082238
4886.08,0.082241
4890.69,0.082244
4895.31,0.082299
4899.94,0.082362
4904.57,0.082378
4909.22,0.082502
4913.87,0.082557
4918.53,0.082568
4923.21,0.082644
4927.88,0.082632
4932.57,0.082672
4937.27,0.082743
4941.98,0.082744
4946.69,0.082796
4951.42,0.08287
4956.15,0.082907
4960.9,0.08292
4965.65,0.082917
4970.41,0.082958
4975.18,0.083056
4979.96,0.083124
4984.75,0.083116
4989.54,0.083132
4994.35,0.08326
4999.17,0.083338
5003.99,0.083367
5008.83,0.08341
5013.67,0.083411
5018.52,0.083427
5023.39,0.083523
5028.26,0.08363
5033.14,0.083663
5038.03,0.083611
5042.93,0.083641
5047.84,0.083765
5052.76,0.083853
5057.69,0.083868
5062.63,0.083935
5067.58,0.083975
5072.54,0.083954
5077.51,0.083936
5082.49,0.083976
5087.47,0.084058
5092.47,0.084121
5097.48,0.08416
5102.5,0.084192
5107.52,0.08421
5112.56,0.08431
5117.61,0.084346
5122.66,0.08432
5127.73,0.084374
5132.81,0.084438
5137.89,0.084428
5142.99,0.084529
5148.1,0.084629
5153.22,0.084679
5158.34,0.084743
5163.48,0.084702
5168.63,0.084711
5173.79,0.084753
5178.96,0.084827
5184.13,0.084923
5189.32,0.084979
5194.52,0.084974
5199.73,0.084966
5204.96,0.085049
5210.19,0.085067
5215.43,0.0851
5220.68,0.085221
5225.94,0.085288
5231.22,0.085246
5236.5,0.085251
5241.79,0.085351
5247.1,0.08543
5252.42,0.085435
5257.74,0.085475
5263.08,0.085557
5268.43,0.085611
5273.79,0.085612
5279.16,0.085644
5284.54,0.08573
5289.93,0.085799
5295.34,0.085847
5300.75,0.08584
5306.18,0.085777
5311.61,0.085771
5317.06,0.085859
5322.52,0.085961
5327.99,0.086024
5333.47,0.086081
5338.96,0.08614
5344.47,0.086187
5349.98,0.086176
5355.51,0.086247
5361.05,0.086315
5366.6,0.086385
5372.16,0.086393
5377.73,0.086364
5383.32,0.086457
5388.91,0.086563
5394.52,0.086578
5400.14,0.086651
5405.77,0.086752
5411.41,0.08676
5417.07,0.086734
5422.74,0.086791
5428.41,0.086873
5434.1,0.086846
5439.81,0.086937
5445.52,0.087047
5451.25,0.087066
5456.98,0.087065
5462.73,0.087094
5468.5,0.087189
5474.27,0.087265
5480.06,0.087287
5485.86,0.087315
5491.67,0.087331
5497.49,0.08736
5503.33,0.087458
5509.18,0.087514
5515.04,0.087527
5520.91,0.087577
5526.8,0.087592
5532.69,0.087589
5538.61,0.087668
5544.53,0.087718
5550.47,0.08778
5556.41,0.087855
5562.38,0.087855
5568.35,0.087879
5574.34,0.08795
5580.34,0.088056
5586.35,0.088133
5592.38,0.088108
5598.42,0.088064
5604.47,0.088121
5610.54,0.088194
5616.61,0.088201
5622.71,0.088246
5628.81,0.088275
5634.93,0.088315
5641.06,0.088424
5647.21,0.08855
5653.36,0.088542
5659.54,0.088567
5665.72,0.088606
5671.92,0.088589
5678.13,0.088661
5684.36,0.088743
5690.6,0.088813
5696.85,0.088846
5703.12,0.088886
5709.4,0.089013
5715.69,0.089124
5722.0,0.089165
5728.33,0.089192
5734.66,0.08921
5741.01,0.089286
5747.38,0.089351
5753.76,0.089423
5760.15,0.089425
5766.56,0.08949
5772.98,0.089699
5779.41,0.089633
5785.86,0.089647
5792.33,0.089651
5798.81,0.089625
5805.3,0.089705
5811.81,0.089789
5818.33,0.089818
5824.87,0.089967
5831.42,0.09006
5837.99,0.090046
5844.57,0.09003
5851.17,0.090017
5857.78,0.090037
5864.41,0.090132
5871.05,0.090194
5877.7,0.09023
5884.38,0.090516
5891.06,0.090543
5897.76,0.09047
5904.48,0.090559
5911.21,0.090421
5917.96,0.090393
5924.73,0.090461
5931.5,0.090583
5938.3,0.090733
5945.11,0.090862
5951.93,0.090757
5958.78,0.090757
5965.63,0.090797
5972.51,0.090904
5979.39,0.090922
5986.3,0.090888
5993.22,0.091004
6000.16,0.091085
6007.11,0.091009
6014.08,0.091049
6021.06,0.091199
6028.06,0.091188
6035.08,0.091132
6042.12,0.091141
6049.17,0.091389
6056.23,0.091668
6063.32,0.09151
6070.42,0.091467
6077.53,0.091561
6084.67,0.091593
6091.82,0.091573
6098.98,0.091591
6106.17,0.091612
6113.37,0.091668
6120.58,0.091757
6127.82,0.091758
6135.07,0.091708
6142.34,0.091704
6149.63,0.091811
6156.93,0.091889
6164.25,0.091986
6171.59,0.091992
6178.95,0.091956
6186.32,0.09207
6193.71,0.092217
6201.12,0.092159
6208.54,0.092153
6215.99,0.092206
6223.45,0.092248
6230.93,0.092257
6238.43,0.092285
6245.95,0.092295
6253.48,0.092363
6261.03,0.092435
6268.6,0.09247
6276.19,0.092516
6283.8,0.092515
6291.43,0.092528
6299.07,0.092563
6306.73,0.092593
6314.42,0.092626
6322.12,0.092659
6329.84,0.092718
6337.57,0.092773
6345.33,0.092955
6353.11,0.093098
6360.9,0.092951
6368.72,0.092971
6376.55,0.093132
6384.4,0.093149
6392.27,0.093117
6400.17,0.09314
6408.08,0.093161
6416.01,0.093446
6423.96,0.093641
6431.93,0.093519
6439.92,0.093465
6447.93,0.093413
6455.96,0.093499
6464.01,0.093553
6472.08,0.093591
6480.17,0.093698
6488.28,0.093815
6496.41,0.093932
6504.56,0.094
6512.73,0.093875
6520.92,0.093859
6529.14,0.09391
6537.37,0.093922
6545.63,0.093939
6553.9,0.093932
6562.2,0.093992
6570.51,0.094117
6578.85,0.094352
6587.21,0.094307
6595.59,0.094257
6603.99,0.094274
6612.42,0.0943
6620.86,0.094355
6629.33,0.094398
6637.82,0.094566
6646.33,0.094666
6654.86,0.094518
6663.41,0.094485
6671.99,0.094557
6680.59,0.094676
6689.21,0.094767
6697.85,0.094718
6706.51,0.09473
6715.2,0.094891
6723.91,0.094935
6732.64,0.094936
6741.4,0.094994
6750.18,0.095008
6758.98,0.095034
6767.8,0.095066
6776.65,0.095188
6785.52,0.095301
6794.41,0.095386
6803.33,0.095386
6812.27,0.095333
6821.23,0.095387
6830.22,0.095483
6839.23,0.095529
6848.26,0.09556
6857.32,0.09565
6866.4,0.095779
6875.51,0.095838
6884.64,0.095748
6893.8,0.095743
6902.98,0.09576
6912.18,0.095901
6921.41,0.095962
6930.66,0.095976
6939.94,0.095989
6949.24,0.095994
6958.57,0.096082
6967.92,0.09626
6977.3,0.096225
6986.7,0.096235
6996.13,0.096211
7005.59,0.096195
7015.07,0.096215
7024.57,0.096238
7034.1,0.096305
7043.66,0.096425
7053.25,0.096608
7062.85,0.096635
7072.49,0.096603
7082.15,0.096645
7091.84,0.096697
7101.55,0.096725
7111.3,0.096793
7121.06,0.096895
7130.86,0.096949
7140.68,0.096958
7150.53,0.097044
7160.41,0.097069
7170.31,0.097148
7180.24,0.097234
7190.2,0.097194
7200.19,0.09724
7210.2,0.097299
7220.24,0.097377
7230.31,0.097394
7240.41,0.097387
7250.54,0.097426
7260.69,0.097533
7270.88,0.097568
7281.09,0.097667
7291.33,0.097694
7301.6,0.097696
7311.9,0.097704
7322.22,0.097797
7332.58,0.09789
7342.97,0.09792
7353.38,0.097908
7363.83,0.097953
7374.3,0.097984
7384.81,0.09803
7395.34,0.098048
7405.91,0.098106
7416.5,0.098105
7427.13,0.098128
7437.78,0.098173
7448.47,0.098232
7459.19,0.09832
7469.94,0.098362
7480.71,0.098381
7491.52,0.098399
7502.37,0.09841
7513.24,0.09845
7524.14,0.098506
7535.08,0.09852
7546.05,0.098557
7557.05,0.098637
7568.08,0.098654
7579.15,0.09869
7590.24,0.098742
7601.37,0.098771
7612.53,0.098805
7623.73,0.098823
7634.96,0.098881
7646.22,0.098913
7657.51,0.098892
7668.84,0.098899
7680.2,0.09888
7691.59,0.098946
7703.02,0.099029
7714.49,0.09913
7725.98,0.099191
7737.52,0.09923
7749.08,0.099276
7760.68,0.099334
7772.32,0.099426
7783.99,0.099523
7795.69,0.099555
7807.43,0.09954
7819.21,0.099565
7831.02,0.099622
7842.87,0.099644
7854.75,0.099701
7866.67,0.099753
7878.62,0.099848
7890.62,0.099959
7902.64,0.100078
7914.71,0.100152
7926.81,0.100212
7938.95,0.10021
7951.13,0.100218
7963.34,0.10021
7975.59,0.100195
7987.88,0.100234
8000.21,0.100286
8012.57,0.10031
8024.98,0.10027
8037.42,0.100254
8049.9,0.100309
8062.42,0.100376
8074.98,0.100384
8087.57,0.100352
8100.21,0.100432
8112.89,0.100485
8125.6,0.100464
8138.36,0.100491
8151.16,0.100552
8163.99,0.100584
8176.87,0.100617
8189.79,0.100674
8202.75,0.100765
8215.75,0.100817
8228.79,0.100876
8241.87,0.10095
8254.99,0.10096
8268.16,0.100955
8281.37,0.101007
8294.62,0.101035
8307.91,0.101082
8321.24,0.101161
8334.62,0.101246
8348.04,0.101352
8361.51,0.101388
8375.02,0.101402
8388.57,0.101408
8402.16,0.101475
8415.8,0.101507
8429.49,0.101516
8443.22,0.101559
8456.99,0.101583
8470.81,0.101631
8484.67,0.101691
8498.58,0.101741
8512.54,0.101787
8526.54,0.101813
8540.58,0.101884
8554.68,0.101933
8568.82,0.101929
8583.0,0.101959
8597.24,0.10199
8611.52,0.102048
8625.85,0.102122
8640.23,0.102196
8654.65,0.102228
8669.12,0.102298
8683.64,0.102332
8698.21,0.102356
8712.83,0.102364
8727.5,0.102389
8742.22,0.102514
8756.99,0.102656
8771.8,0.102645
8786.67,0.102612
8801.59,0.1027
8816.56,0.102809
8831.58,0.102834
8846.65,0.102874
8861.77,0.102929
8876.94,0.103009
8892.17,0.103057
8907.45,0.103205
8922.78,0.103304
8938.16,0.103323
8953.6,0.103394
8969.09,0.103492
8984.64,0.10351
9000.23,0.103435
9015.89,0.103423
9031.59,0.103521
9047.36,0.103656
9063.17,0.103691
9079.05,0.103698
9094.97,0.10373
9110.96,0.10374
9127.0,0.103722
9143.1,0.103661
9159.25,0.103706
9175.46,0.103851
9191.73,0.103909
9208.06,0.103953
9224.44,0.10402
9240.88,0.104102
9257.38,0.104168
9273.94,0.104251
9290.56,0.104213
9307.24,0.104138
9323.98,0.104139
9340.78,0.104279
9357.64,0.104418
9374.57,0.104467
9391.55,0.104489
9408.59,0.104521
9425.7,0.104554
9442.87,0.104595
9460.1,0.10462
9477.4,0.104698
9494.75,0.104774
9512.17,0.104842
9529.66,0.104905
9547.21,0.104857
9564.83,0.104906
9582.5,0.104973
9600.25,0.104983
9618.06,0.10493
9635.94,0.105004
9653.88,0.105045
9671.89,0.105087
9689.97,0.105181
9708.12,0.105284
9726.33,0.105336
9744.62,0.105457
9762.97,0.105468
9781.39,0.105417
9799.88,0.105439
9818.44,0.105479
9837.07,0.10549
9855.77,0.105503
9874.54,0.105594
9893.39,0.105735
9912.3,0.105771
9931.29,0.105761
9950.36,0.105786
9969.49,0.105818
9988.7,0.105846
10007.98,0.105881
10027.34,0.105961
10046.77,0.106005
10066.28,0.105981
10085.87,0.106029
10105.53,0.106027
10125.26,0.105943
10145.08,0.105974
10164.97,0.106079
10184.94,0.106161
10204.99,0.106123
10225.12,0.106134
10245.33,0.106199
10265.61,0.10622
10285.98,0.106259
10306.43,0.106312
10326.96,0.106345
10347.57,0.106411
10368.27,0.106431
10389.05,0.106437
10409.91,0.106445
10430.86,0.106468
10451.88,0.106551
10473.0,0.106619
10494.2,0.106661
10515.49,0.106685
10536.86,0.106742
10558.32,0.106813
10579.87,0.106847
10601.5,0.107007
10623.23,0.107118
10645.04,0.10707
10666.94,0.107075
10688.94,0.107185
10711.02,0.107363
10733.2,0.107427
10755.47,0.107428
10777.83,0.107497
10800.28,0.10762
10822.83,0.107615
10845.47,0.107684
10868.21,0.107765
10891.04,0.107864
10913.97,0.107922
10936.99,0.107969
10960.12,0.108048
10983.34,0.10816
11006.66,0.108184
11030.07,0.108328
11053.59,0.108393
11077.21,0.108396
11100.93,0.108419
11124.75,0.108495
11148.68,0.10858
11172.71,0.108745
11196.84,0.108768
11221.07,0.108695
11245.41,0.108704
11269.86,0.108749
11294.41,0.108837
11319.07,0.109015
11343.84,0.109063
11368.72,0.109064
11393.7,0.109181
11418.8,0.109367
11444.01,0.109391
11469.33,0.109357
11494.76,0.109382
11520.3,0.109406
11545.96,0.109443
11571.73,0.109467
11597.62,0.109495
11623.62,0.109596
11649.74,0.109716
11675.98,0.109673
11702.34,0.109637
11728.81,0.109771
11755.41,0.109829
11782.13,0.109811
11808.96,0.109823
11835.92,0.109923
11863.01,0.110028
11890.22,0.109894
11917.55,0.109908
11945.01,0.110128
11972.6,0.11019
12000.31,0.110203
12028.16,0.110292
12056.13,0.110285
12084.23,0.110291
12112.46,0.11047
12140.83,0.110664
12169.33,0.110735
12197.96,0.110766
12226.73,0.110823
12255.64,0.110945
12284.68,0.111089
12313.86,0.111108
12343.18,0.111211
12372.64,0.111156
12402.24,0.111087
12431.98,0.111196
12461.86,0.111401
12491.89,0.111433
12522.07,0.111381
12552.38,0.111347
12582.85,0.111421
12613.47,0.111595
12644.23,0.111842
12675.15,0.111863
12706.21,0.111804
12737.43,0.111741
12768.81,0.11176
12800.33,0.111838
12832.02,0.111909
12863.86,0.111977
12895.86,0.112092
12928.02,0.112211
12960.34,0.11229
12992.82,0.112251
13025.46,0.11233
13058.27,0.112464
13091.25,0.1125
13124.39,0.112455
13157.7,0.11247
13191.18,0.11261
13224.83,0.112728
13258.66,0.11269
13292.65,0.112788
13326.83,0.112962
13361.17,0.113027
13395.7,0.113147
13430.4,0.113355
13465.29,0.113427
13500.35,0.113489
13535.6,0.113504
13571.03,0.113556
13606.65,0.113697
13642.46,0.113938
13678.46,0.114024
13714.64,0.113977
13751.02,0.114043
13787.59,0.114136
13824.36,0.114184
13861.32,0.114203
13898.49,0.114262
13935.85,0.114402
13973.41,0.114571
14011.17,0.114729
14049.15,0.114724
14087.32,0.114788
14125.71,0.114881
14164.3,0.114855
14203.11,0.114949
14242.13,0.115128
14281.36,0.115182
14320.81,0.115366
14360.49,0.115392
14400.38,0.11543
14440.49,0.115537
14480.82,0.115681
14521.39,0.115881
14562.18,0.116081
14603.2,0.116243
14644.45,0.116293
14685.93,0.116293
14727.66,0.116481
14769.62,0.116704
14811.81,0.11691
14854.25,0.11695
14896.94,0.117018
14939.87,0.117285
14983.05,0.117682
15026.48,0.117761
15070.16,0.117764
15114.1,0.117899
15158.29,0.1183
15202.74,0.118595
15247.46,0.118716
15292.43,0.118862
15337.68,0.118995
15383.19,0.119213
15428.97,0.119581
15475.03,0.119756
15521.36,0.119941
15567.97,0.120133
15614.87,0.120187
15662.04,0.120341
15709.5,0.120671
15757.25,0.121014
15805.29,0.121283
15853.62,0.121543
15902.26,0.121662
15951.19,0.12181
16000.42,0.122124
16049.95,0.122584
16099.8,0.12299
16149.95,0.123316
16200.42,0.123604
16251.21,0.12399
16302.31,0.124381
16353.74,0.124935
16405.49,0.125458
16457.57,0.125761
16509.98,0.126104
16562.73,0.126698
16615.82,0.127236
16669.24,0.12791
16723.02,0.128596
16777.14,0.129284
16831.61,0.130123
16886.43,0.131101
16941.62,0.132104
16997.16,0.133175
17053.08,0.134247
17109.36,0.135406
17166.01,0.136731
17223.04,0.137985
17280.45,0.139605
17338.24,0.141553
17396.43,0.143882
17455.0,0.145945
17513.97,0.147917
17573.34,0.150134
17633.11,0.152619
17693.29,0.155086
17753.89,0.157398
17814.9,0.159547
17876.33,0.16128
17938.18,0.162333
18000.47,0.16297
18063.19,0.163071
18126.35,0.162625
18189.95,0.161234
18254.0,0.159272
18318.5,0.157409
18383.46,0.155399
18448.88,0.153049
18514.77,0.150898
18581.13,0.149075
18647.97,0.147405
18715.29,0.145664
18783.1,0.144235
18851.4,0.142816
18920.2,0.141516
18989.51,0.14056
19059.32,0.139536
19129.65,0.138443
19200.5,0.137694
19271.88,0.137239
19343.79,0.13687
19416.24,0.13625
19489.23,0.13557
19562.77,0.135105
19636.88,0.134765
19711.54,0.134381
19786.78,0.134165
19862.59,0.133728
19938.98,0.133533
20015.96,0.133477
20093.55,0.133351
20171.73,0.133324
20250.53,0.133354
20329.94,0.133344
20409.98,0.132972
20490.65,0.133055
20571.96,0.133252
20653.92,0.133145
20736.54,0.133071
20819.82,0.132836
20903.77,0.132807
20988.4,0.133301
21073.72,0.133564
21159.73,0.133591
21246.46,0.133333
21333.89,0.133073
21422.04,0.133356
21510.93,0.133698
21600.56,0.134143
21690.94,0.13388
21782.08,0.13409
21873.99,0.135048
21966.67,0.135351
22060.15,0.135349
22154.42,0.135319
22249.51,0.134956
22345.41,0.134929
22442.14,0.135835
22539.72,0.136819
22638.14,0.136805
22737.43,0.136707
22837.6,0.136688
22938.65,0.136849
23040.6,0.137146
23143.46,0.137444
23247.24,0.137053
23351.96,0.137166
23457.63,0.138123
23564.25,0.138645
23671.85,0.138398
23780.44,0.138496
23890.02,0.138725
24000.63,0.139552
24112.26,0.140332
24224.93,0.140539
24338.66,0.140379
24453.47,0.141486
24569.36,0.142352
24686.36,0.141847
24804.47,0.142427
24923.73,0.143404
25044.13,0.144269
25165.71,0.14477
25288.46,0.145311
25412.43,0.147356
25537.61,0.147756
25664.04,0.146712
25791.72,0.147953
25920.68,0.149056
