Database of Origin,University of Winnipeg Spectrophotometer Facility
Sample Description,9.2. MAGNETITE: Merged RELAB & Nicole / Merged at 2.5 um / different viewing geometry
Date Added,2016-07-15 22:03:00.169190

Data ID,RPN_MAG_08          
Sample ID,MAG108
Mineral Name,Magnetite
Grain Size,<45
Viewing Geometry,30 / 0 | 30
Resolution,1.2-129
Material Class,Magnetite

Wavelength
305.0,0.044703
310.0,0.04618
315.0,0.044661
320.0,0.045404
325.0,0.045666
330.0,0.046298
335.0,0.046512
340.0,0.04615
345.0,0.046684
350.0,0.046664
355.0,0.046996
360.0,0.046879
365.0,0.047298
370.0,0.047542
375.0,0.047418
380.0,0.048002
385.0,0.047938
390.0,0.048023
395.0,0.048171
400.0,0.048428
405.0,0.048251
410.0,0.048474
415.0,0.048509
420.0,0.048309
425.0,0.047851
430.0,0.047799
435.0,0.047683
440.0,0.047598
445.0,0.047222
450.0,0.047433
455.0,0.047136
460.0,0.046989
465.0,0.0469
470.0,0.046765
475.0,0.046702
480.0,0.046736
485.0,0.046758
490.0,0.046686
495.0,0.046717
500.0,0.046638
505.0,0.046623
510.0,0.0466
515.0,0.046726
520.0,0.046705
525.0,0.046954
530.0,0.047049
535.0,0.047188
540.0,0.047411
545.0,0.047659
550.0,0.047805
555.0,0.047968
560.0,0.048242
565.0,0.048467
570.0,0.048723
575.0,0.04897
580.0,0.049298
585.0,0.049544
590.0,0.049819
595.0,0.050151
600.0,0.050503
605.0,0.050715
610.0,0.051109
615.0,0.051412
620.0,0.051736
625.0,0.051952
630.0,0.052143
635.0,0.052344
640.0,0.052448
645.0,0.052539
650.0,0.052595
655.0,0.052568
660.0,0.052622
665.0,0.052575
670.0,0.052514
675.0,0.052549
680.0,0.0525
685.0,0.052547
690.0,0.052538
695.0,0.052499
700.0,0.052616
705.0,0.052523
710.0,0.052501
715.0,0.052491
720.0,0.05254
725.0,0.052536
730.0,0.052442
735.0,0.052371
740.0,0.052304
745.0,0.051974
750.0,0.051987
755.0,0.051784
760.0,0.0513
765.0,0.051166
770.0,0.050958
775.0,0.05078
780.0,0.050538
785.0,0.050401
790.0,0.050436
795.0,0.050152
800.0,0.04994
805.0,0.049694
810.0,0.049587
815.0,0.049283
820.0,0.048902
825.0,0.048959
830.0,0.04854
835.0,0.048231
840.0,0.048218
845.0,0.048007
850.0,0.047854
855.0,0.047335
860.0,0.046422
865.0,0.046706
870.0,0.046313
875.0,0.046246
880.0,0.046177
885.0,0.045964
890.0,0.046215
895.0,0.045818
900.0,0.04512
905.0,0.045103
910.0,0.044573
915.0,0.044609
920.0,0.044347
925.0,0.044354
930.0,0.044368
935.0,0.043933
940.0,0.043931
945.0,0.043714
950.0,0.043614
955.0,0.043558
960.0,0.043517
965.0,0.042914
970.0,0.043463
975.0,0.043131
980.0,0.043225
985.0,0.043206
990.0,0.042943
995.0,0.043071
1000.0,0.043026
1005.0,0.042989
1010.0,0.042869
1015.0,0.042911
1020.0,0.042864
1025.0,0.04299
1030.0,0.042968
1035.0,0.042964
1040.0,0.043108
1045.0,0.042833
1050.0,0.042918
1055.0,0.043026
1060.0,0.043101
1065.0,0.042931
1070.0,0.042561
1075.0,0.042358
1080.0,0.042588
1085.0,0.042437
1090.0,0.04241
1095.0,0.042607
1100.0,0.042568
1105.0,0.042459
1110.0,0.042531
1115.0,0.042581
1120.0,0.042485
1125.0,0.042507
1130.0,0.042552
1135.0,0.042292
1140.0,0.042654
1145.0,0.042694
1150.0,0.04286
1155.0,0.042871
1160.0,0.042725
1165.0,0.042962
1170.0,0.043025
1175.0,0.043039
1180.0,0.04341
1185.0,0.04314
1190.0,0.043279
1195.0,0.043566
1200.0,0.043499
1205.0,0.043711
1210.0,0.043742
1215.0,0.043759
1220.0,0.043872
1225.0,0.044007
1230.0,0.044073
1235.0,0.044078
1240.0,0.044053
1245.0,0.043936
1250.0,0.044046
1255.0,0.044101
1260.0,0.04426
1265.0,0.044468
1270.0,0.044506
1275.0,0.044573
1280.0,0.044732
1285.0,0.044825
1290.0,0.044868
1295.0,0.044868
1300.0,0.045029
1305.0,0.045228
1310.0,0.045223
1315.0,0.04538
1320.0,0.045399
1325.0,0.045403
1330.0,0.045799
1335.0,0.045987
1340.0,0.046036
1345.0,0.046092
1350.0,0.045994
1355.0,0.046164
1360.0,0.046104
1365.0,0.04616
1370.0,0.046632
1375.0,0.046571
1380.0,0.046761
1385.0,0.046168
1390.0,0.047042
1395.0,0.046971
1400.0,0.047103
1405.0,0.047275
1410.0,0.047293
1415.0,0.047351
1420.0,0.047503
1425.0,0.047724
1430.0,0.047588
1435.0,0.048134
1440.0,0.048115
1445.0,0.048168
1450.0,0.048252
1455.0,0.04854
1460.0,0.048626
1465.0,0.048812
1470.0,0.048788
1475.0,0.04902
1480.0,0.049381
1485.0,0.049247
1490.0,0.04931
1495.0,0.049585
1500.0,0.049693
1505.0,0.04989
1510.0,0.0499
1515.0,0.049947
1520.0,0.050246
1525.0,0.050533
1530.0,0.050369
1535.0,0.050704
1540.0,0.050728
1545.0,0.05129
1550.0,0.051588
1555.0,0.05162
1560.0,0.051731
1565.0,0.051714
1570.0,0.051916
1575.0,0.051853
1580.0,0.052474
1585.0,0.052291
1590.0,0.052631
1595.0,0.052741
1600.0,0.052675
1605.0,0.052826
1610.0,0.053065
1615.0,0.053411
1620.0,0.053219
1625.0,0.053136
1630.0,0.053515
1635.0,0.053489
1640.0,0.053711
1645.0,0.053959
1650.0,0.053764
1655.0,0.054145
1660.0,0.053793
1665.0,0.053834
1670.0,0.053864
1675.0,0.05407
1680.0,0.054234
1685.0,0.05426
1690.0,0.054163
1695.0,0.054531
1700.0,0.054984
1705.0,0.054748
1710.0,0.054954
1715.0,0.055054
1720.0,0.054977
1725.0,0.055227
1730.0,0.055176
1735.0,0.055246
1740.0,0.05538
1745.0,0.0555
1750.0,0.05574
1755.0,0.055851
1760.0,0.055632
1765.0,0.055817
1770.0,0.055909
1775.0,0.05588
1780.0,0.05606
1785.0,0.056089
1790.0,0.056302
1795.0,0.056415
1800.0,0.056444
1805.0,0.056353
1810.0,0.056431
1815.0,0.056667
1820.0,0.056662
1825.0,0.056692
1830.0,0.05689
1835.0,0.056748
1840.0,0.056739
1845.0,0.056977
1850.0,0.056987
1855.0,0.057096
1860.0,0.057273
1865.0,0.057334
1870.0,0.057382
1875.0,0.057444
1880.0,0.057674
1885.0,0.057913
1890.0,0.05793
1895.0,0.057989
1900.0,0.058084
1905.0,0.057848
1910.0,0.057976
1915.0,0.05798
1920.0,0.058233
1925.0,0.058595
1930.0,0.058643
1935.0,0.058764
1940.0,0.058822
1945.0,0.058783
1950.0,0.059068
1955.0,0.059088
1960.0,0.059337
1965.0,0.059332
1970.0,0.059458
1975.0,0.059534
1980.0,0.059577
1985.0,0.059687
1990.0,0.059837
1995.0,0.059896
2000.0,0.059967
2005.0,0.06
2010.0,0.060204
2015.0,0.060246
2020.0,0.060369
2025.0,0.060419
2030.0,0.06051
2035.0,0.06047
2040.0,0.060635
2045.0,0.060783
2050.0,0.060752
2055.0,0.060719
2060.0,0.060846
2065.0,0.06075
2070.0,0.060737
2075.0,0.060887
2080.0,0.060825
2085.0,0.060806
2090.0,0.06104
2095.0,0.061071
2100.0,0.061296
2105.0,0.06119
2110.0,0.061242
2115.0,0.061315
2120.0,0.061264
2125.0,0.061505
2130.0,0.061498
2135.0,0.061715
2140.0,0.061642
2145.0,0.061594
2150.0,0.061712
2155.0,0.061769
2160.0,0.061953
2165.0,0.06195
2170.0,0.061703
2175.0,0.061994
2180.0,0.062075
2185.0,0.061979
2190.0,0.062025
2195.0,0.06221
2200.0,0.062139
2205.0,0.062461
2210.0,0.062297
2215.0,0.062284
2220.0,0.062367
2225.0,0.06251
2230.0,0.062719
2235.0,0.062728
2240.0,0.062837
2245.0,0.062467
2250.0,0.062843
2255.0,0.063058
2260.0,0.063145
2265.0,0.06304
2270.0,0.063174
2275.0,0.063065
2280.0,0.063451
2285.0,0.063366
2290.0,0.06367
2295.0,0.063572
2300.0,0.063883
2305.0,0.06399
2310.0,0.063912
2315.0,0.064025
2320.0,0.064015
2325.0,0.064032
2330.0,0.064215
2335.0,0.064023
2340.0,0.06445
2345.0,0.064064
2350.0,0.064358
2355.0,0.064111
2360.0,0.06408
2365.0,0.064119
2370.0,0.064012
2375.0,0.064258
2380.0,0.064348
2385.0,0.064335
2390.0,0.064483
2395.0,0.06444
2400.0,0.064468
2405.0,0.064464
2410.0,0.064604
2415.0,0.064599
2420.0,0.064863
2425.0,0.064566
2430.0,0.06469
2435.0,0.064771
2440.0,0.064902
2445.0,0.064782
2450.0,0.064868
2455.0,0.064813
2460.0,0.064733
2465.0,0.064931
2470.0,0.064881
2475.0,0.064695
2480.0,0.065078
2485.0,0.064793
2490.0,0.065004
2495.0,0.065164
2500.0,0.065177
2502.0,0.065193
2503.2,0.064885
2504.41,0.064646
2505.62,0.0644
2506.83,0.064255
2508.05,0.064531
2509.26,0.064615
2510.48,0.064606
2511.69,0.064628
2512.91,0.064899
2514.13,0.064956
2515.35,0.064975
2516.57,0.064834
2517.79,0.064785
2519.02,0.064695
2520.24,0.064621
2521.47,0.064619
2522.69,0.064613
2523.92,0.064608
2525.15,0.064684
2526.38,0.064868
2527.61,0.064902
2528.85,0.064726
2530.08,0.064863
2531.32,0.065118
2532.55,0.065082
2533.79,0.064774
2535.03,0.064419
2536.27,0.06435
2537.51,0.064574
2538.75,0.064372
2540.0,0.064475
2541.24,0.06475
2542.49,0.064454
2543.74,0.064423
2544.99,0.064492
2546.24,0.064384
2547.49,0.064548
2548.74,0.064645
2549.99,0.064523
2551.25,0.06438
2552.5,0.064415
2553.76,0.06456
2555.02,0.064861
2556.28,0.064879
2557.54,0.06506
2558.8,0.065149
2560.07,0.064735
2561.33,0.064413
2562.6,0.064286
2563.86,0.064546
2565.13,0.064747
2566.4,0.064654
2567.67,0.064597
2568.95,0.06443
2570.22,0.064468
2571.5,0.064854
2572.77,0.064913
2574.05,0.064724
2575.33,0.064469
2576.61,0.064304
2577.89,0.064328
2579.17,0.064641
2580.46,0.064801
2581.74,0.064783
2583.03,0.064653
2584.31,0.064672
2585.6,0.064711
2586.89,0.064716
2588.19,0.064567
2589.48,0.064324
2590.77,0.064406
2592.07,0.064679
2593.36,0.064775
2594.66,0.064711
2595.96,0.064911
2597.26,0.065027
2598.56,0.064829
2599.87,0.064847
2601.17,0.064791
2602.48,0.064874
2603.78,0.064854
2605.09,0.064519
2606.4,0.064632
2607.71,0.064867
2609.03,0.064975
2610.34,0.06507
2611.66,0.06514
2612.97,0.065023
2614.29,0.064806
2615.61,0.064815
2616.93,0.064817
2618.25,0.064762
2619.57,0.064802
2620.9,0.064811
2622.22,0.064737
2623.55,0.064789
2624.88,0.064805
2626.21,0.064794
2627.54,0.065031
2628.87,0.065119
2630.21,0.064874
2631.54,0.064765
2632.88,0.064946
2634.21,0.065033
2635.55,0.064836
2636.89,0.064656
2638.24,0.064662
2639.58,0.064635
2640.92,0.064735
2642.27,0.064853
2643.62,0.064663
2644.97,0.064765
2646.32,0.064637
2647.67,0.064465
2649.02,0.06478
2650.38,0.06482
2651.73,0.064472
2653.09,0.064553
2654.45,0.064972
2655.81,0.065121
2657.17,0.064995
2658.53,0.064736
2659.89,0.064553
2661.26,0.064858
2662.63,0.064885
2664.0,0.064717
2665.36,0.0646
2666.74,0.064646
2668.11,0.064789
2669.48,0.064523
2670.86,0.064509
2672.23,0.06486
2673.61,0.064693
2674.99,0.064448
2676.37,0.064552
2677.76,0.064773
2679.14,0.064787
2680.52,0.06473
2681.91,0.064492
2683.3,0.064294
2684.69,0.064208
2686.08,0.064347
2687.47,0.064307
2688.87,0.06422
2690.26,0.064156
2691.66,0.064105
2693.06,0.064201
2694.46,0.064286
2695.86,0.064591
2697.26,0.064445
2698.66,0.064335
2700.07,0.064396
2701.48,0.064574
2702.89,0.0646
2704.3,0.064404
2705.71,0.064378
2707.12,0.064383
2708.53,0.064225
2709.95,0.064158
2711.37,0.064198
2712.79,0.064028
2714.21,0.063867
2715.63,0.06393
2717.05,0.063994
2718.48,0.063865
2719.9,0.064009
2721.33,0.06408
2722.76,0.063996
2724.19,0.064086
2725.62,0.063994
2727.06,0.064082
2728.49,0.064001
2729.93,0.063946
2731.37,0.064198
2732.81,0.064362
2734.25,0.064374
2735.69,0.064316
2737.14,0.064384
2738.58,0.064093
2740.03,0.063901
2741.48,0.064155
2742.93,0.064298
2744.38,0.064237
2745.83,0.064057
2747.29,0.064041
2748.75,0.064146
2750.2,0.064177
2751.66,0.06412
2753.13,0.064103
2754.59,0.064123
2756.05,0.064199
2757.52,0.064316
2758.99,0.064333
2760.46,0.06414
2761.93,0.064056
2763.4,0.06414
2764.87,0.06422
2766.35,0.064116
2767.82,0.063969
2769.3,0.064064
2770.78,0.064102
2772.26,0.063985
2773.75,0.064018
2775.23,0.064081
2776.72,0.064135
2778.21,0.064095
2779.7,0.063864
2781.19,0.063932
2782.68,0.064197
2784.18,0.064331
2785.67,0.064224
2787.17,0.064039
2788.67,0.063904
2790.17,0.063759
2791.67,0.063859
2793.18,0.064188
2794.68,0.064144
2796.19,0.063885
2797.7,0.063585
2799.21,0.063657
2800.72,0.063945
2802.24,0.063946
2803.75,0.063949
2805.27,0.063999
2806.79,0.063843
2808.31,0.063683
2809.83,0.063442
2811.35,0.063441
2812.88,0.063839
2814.41,0.064013
2815.93,0.063851
2817.46,0.06367
2819.0,0.063585
2820.53,0.063548
2822.07,0.063635
2823.6,0.063743
2825.14,0.063673
2826.68,0.063745
2828.22,0.063629
2829.77,0.063429
2831.31,0.063583
2832.86,0.063897
2834.41,0.063554
2835.96,0.063248
2837.51,0.063243
2839.07,0.063179
2840.62,0.063344
2842.18,0.063593
2843.74,0.06363
2845.3,0.063533
2846.86,0.06339
2848.43,0.063359
2849.99,0.063354
2851.56,0.063474
2853.13,0.063437
2854.7,0.063336
2856.27,0.063275
2857.85,0.063209
2859.42,0.063224
2861.0,0.063352
2862.58,0.063519
2864.16,0.063523
2865.75,0.063443
2867.33,0.06357
2868.92,0.063637
2870.51,0.063331
2872.1,0.06317
2873.69,0.06319
2875.28,0.063068
2876.88,0.063245
2878.48,0.063343
2880.07,0.063073
2881.68,0.063185
2883.28,0.063133
2884.88,0.063028
2886.49,0.06308
2888.1,0.0632
2889.71,0.063625
2891.32,0.063777
2892.93,0.063565
2894.55,0.063399
2896.16,0.063372
2897.78,0.063277
2899.4,0.063423
2901.03,0.063518
2902.65,0.063286
2904.28,0.063192
2905.91,0.063327
2907.54,0.063232
2909.17,0.063187
2910.8,0.063215
2912.44,0.063136
2914.07,0.063094
2915.71,0.062965
2917.35,0.06285
2918.99,0.063053
2920.64,0.063264
2922.29,0.063288
2923.93,0.063339
2925.58,0.063373
2927.24,0.063276
2928.89,0.063289
2930.55,0.063269
2932.2,0.063096
2933.86,0.063038
2935.52,0.063136
2937.19,0.063152
2938.85,0.063037
2940.52,0.062852
2942.19,0.062727
2943.86,0.062896
2945.53,0.063115
2947.21,0.06301
2948.88,0.063
2950.56,0.063105
2952.24,0.063078
2953.92,0.062898
2955.61,0.062866
2957.29,0.062839
2958.98,0.062774
2960.67,0.062624
2962.36,0.062645
2964.06,0.062768
2965.75,0.062698
2967.45,0.062539
2969.15,0.062581
2970.85,0.062778
2972.55,0.062847
2974.26,0.062803
2975.97,0.062787
2977.68,0.06278
2979.39,0.062712
2981.1,0.062757
2982.82,0.062796
2984.53,0.062793
2986.25,0.062827
2987.97,0.062689
2989.7,0.062758
2991.42,0.062668
2993.15,0.062466
2994.88,0.062571
2996.61,0.062758
2998.34,0.062605
3000.08,0.062375
3001.82,0.062322
3003.55,0.062255
3005.3,0.062286
3007.04,0.062378
3008.78,0.062411
3010.53,0.062447
3012.28,0.062622
3014.03,0.062652
3015.79,0.062453
3017.54,0.062561
3019.3,0.062634
3021.06,0.062432
3022.82,0.062248
3024.58,0.06227
3026.35,0.062227
3028.12,0.062195
3029.89,0.062196
3031.66,0.06228
3033.43,0.062259
3035.21,0.062196
3036.99,0.062264
3038.77,0.062279
3040.55,0.062306
3042.33,0.062328
3044.12,0.062386
3045.91,0.062453
3047.7,0.062508
3049.49,0.062481
3051.29,0.062371
3053.08,0.062206
3054.88,0.062258
3056.68,0.062291
3058.49,0.062175
3060.29,0.062086
3062.1,0.062348
3063.91,0.062403
3065.72,0.062203
3067.54,0.062184
3069.35,0.062244
3071.17,0.062151
3072.99,0.062042
3074.81,0.062072
3076.64,0.062111
3078.47,0.062166
3080.29,0.062233
3082.13,0.062112
3083.96,0.061924
3085.79,0.061977
3087.63,0.06208
3089.47,0.062206
3091.31,0.062177
3093.16,0.062051
3095.01,0.061932
3096.85,0.062165
3098.71,0.062139
3100.56,0.062001
3102.41,0.062016
3104.27,0.062113
3106.13,0.062202
3107.99,0.062312
3109.86,0.062212
3111.73,0.061951
3113.59,0.061852
3115.47,0.062033
3117.34,0.062098
3119.21,0.062198
3121.09,0.062181
3122.97,0.06194
3124.86,0.061911
3126.74,0.061992
3128.63,0.062009
3130.52,0.062021
3132.41,0.061965
3134.3,0.061906
3136.2,0.061824
3138.1,0.0619
3140.0,0.061838
3141.9,0.0618
3143.81,0.061921
3145.71,0.061926
3147.62,0.061871
3149.54,0.061883
3151.45,0.061831
3153.37,0.061868
3155.29,0.062011
3157.21,0.062083
3159.13,0.061858
3161.06,0.061786
3162.99,0.061888
3164.92,0.061886
3166.85,0.061849
3168.79,0.061877
3170.72,0.061914
3172.67,0.061866
3174.61,0.061997
3176.55,0.062135
3178.5,0.061982
3180.45,0.061761
3182.4,0.061803
3184.36,0.061909
3186.32,0.061815
3188.27,0.061898
3190.24,0.062
3192.2,0.062067
3194.17,0.06212
3196.14,0.062045
3198.11,0.061844
3200.08,0.061914
3202.06,0.06201
3204.04,0.061939
3206.02,0.061845
3208.0,0.061795
3209.99,0.061813
3211.98,0.061802
3213.97,0.061839
3215.96,0.061952
3217.96,0.062024
3219.96,0.062036
3221.96,0.06204
3223.96,0.062036
3225.97,0.061974
3227.98,0.061836
3229.99,0.061845
3232.0,0.061794
3234.02,0.06184
3236.04,0.061876
3238.06,0.06182
3240.08,0.061967
3242.11,0.061991
3244.14,0.061961
3246.17,0.06198
3248.2,0.0619
3250.24,0.061925
3252.28,0.06205
3254.32,0.062089
3256.37,0.062031
3258.41,0.061903
3260.46,0.06182
3262.51,0.061937
3264.57,0.062096
3266.63,0.06201
3268.69,0.062014
3270.75,0.062153
3272.81,0.062012
3274.88,0.061804
3276.95,0.061889
3279.02,0.061903
3281.1,0.061964
3283.18,0.061986
3285.26,0.061866
3287.34,0.06184
3289.43,0.062047
3291.51,0.062149
3293.61,0.062041
3295.7,0.061999
3297.8,0.062069
3299.9,0.062074
3302.0,0.062121
3304.1,0.062222
3306.21,0.062234
3308.32,0.062009
3310.43,0.061921
3312.55,0.061871
3314.66,0.062042
3316.79,0.062278
3318.91,0.062206
3321.03,0.062087
3323.16,0.062136
3325.29,0.062102
3327.43,0.062037
3329.57,0.062066
3331.71,0.062052
3333.85,0.061986
3335.99,0.061973
3338.14,0.06201
3340.29,0.062043
3342.45,0.062081
3344.6,0.062044
3346.76,0.061987
3348.92,0.062066
3351.09,0.062099
3353.26,0.062077
3355.43,0.062087
3357.6,0.062148
3359.78,0.062192
3361.96,0.062183
3364.14,0.062229
3366.32,0.062145
3368.51,0.062168
3370.7,0.06217
3372.89,0.062226
3375.09,0.062257
3377.29,0.062157
3379.49,0.062123
3381.69,0.062101
3383.9,0.062177
3386.11,0.062291
3388.32,0.062173
3390.54,0.062144
3392.76,0.062219
3394.98,0.062249
3397.21,0.062345
3399.43,0.062308
3401.66,0.062292
3403.9,0.062384
3406.13,0.062419
3408.37,0.062388
3410.61,0.062422
3412.86,0.062473
3415.11,0.062494
3417.36,0.062451
3419.61,0.062315
3421.87,0.062201
3424.13,0.062254
3426.39,0.06236
3428.66,0.062413
3430.93,0.062412
3433.2,0.062465
3435.48,0.062422
3437.76,0.062248
3440.04,0.062263
3442.32,0.062378
3444.61,0.062404
3446.9,0.062509
3449.19,0.062499
3451.49,0.062419
3453.79,0.062387
3456.09,0.062492
3458.4,0.06261
3460.7,0.062554
3463.02,0.062474
3465.33,0.06252
3467.65,0.062564
3469.97,0.062612
3472.29,0.062587
3474.62,0.062542
3476.95,0.062549
3479.29,0.062513
3481.62,0.062495
3483.96,0.062554
3486.3,0.062609
3488.65,0.06252
3491.0,0.062515
3493.35,0.062569
3495.71,0.062541
3498.07,0.062621
3500.43,0.06269
3502.79,0.062626
3505.16,0.06263
3507.53,0.062672
3509.91,0.062796
3512.29,0.06284
3514.67,0.062791
3517.05,0.062687
3519.44,0.062556
3521.83,0.062527
3524.23,0.062606
3526.62,0.062698
3529.02,0.062845
3531.43,0.062874
3533.83,0.062783
3536.24,0.062854
3538.66,0.062917
3541.08,0.062818
3543.5,0.062758
3545.92,0.06288
3548.35,0.062913
3550.78,0.062917
3553.21,0.062895
3555.65,0.06286
3558.09,0.062887
3560.53,0.0629
3562.98,0.062907
3565.43,0.062961
3567.88,0.063087
3570.34,0.063268
3572.8,0.063233
3575.27,0.063007
3577.73,0.062963
3580.2,0.063147
3582.68,0.063274
3585.16,0.063193
3587.64,0.063093
3590.12,0.063238
3592.61,0.063232
3595.1,0.063191
3597.6,0.063286
3600.09,0.063303
3602.6,0.063249
3605.1,0.06307
3607.61,0.063151
3610.12,0.063291
3612.64,0.063201
3615.16,0.063202
3617.68,0.063207
3620.21,0.063271
3622.74,0.063389
3625.27,0.063412
3627.81,0.063439
3630.35,0.063462
3632.89,0.063435
3635.44,0.063375
3637.99,0.063344
3640.54,0.063373
3643.1,0.063478
3645.66,0.063557
3648.23,0.063538
3650.8,0.063552
3653.37,0.06365
3655.95,0.063687
3658.53,0.063678
3661.11,0.063685
3663.7,0.063688
3666.29,0.063661
3668.89,0.063756
3671.48,0.063754
3674.09,0.063758
3676.69,0.063704
3679.3,0.063598
3681.91,0.063719
3684.53,0.06382
3687.15,0.063759
3689.78,0.063802
3692.4,0.063813
3695.04,0.063836
3697.67,0.06388
3700.31,0.06395
3702.95,0.063938
3705.6,0.063922
3708.25,0.063839
3710.91,0.063801
3713.56,0.063981
3716.23,0.064047
3718.89,0.063915
3721.56,0.063926
3724.23,0.063963
3726.91,0.063988
3729.59,0.064038
3732.28,0.064225
3734.97,0.064288
3737.66,0.064185
3740.36,0.064121
3743.06,0.06417
3745.76,0.064251
3748.47,0.064182
3751.18,0.064152
3753.9,0.064251
3756.62,0.064289
3759.34,0.064397
3762.07,0.064501
3764.8,0.064507
3767.54,0.064443
3770.28,0.064329
3773.02,0.064354
3775.77,0.064401
3778.52,0.064424
3781.28,0.064517
3784.04,0.064536
3786.8,0.064522
3789.57,0.064558
3792.34,0.064584
3795.12,0.06459
3797.9,0.064528
3800.69,0.064489
3803.47,0.06458
3806.27,0.0647
3809.06,0.064775
3811.86,0.064748
3814.67,0.064777
3817.48,0.06492
3820.29,0.064944
3823.11,0.064915
3825.93,0.064938
3828.76,0.064956
3831.59,0.064985
3834.42,0.065019
3837.26,0.065008
3840.1,0.064974
3842.95,0.064989
3845.8,0.065053
3848.65,0.065147
3851.51,0.065247
3854.38,0.065244
3857.24,0.065249
3860.12,0.065235
3862.99,0.065239
3865.87,0.065343
3868.76,0.065353
3871.65,0.06531
3874.54,0.065235
3877.44,0.06521
3880.34,0.065249
3883.25,0.065265
3886.16,0.065336
3889.07,0.065428
3891.99,0.065482
3894.92,0.065456
3897.85,0.06543
3900.78,0.065543
3903.72,0.065583
3906.66,0.065426
3909.6,0.065469
3912.55,0.065596
3915.51,0.065697
3918.47,0.065718
3921.43,0.06562
3924.4,0.065568
3927.38,0.06569
3930.35,0.065844
3933.33,0.065786
3936.32,0.065805
3939.31,0.065762
3942.31,0.06573
3945.31,0.065862
3948.31,0.065858
3951.32,0.065869
3954.34,0.065973
3957.35,0.065976
3960.38,0.065931
3963.41,0.065891
3966.44,0.065941
3969.48,0.066007
3972.52,0.065977
3975.56,0.066012
3978.61,0.066092
3981.67,0.066142
3984.73,0.066136
3987.8,0.066207
3990.87,0.066234
3993.94,0.066196
3997.02,0.066213
4000.1,0.066324
4003.19,0.066354
4006.29,0.066375
4009.39,0.066403
4012.49,0.066337
4015.6,0.066311
4018.71,0.066427
4021.83,0.066472
4024.95,0.066491
4028.08,0.066528
4031.21,0.066479
4034.35,0.066479
4037.49,0.066576
4040.64,0.066641
4043.79,0.066712
4046.94,0.066706
4050.11,0.066754
4053.27,0.066845
4056.44,0.06678
4059.62,0.066737
4062.8,0.066851
4065.99,0.066905
4069.18,0.06687
4072.38,0.066833
4075.58,0.066886
4078.78,0.066913
4082.0,0.066891
4085.21,0.066882
4088.43,0.066931
4091.66,0.067108
4094.89,0.067177
4098.13,0.067123
4101.37,0.067161
4104.62,0.067182
4107.87,0.067127
4111.13,0.067135
4114.39,0.067157
4117.66,0.067305
4120.93,0.067373
4124.21,0.067281
4127.5,0.067281
4130.79,0.067352
4134.08,0.067405
4137.38,0.067463
4140.68,0.067467
4143.99,0.067388
4147.31,0.06746
4150.63,0.067569
4153.95,0.067468
4157.29,0.067471
4160.62,0.067574
4163.96,0.067618
4167.31,0.06764
4170.66,0.06773
4174.02,0.067829
4177.39,0.06786
4180.75,0.067852
4184.13,0.067806
4187.51,0.067767
4190.89,0.067901
4194.28,0.068
4197.68,0.067983
4201.08,0.067901
4204.49,0.067888
4207.9,0.067966
4211.32,0.068063
4214.74,0.068129
4218.17,0.068101
4221.61,0.068094
4225.05,0.068197
4228.5,0.068273
4231.95,0.068277
4235.4,0.0683
4238.87,0.068397
4242.34,0.068443
4245.81,0.068371
4249.29,0.068373
4252.78,0.068343
4256.27,0.068364
4259.77,0.068438
4263.27,0.068522
4266.78,0.068541
4270.29,0.068543
4273.81,0.068531
4277.34,0.068593
4280.87,0.068663
4284.41,0.06877
4287.95,0.068808
4291.5,0.068778
4295.06,0.068846
4298.62,0.068924
4302.19,0.068959
4305.76,0.068979
4309.34,0.068994
4312.92,0.06895
4316.52,0.069013
4320.11,0.069091
4323.72,0.069063
4327.32,0.069061
4330.94,0.069084
4334.56,0.069102
4338.19,0.069123
4341.82,0.069264
4345.46,0.069334
4349.11,0.069305
4352.76,0.069282
4356.42,0.06934
4360.08,0.069353
4363.75,0.069383
4367.43,0.069497
4371.11,0.069548
4374.8,0.069516
4378.49,0.069527
4382.19,0.069566
4385.9,0.0696
4389.61,0.069681
4393.33,0.069653
4397.06,0.069632
4400.79,0.069706
4404.53,0.069741
4408.28,0.069826
4412.03,0.069907
4415.79,0.069977
4419.55,0.07004
4423.32,0.070053
4427.1,0.070018
4430.88,0.069974
4434.68,0.069995
4438.47,0.070069
4442.28,0.070153
4446.08,0.070197
4449.9,0.070248
4453.72,0.070236
4457.55,0.070268
4461.39,0.070336
4465.23,0.070305
4469.08,0.07039
4472.94,0.070444
4476.8,0.070443
4480.67,0.070487
4484.55,0.070546
4488.43,0.070604
4492.32,0.070601
4496.21,0.070633
4500.12,0.070685
4504.03,0.070699
4507.94,0.07075
4511.87,0.070809
4515.8,0.070878
4519.73,0.07089
4523.68,0.070927
4527.63,0.070943
4531.59,0.070935
4535.55,0.070961
4539.52,0.071034
4543.5,0.071105
4547.49,0.071063
4551.48,0.071057
4555.48,0.071121
4559.49,0.071149
4563.5,0.071201
4567.52,0.071267
4571.55,0.07133
4575.58,0.071368
4579.63,0.071333
4583.67,0.071358
4587.73,0.071497
4591.79,0.071486
4595.86,0.071473
4599.94,0.07149
4604.03,0.071555
4608.12,0.071611
4612.22,0.07164
4616.33,0.071717
4620.44,0.071731
4624.56,0.071731
4628.69,0.071769
4632.83,0.071822
4636.97,0.071892
4641.12,0.071907
4645.28,0.07192
4649.45,0.07201
4653.62,0.072051
4657.8,0.072065
4661.99,0.072088
4666.19,0.072103
4670.39,0.072158
4674.6,0.072135
4678.82,0.072194
4683.05,0.072311
4687.28,0.072361
4691.52,0.072406
4695.77,0.072435
4700.03,0.072431
4704.3,0.072485
4708.57,0.072542
4712.85,0.072562
4717.14,0.072655
4721.43,0.072727
4725.74,0.072729
4730.05,0.072778
4734.37,0.07283
4738.7,0.072877
4743.03,0.072821
4747.38,0.072854
4751.73,0.073
4756.09,0.07308
4760.45,0.073174
4764.83,0.073189
4769.21,0.073149
4773.6,0.073171
4778.0,0.073182
4782.41,0.073217
4786.83,0.07323
4791.25,0.073279
4795.68,0.073392
4800.13,0.073391
4804.57,0.073398
4809.03,0.073448
4813.5,0.073475
4817.97,0.07357
4822.45,0.073571
4826.94,0.073583
4831.44,0.073586
4835.95,0.073605
4840.46,0.073673
4844.99,0.073762
4849.52,0.073853
4854.06,0.073866
4858.61,0.073891
4863.17,0.073988
4867.73,0.074022
4872.31,0.073988
4876.89,0.074015
4881.48,0.074063
4886.08,0.074043
4890.69,0.074017
4895.31,0.074104
4899.94,0.074236
4904.57,0.074255
4909.22,0.074198
4913.87,0.074198
4918.53,0.074274
4923.21,0.074411
4927.88,0.074488
4932.57,0.074482
4937.27,0.074468
4941.98,0.07449
4946.69,0.074598
4951.42,0.074678
4956.15,0.074637
4960.9,0.074608
4965.65,0.074678
4970.41,0.074726
4975.18,0.074761
4979.96,0.074835
4984.75,0.07488
4989.54,0.074967
4994.35,0.075022
4999.17,0.074966
5003.99,0.074981
5008.83,0.075026
5013.67,0.075049
5018.52,0.07512
5023.39,0.075178
5028.26,0.075167
5033.14,0.075178
5038.03,0.075278
5042.93,0.075353
5047.84,0.075434
5052.76,0.075492
5057.69,0.075472
5062.63,0.075442
5067.58,0.075441
5072.54,0.075467
5077.51,0.075567
5082.49,0.075637
5087.47,0.075661
5092.47,0.075702
5097.48,0.075726
5102.5,0.075834
5107.52,0.075891
5112.56,0.075859
5117.61,0.075854
5122.66,0.075889
5127.73,0.075968
5132.81,0.076022
5137.89,0.076043
5142.99,0.076055
5148.1,0.076077
5153.22,0.076133
5158.34,0.076173
5163.48,0.076198
5168.63,0.076235
5173.79,0.076269
5178.96,0.076318
5184.13,0.076397
5189.32,0.076428
5194.52,0.076398
5199.73,0.07641
5204.96,0.076456
5210.19,0.076506
5215.43,0.076603
5220.68,0.076642
5225.94,0.076684
5231.22,0.07669
5236.5,0.076662
5241.79,0.07671
5247.1,0.076762
5252.42,0.076765
5257.74,0.076772
5263.08,0.076845
5268.43,0.076945
5273.79,0.076997
5279.16,0.077003
5284.54,0.077057
5289.93,0.07713
5295.34,0.077217
5300.75,0.077271
5306.18,0.077253
5311.61,0.077237
5317.06,0.077291
5322.52,0.077355
5327.99,0.077369
5333.47,0.077363
5338.96,0.077402
5344.47,0.077413
5349.98,0.077427
5355.51,0.077531
5361.05,0.077586
5366.6,0.077566
5372.16,0.077578
5377.73,0.077631
5383.32,0.077654
5388.91,0.077682
5394.52,0.077722
5400.14,0.077777
5405.77,0.077834
5411.41,0.07791
5417.07,0.077962
5422.74,0.078014
5428.41,0.078002
5434.1,0.077999
5439.81,0.078096
5445.52,0.078157
5451.25,0.078233
5456.98,0.078246
5462.73,0.078255
5468.5,0.078289
5474.27,0.078338
5480.06,0.078382
5485.86,0.078427
5491.67,0.078397
5497.49,0.078486
5503.33,0.078599
5509.18,0.078635
5515.04,0.078618
5520.91,0.078634
5526.8,0.078711
5532.69,0.078754
5538.61,0.07875
5544.53,0.078702
5550.47,0.078728
5556.41,0.07879
5562.38,0.078842
5568.35,0.078887
5574.34,0.078931
5580.34,0.078997
5586.35,0.07905
5592.38,0.078987
5598.42,0.078971
5604.47,0.079092
5610.54,0.079182
5616.61,0.079131
5622.71,0.079168
5628.81,0.079234
5634.93,0.079289
5641.06,0.079345
5647.21,0.079453
5653.36,0.079449
5659.54,0.079486
5665.72,0.079529
5671.92,0.079526
5678.13,0.079563
5684.36,0.079583
5690.6,0.079647
5696.85,0.079739
5703.12,0.079742
5709.4,0.079802
5715.69,0.079904
5722.0,0.079855
5728.33,0.07988
5734.66,0.079968
5741.01,0.080106
5747.38,0.080177
5753.76,0.080231
5760.15,0.080261
5766.56,0.080363
5772.98,0.08039
5779.41,0.080313
5785.86,0.080283
5792.33,0.080269
5798.81,0.080365
5805.3,0.080428
5811.81,0.08046
5818.33,0.080569
5824.87,0.080736
5831.42,0.08075
5837.99,0.080663
5844.57,0.080626
5851.17,0.080746
5857.78,0.080835
5864.41,0.080829
5871.05,0.080885
5877.7,0.080911
5884.38,0.081075
5891.06,0.081041
5897.76,0.081085
5904.48,0.081116
5911.21,0.081015
5917.96,0.081092
5924.73,0.081145
5931.5,0.081137
5938.3,0.081246
5945.11,0.081355
5951.93,0.081285
5958.78,0.081293
5965.63,0.081298
5972.51,0.081481
5979.39,0.081466
5986.3,0.081388
5993.22,0.081482
6000.16,0.081488
6007.11,0.0815
6014.08,0.081621
6021.06,0.08165
6028.06,0.081609
6035.08,0.081622
6042.12,0.08166
6049.17,0.081872
6056.23,0.082117
6063.32,0.081924
6070.42,0.081904
6077.53,0.082003
6084.67,0.082001
6091.82,0.081962
6098.98,0.082025
6106.17,0.082018
6113.37,0.0821
6120.58,0.082208
6127.82,0.082145
6135.07,0.082128
6142.34,0.082183
6149.63,0.082223
6156.93,0.082237
6164.25,0.082354
6171.59,0.082428
6178.95,0.082437
6186.32,0.082504
6193.71,0.082542
6201.12,0.08244
6208.54,0.082485
6215.99,0.082578
6223.45,0.082623
6230.93,0.082574
6238.43,0.082615
6245.95,0.082636
6253.48,0.082657
6261.03,0.082713
6268.6,0.082745
6276.19,0.082782
6283.8,0.08281
6291.43,0.082832
6299.07,0.082835
6306.73,0.082855
6314.42,0.082885
6322.12,0.082905
6329.84,0.082985
6337.57,0.083073
6345.33,0.083179
6353.11,0.083271
6360.9,0.083229
6368.72,0.08328
6376.55,0.083346
6384.4,0.083326
6392.27,0.083354
6400.17,0.083392
6408.08,0.083482
6416.01,0.083661
6423.96,0.08366
6431.93,0.083601
6439.92,0.083676
6447.93,0.083666
6455.96,0.083719
6464.01,0.083742
6472.08,0.083815
6480.17,0.083872
6488.28,0.083916
6496.41,0.084066
6504.56,0.084078
6512.73,0.083949
6520.92,0.083952
6529.14,0.083986
6537.37,0.083997
6545.63,0.084005
6553.9,0.084038
6562.2,0.084097
6570.51,0.084075
6578.85,0.084169
6587.21,0.084184
6595.59,0.084187
6603.99,0.084166
6612.42,0.084138
6620.86,0.084185
6629.33,0.084271
6637.82,0.084425
6646.33,0.084442
6654.86,0.084319
6663.41,0.084284
6671.99,0.084359
6680.59,0.084425
6689.21,0.084471
6697.85,0.084438
6706.51,0.084431
6715.2,0.084504
6723.91,0.084498
6732.64,0.084471
6741.4,0.084435
6750.18,0.084525
6758.98,0.084603
6767.8,0.084626
6776.65,0.084642
6785.52,0.08467
6794.41,0.084727
6803.33,0.084743
6812.27,0.084767
6821.23,0.084803
6830.22,0.084839
6839.23,0.084819
6848.26,0.084803
6857.32,0.08488
6866.4,0.08501
6875.51,0.084935
6884.64,0.084864
6893.8,0.084958
6902.98,0.085015
6912.18,0.085079
6921.41,0.085084
6930.66,0.085083
6939.94,0.085102
6949.24,0.08515
6958.57,0.0852
6967.92,0.085256
6977.3,0.085199
6986.7,0.085224
6996.13,0.085279
7005.59,0.085298
7015.07,0.085269
7024.57,0.085371
7034.1,0.085427
7043.66,0.085481
7053.25,0.08556
7062.85,0.08548
7072.49,0.085514
7082.15,0.085611
7091.84,0.085654
7101.55,0.085735
7111.3,0.085822
7121.06,0.08586
7130.86,0.085886
7140.68,0.085906
7150.53,0.085947
7160.41,0.085981
7170.31,0.086082
7180.24,0.086145
7190.2,0.08614
7200.19,0.08622
7210.2,0.08632
7220.24,0.086292
7230.31,0.086222
7240.41,0.086274
7250.54,0.086322
7260.69,0.086388
7270.88,0.086468
7281.09,0.086528
7291.33,0.086517
7301.6,0.086523
7311.9,0.086545
7322.22,0.086576
7332.58,0.086607
7342.97,0.086665
7353.38,0.086741
7363.83,0.08678
7374.3,0.086812
7384.81,0.086851
7395.34,0.086906
7405.91,0.086952
7416.5,0.086981
7427.13,0.086995
7437.78,0.087005
7448.47,0.08705
7459.19,0.087098
7469.94,0.087149
7480.71,0.08718
7491.52,0.087207
7502.37,0.087226
7513.24,0.087266
7524.14,0.087276
7535.08,0.087234
7546.05,0.087241
7557.05,0.087283
7568.08,0.087348
7579.15,0.087448
7590.24,0.087473
7601.37,0.087442
7612.53,0.087423
7623.73,0.087448
7634.96,0.087482
7646.22,0.087528
7657.51,0.087572
7668.84,0.087612
7680.2,0.087614
7691.59,0.087603
7703.02,0.087629
7714.49,0.087692
7725.98,0.087746
7737.52,0.087807
7749.08,0.087827
7760.68,0.087792
7772.32,0.087785
7783.99,0.087843
7795.69,0.087952
7807.43,0.087962
7819.21,0.08797
7831.02,0.088023
7842.87,0.088075
7854.75,0.088082
7866.67,0.088121
7878.62,0.088219
7890.62,0.088282
7902.64,0.088339
7914.71,0.08839
7926.81,0.088424
7938.95,0.088446
7951.13,0.08845
7963.34,0.088404
7975.59,0.088416
7987.88,0.088445
8000.21,0.088399
8012.57,0.088411
8024.98,0.088466
8037.42,0.088493
8049.9,0.08853
8062.42,0.088531
8074.98,0.08851
8087.57,0.088507
8100.21,0.088572
8112.89,0.0886
8125.6,0.088531
8138.36,0.088487
8151.16,0.088496
8163.99,0.088497
8176.87,0.088481
8189.79,0.088481
8202.75,0.088473
8215.75,0.088435
8228.79,0.088476
8241.87,0.088519
8254.99,0.088507
8268.16,0.088451
8281.37,0.088508
8294.62,0.088541
8307.91,0.088568
8321.24,0.088587
8334.62,0.088605
8348.04,0.088613
8361.51,0.088682
8375.02,0.088692
8388.57,0.088644
8402.16,0.088655
8415.8,0.088657
8429.49,0.088657
8443.22,0.088673
8456.99,0.088696
8470.81,0.088763
8484.67,0.088796
8498.58,0.088777
8512.54,0.088749
8526.54,0.088709
8540.58,0.08875
8554.68,0.08882
8568.82,0.088792
8583.0,0.088752
8597.24,0.08877
8611.52,0.088869
8625.85,0.088878
8640.23,0.088951
8654.65,0.089021
8669.12,0.088964
8683.64,0.088907
8698.21,0.088881
8712.83,0.08888
8727.5,0.088891
8742.22,0.088901
8756.99,0.088938
8771.8,0.088949
8786.67,0.089013
8801.59,0.08903
8816.56,0.089054
8831.58,0.089077
8846.65,0.089066
8861.77,0.089005
8876.94,0.089043
8892.17,0.089088
8907.45,0.089086
8922.78,0.089074
8938.16,0.089104
8953.6,0.089119
8969.09,0.089133
8984.64,0.089183
9000.23,0.089203
9015.89,0.089123
9031.59,0.089049
9047.36,0.08898
9063.17,0.08895
9079.05,0.08895
9094.97,0.088912
9110.96,0.088939
9127.0,0.088818
9143.1,0.088676
9159.25,0.088635
9175.46,0.088605
9191.73,0.088582
9208.06,0.088461
9224.44,0.088445
9240.88,0.088425
9257.38,0.088404
9273.94,0.088438
9290.56,0.088407
9307.24,0.088396
9323.98,0.088403
9340.78,0.088424
9357.64,0.08844
9374.57,0.088417
9391.55,0.088366
9408.59,0.088308
9425.7,0.088373
9442.87,0.088383
9460.1,0.088318
9477.4,0.088364
9494.75,0.088387
9512.17,0.088469
9529.66,0.088453
9547.21,0.088387
9564.83,0.088417
9582.5,0.088443
9600.25,0.088386
9618.06,0.088335
9635.94,0.088376
9653.88,0.088452
9671.89,0.088463
9689.97,0.088397
9708.12,0.088453
9726.33,0.088499
9744.62,0.088513
9762.97,0.088531
9781.39,0.088476
9799.88,0.088469
9818.44,0.088552
9837.07,0.088587
9855.77,0.088591
9874.54,0.088596
9893.39,0.088626
9912.3,0.088682
9931.29,0.088649
9950.36,0.088644
9969.49,0.088739
9988.7,0.088746
10007.98,0.088671
10027.34,0.088721
10046.77,0.088799
10066.28,0.088785
10085.87,0.088858
10105.53,0.088941
10125.26,0.088949
10145.08,0.08896
10164.97,0.088984
10184.94,0.089045
10204.99,0.089116
10225.12,0.089113
10245.33,0.089115
10265.61,0.089176
10285.98,0.089299
10306.43,0.089335
10326.96,0.089361
10347.57,0.089345
10368.27,0.08938
10389.05,0.089445
10409.91,0.089439
10430.86,0.089449
10451.88,0.089557
10473.0,0.089608
10494.2,0.089566
10515.49,0.089559
10536.86,0.089589
10558.32,0.089593
10579.87,0.08963
10601.5,0.089781
10623.23,0.089866
10645.04,0.089915
10666.94,0.089968
10688.94,0.090023
10711.02,0.090126
10733.2,0.090145
10755.47,0.090181
10777.83,0.090286
10800.28,0.090276
10822.83,0.090241
10845.47,0.090311
10868.21,0.090379
10891.04,0.090495
10913.97,0.09058
10936.99,0.090548
10960.12,0.0906
10983.34,0.090645
11006.66,0.09063
11030.07,0.090638
11053.59,0.090656
11077.21,0.09067
11100.93,0.090737
11124.75,0.090805
11148.68,0.090836
11172.71,0.090765
11196.84,0.090714
11221.07,0.09076
11245.41,0.090787
11269.86,0.09085
11294.41,0.090942
11319.07,0.091004
11343.84,0.091005
11368.72,0.091007
11393.7,0.090996
11418.8,0.090973
11444.01,0.091041
11469.33,0.091125
11494.76,0.091169
11520.3,0.091163
11545.96,0.091096
11571.73,0.091122
11597.62,0.09122
11623.62,0.091252
11649.74,0.091245
11675.98,0.09128
11702.34,0.091315
11728.81,0.091269
11755.41,0.091194
11782.13,0.091089
11808.96,0.091099
11835.92,0.091222
11863.01,0.091202
11890.22,0.091195
11917.55,0.091323
11945.01,0.091292
11972.6,0.091142
12000.31,0.091163
12028.16,0.091229
12056.13,0.091302
12084.23,0.091376
12112.46,0.091386
12140.83,0.091354
12169.33,0.091357
12197.96,0.091361
12226.73,0.091416
12255.64,0.091405
12284.68,0.091364
12313.86,0.091348
12343.18,0.091322
12372.64,0.091304
12402.24,0.091369
12431.98,0.09135
12461.86,0.091332
12491.89,0.091314
12522.07,0.091251
12552.38,0.091233
12582.85,0.091336
12613.47,0.091309
12644.23,0.091323
12675.15,0.09126
12706.21,0.091161
12737.43,0.091026
12768.81,0.091004
12800.33,0.091091
12832.02,0.091131
12863.86,0.091253
12895.86,0.091205
12928.02,0.091063
12960.34,0.091106
12992.82,0.091188
13025.46,0.091162
13058.27,0.091133
13091.25,0.091145
13124.39,0.091184
13157.7,0.09122
13191.18,0.091214
13224.83,0.091242
13258.66,0.091228
13292.65,0.091215
13326.83,0.091315
13361.17,0.09134
13395.7,0.091202
13430.4,0.091169
13465.29,0.091274
13500.35,0.091359
13535.6,0.091341
13571.03,0.091345
13606.65,0.091262
13642.46,0.091304
13678.46,0.091451
13714.64,0.091575
13751.02,0.091715
13787.59,0.091868
13824.36,0.091947
13861.32,0.091982
13898.49,0.092041
13935.85,0.092097
13973.41,0.092139
14011.17,0.092184
14049.15,0.092252
14087.32,0.092388
14125.71,0.092596
14164.3,0.092688
14203.11,0.092889
14242.13,0.093048
14281.36,0.093104
14320.81,0.093292
14360.49,0.093536
14400.38,0.093681
14440.49,0.093785
14480.82,0.093926
14521.39,0.094141
14562.18,0.094326
14603.2,0.094504
14644.45,0.094789
14685.93,0.094997
14727.66,0.095068
14769.62,0.095288
14811.81,0.095554
14854.25,0.095832
14896.94,0.096143
14939.87,0.096367
14983.05,0.096686
15026.48,0.097065
15070.16,0.09721
15114.1,0.097726
15158.29,0.098405
15202.74,0.098749
15247.46,0.099087
15292.43,0.09962
15337.68,0.100107
15383.19,0.100652
15428.97,0.101266
15475.03,0.101697
15521.36,0.102183
15567.97,0.102645
15614.87,0.103198
15662.04,0.103857
15709.5,0.104316
15757.25,0.104684
15805.29,0.105369
15853.62,0.106041
15902.26,0.10654
15951.19,0.106873
16000.42,0.107241
16049.95,0.10779
16099.8,0.108404
16149.95,0.10902
16200.42,0.109592
16251.21,0.11032
16302.31,0.111323
16353.74,0.1121
16405.49,0.112787
16457.57,0.113777
16509.98,0.11473
16562.73,0.115697
16615.82,0.116675
16669.24,0.117597
16723.02,0.118595
16777.14,0.119582
16831.61,0.120796
16886.43,0.121995
16941.62,0.123185
16997.16,0.124172
17053.08,0.125393
17109.36,0.126801
17166.01,0.128177
17223.04,0.129599
17280.45,0.131172
17338.24,0.132905
17396.43,0.134757
17455.0,0.136572
17513.97,0.138616
17573.34,0.140724
17633.11,0.142934
17693.29,0.145008
17753.89,0.146912
17814.9,0.148552
17876.33,0.150162
17938.18,0.151494
18000.47,0.152329
18063.19,0.152661
18126.35,0.152374
18189.95,0.151539
18254.0,0.150364
18318.5,0.148832
18383.46,0.14714
18448.88,0.14546
18514.77,0.144072
18581.13,0.142675
18647.97,0.141206
18715.29,0.139602
18783.1,0.137848
18851.4,0.136313
18920.2,0.135152
18989.51,0.133864
19059.32,0.132627
19129.65,0.131554
19200.5,0.130643
19271.88,0.129542
19343.79,0.128337
19416.24,0.127451
19489.23,0.126862
19562.77,0.125921
19636.88,0.124828
19711.54,0.123984
19786.78,0.12314
19862.59,0.122251
19938.98,0.121428
20015.96,0.120523
20093.55,0.119857
20171.73,0.119141
20250.53,0.118618
20329.94,0.118624
20409.98,0.119196
20490.65,0.119709
20571.96,0.119576
20653.92,0.119538
20736.54,0.120183
20819.82,0.120774
20903.77,0.120781
20988.4,0.121006
21073.72,0.121031
21159.73,0.120609
21246.46,0.120645
21333.89,0.120534
21422.04,0.120645
21510.93,0.121497
21600.56,0.121915
21690.94,0.121889
21782.08,0.122242
21873.99,0.123297
21966.67,0.124893
22060.15,0.125069
22154.42,0.125248
22249.51,0.125573
22345.41,0.126062
22442.14,0.126579
22539.72,0.127155
22638.14,0.127297
22737.43,0.127884
22837.6,0.127883
22938.65,0.127781
23040.6,0.128365
23143.46,0.129162
23247.24,0.129051
23351.96,0.128911
23457.63,0.1293
23564.25,0.129297
23671.85,0.128344
23780.44,0.128548
23890.02,0.129057
24000.63,0.128652
24112.26,0.128844
24224.93,0.130633
24338.66,0.130162
24453.47,0.127678
24569.36,0.127771
24686.36,0.128814
24804.47,0.12964
24923.73,0.131392
25044.13,0.133512
25165.71,0.134581
25288.46,0.134079
25412.43,0.13336
25537.61,0.133268
25664.04,0.136355
25791.72,0.138618
25920.68,0.138937
