Database of Origin,University of Winnipeg Spectrophotometer Facility
Sample Description,9.2. MAGNETITE: Merged RELAB & Nicole / Merged at 2.5 um / different viewing geometry
Date Added,2016-07-15 22:03:00.484300

Data ID,RPN_MAG_21          
Sample ID,MAG121
Mineral Name,Magnetite
Grain Size,<45
Viewing Geometry,30 / 0 | 30
Resolution,1.2-129
Material Class,Magnetite

Wavelength
305.0,0.047652
310.0,0.050127
315.0,0.049976
320.0,0.051082
325.0,0.051356
330.0,0.051021
335.0,0.051806
340.0,0.052249
345.0,0.051399
350.0,0.051903
355.0,0.052006
360.0,0.052256
365.0,0.052423
370.0,0.052291
375.0,0.052539
380.0,0.052185
385.0,0.052407
390.0,0.052141
395.0,0.052122
400.0,0.052172
405.0,0.0521
410.0,0.052187
415.0,0.051985
420.0,0.051842
425.0,0.0514
430.0,0.051205
435.0,0.051065
440.0,0.050717
445.0,0.050446
450.0,0.049881
455.0,0.049882
460.0,0.049779
465.0,0.049674
470.0,0.049613
475.0,0.049629
480.0,0.049572
485.0,0.049626
490.0,0.049547
495.0,0.049423
500.0,0.049389
505.0,0.049323
510.0,0.04924
515.0,0.049196
520.0,0.049328
525.0,0.049293
530.0,0.049535
535.0,0.049442
540.0,0.049672
545.0,0.04979
550.0,0.049883
555.0,0.050036
560.0,0.050165
565.0,0.050229
570.0,0.050332
575.0,0.050489
580.0,0.050521
585.0,0.050567
590.0,0.050713
595.0,0.050776
600.0,0.050762
605.0,0.050926
610.0,0.051109
615.0,0.051325
620.0,0.051491
625.0,0.051612
630.0,0.051743
635.0,0.051875
640.0,0.051826
645.0,0.051748
650.0,0.051682
655.0,0.051621
660.0,0.051451
665.0,0.051422
670.0,0.051283
675.0,0.051114
680.0,0.050954
685.0,0.050844
690.0,0.050717
695.0,0.050541
700.0,0.050346
705.0,0.050229
710.0,0.050102
715.0,0.04993
720.0,0.04995
725.0,0.049708
730.0,0.049503
735.0,0.049256
740.0,0.049028
745.0,0.048915
750.0,0.048753
755.0,0.048553
760.0,0.048431
765.0,0.048286
770.0,0.048074
775.0,0.047704
780.0,0.047673
785.0,0.047203
790.0,0.046878
795.0,0.046814
800.0,0.046761
805.0,0.046062
810.0,0.045902
815.0,0.045757
820.0,0.045809
825.0,0.045194
830.0,0.045478
835.0,0.044843
840.0,0.044488
845.0,0.04468
850.0,0.043939
855.0,0.043843
860.0,0.043614
865.0,0.043912
870.0,0.043001
875.0,0.042698
880.0,0.04233
885.0,0.042264
890.0,0.041795
895.0,0.041971
900.0,0.041577
905.0,0.041551
910.0,0.041115
915.0,0.041036
920.0,0.040699
925.0,0.040609
930.0,0.040262
935.0,0.039977
940.0,0.040153
945.0,0.039816
950.0,0.039689
955.0,0.039796
960.0,0.03972
965.0,0.03947
970.0,0.039173
975.0,0.039175
980.0,0.038978
985.0,0.038785
990.0,0.038937
995.0,0.038881
1000.0,0.038648
1005.0,0.038553
1010.0,0.038437
1015.0,0.038749
1020.0,0.03854
1025.0,0.038624
1030.0,0.038346
1035.0,0.038201
1040.0,0.038366
1045.0,0.038186
1050.0,0.038288
1055.0,0.038344
1060.0,0.038159
1065.0,0.038076
1070.0,0.038268
1075.0,0.03819
1080.0,0.038369
1085.0,0.038147
1090.0,0.038325
1095.0,0.03834
1100.0,0.038291
1105.0,0.03853
1110.0,0.038376
1115.0,0.038442
1120.0,0.038369
1125.0,0.038565
1130.0,0.038684
1135.0,0.038713
1140.0,0.03872
1145.0,0.038852
1150.0,0.038831
1155.0,0.038825
1160.0,0.03905
1165.0,0.039173
1170.0,0.039309
1175.0,0.039433
1180.0,0.039556
1185.0,0.039538
1190.0,0.039826
1195.0,0.040036
1200.0,0.040355
1205.0,0.040213
1210.0,0.040504
1215.0,0.040467
1220.0,0.040622
1225.0,0.040712
1230.0,0.040702
1235.0,0.040927
1240.0,0.041015
1245.0,0.041208
1250.0,0.04137
1255.0,0.041207
1260.0,0.041294
1265.0,0.04151
1270.0,0.041629
1275.0,0.041745
1280.0,0.041998
1285.0,0.042048
1290.0,0.042102
1295.0,0.042354
1300.0,0.042556
1305.0,0.042682
1310.0,0.042732
1315.0,0.042902
1320.0,0.04308
1325.0,0.043319
1330.0,0.043369
1335.0,0.04354
1340.0,0.043694
1345.0,0.043676
1350.0,0.044093
1355.0,0.04433
1360.0,0.044983
1365.0,0.044614
1370.0,0.045164
1375.0,0.04522
1380.0,0.04554
1385.0,0.045467
1390.0,0.045721
1395.0,0.045785
1400.0,0.045971
1405.0,0.046059
1410.0,0.046242
1415.0,0.046656
1420.0,0.046811
1425.0,0.047118
1430.0,0.046874
1435.0,0.047046
1440.0,0.047146
1445.0,0.047359
1450.0,0.047622
1455.0,0.04766
1460.0,0.047947
1465.0,0.048238
1470.0,0.048125
1475.0,0.048287
1480.0,0.048495
1485.0,0.048692
1490.0,0.048773
1495.0,0.048775
1500.0,0.049034
1505.0,0.049335
1510.0,0.049271
1515.0,0.049591
1520.0,0.049859
1525.0,0.04996
1530.0,0.050052
1535.0,0.050128
1540.0,0.050583
1545.0,0.050617
1550.0,0.050701
1555.0,0.050992
1560.0,0.051044
1565.0,0.051215
1570.0,0.051128
1575.0,0.051237
1580.0,0.051341
1585.0,0.051773
1590.0,0.051665
1595.0,0.052
1600.0,0.052261
1605.0,0.052465
1610.0,0.052518
1615.0,0.052448
1620.0,0.052532
1625.0,0.052822
1630.0,0.053516
1635.0,0.05301
1640.0,0.053476
1645.0,0.053467
1650.0,0.053325
1655.0,0.053827
1660.0,0.053725
1665.0,0.054094
1670.0,0.053928
1675.0,0.054056
1680.0,0.054448
1685.0,0.054737
1690.0,0.054403
1695.0,0.054922
1700.0,0.055077
1705.0,0.055151
1710.0,0.055287
1715.0,0.055264
1720.0,0.055448
1725.0,0.055486
1730.0,0.055685
1735.0,0.055772
1740.0,0.055801
1745.0,0.055901
1750.0,0.056088
1755.0,0.056018
1760.0,0.056206
1765.0,0.056294
1770.0,0.056531
1775.0,0.056648
1780.0,0.056937
1785.0,0.056854
1790.0,0.056955
1795.0,0.057137
1800.0,0.057302
1805.0,0.057499
1810.0,0.057456
1815.0,0.057584
1820.0,0.057638
1825.0,0.057834
1830.0,0.057997
1835.0,0.058096
1840.0,0.057957
1845.0,0.058092
1850.0,0.058235
1855.0,0.058431
1860.0,0.058343
1865.0,0.058607
1870.0,0.058498
1875.0,0.058667
1880.0,0.058788
1885.0,0.059189
1890.0,0.059278
1895.0,0.059291
1900.0,0.059298
1905.0,0.059376
1910.0,0.059374
1915.0,0.059434
1920.0,0.059659
1925.0,0.059629
1930.0,0.059945
1935.0,0.059927
1940.0,0.060151
1945.0,0.060012
1950.0,0.060151
1955.0,0.060197
1960.0,0.060499
1965.0,0.060568
1970.0,0.060728
1975.0,0.060647
1980.0,0.060876
1985.0,0.061038
1990.0,0.060913
1995.0,0.060977
2000.0,0.061213
2005.0,0.061422
2010.0,0.061498
2015.0,0.061522
2020.0,0.061462
2025.0,0.061788
2030.0,0.061846
2035.0,0.061718
2040.0,0.062085
2045.0,0.061941
2050.0,0.061994
2055.0,0.062206
2060.0,0.06216
2065.0,0.062146
2070.0,0.062327
2075.0,0.062169
2080.0,0.062505
2085.0,0.062601
2090.0,0.062577
2095.0,0.062785
2100.0,0.062725
2105.0,0.062795
2110.0,0.063077
2115.0,0.062936
2120.0,0.062863
2125.0,0.063306
2130.0,0.063239
2135.0,0.063163
2140.0,0.063313
2145.0,0.063214
2150.0,0.063272
2155.0,0.063497
2160.0,0.063503
2165.0,0.063442
2170.0,0.063444
2175.0,0.063419
2180.0,0.063618
2185.0,0.063634
2190.0,0.063588
2195.0,0.063646
2200.0,0.063923
2205.0,0.063874
2210.0,0.064166
2215.0,0.064076
2220.0,0.064042
2225.0,0.064155
2230.0,0.064024
2235.0,0.064067
2240.0,0.064569
2245.0,0.064487
2250.0,0.064359
2255.0,0.064343
2260.0,0.064663
2265.0,0.064553
2270.0,0.064895
2275.0,0.064847
2280.0,0.065035
2285.0,0.064953
2290.0,0.065078
2295.0,0.06547
2300.0,0.065187
2305.0,0.065518
2310.0,0.065554
2315.0,0.065767
2320.0,0.065797
2325.0,0.065733
2330.0,0.065702
2335.0,0.065837
2340.0,0.065889
2345.0,0.065901
2350.0,0.066057
2355.0,0.0664
2360.0,0.0662
2365.0,0.066241
2370.0,0.066446
2375.0,0.06649
2380.0,0.066444
2385.0,0.066306
2390.0,0.06669
2395.0,0.066604
2400.0,0.066776
2405.0,0.0668
2410.0,0.066881
2415.0,0.067037
2420.0,0.066829
2425.0,0.066744
2430.0,0.066984
2435.0,0.067051
2440.0,0.067117
2445.0,0.067043
2450.0,0.067009
2455.0,0.067086
2460.0,0.067228
2465.0,0.067221
2470.0,0.067321
2475.0,0.067162
2480.0,0.067229
2485.0,0.067156
2490.0,0.06713
2495.0,0.06745
2500.0,0.067711
2502.0,0.06753
2503.2,0.067182
2504.41,0.067276
2505.62,0.067694
2506.83,0.067848
2508.05,0.067839
2509.26,0.067476
2510.48,0.067307
2511.69,0.067519
2512.91,0.067606
2514.13,0.067594
2515.35,0.06757
2516.57,0.067214
2517.79,0.067055
2519.02,0.067454
2520.24,0.067639
2521.47,0.067595
2522.69,0.067422
2523.92,0.067198
2525.15,0.067128
2526.38,0.067017
2527.61,0.067338
2528.85,0.067523
2530.08,0.0673
2531.32,0.06743
2532.55,0.067634
2533.79,0.067498
2535.03,0.067365
2536.27,0.067439
2537.51,0.067439
2538.75,0.06723
2540.0,0.067432
2541.24,0.067505
2542.49,0.067299
2543.74,0.067307
2544.99,0.067469
2546.24,0.067561
2547.49,0.067458
2548.74,0.067253
2549.99,0.06713
2551.25,0.06727
2552.5,0.067384
2553.76,0.067407
2555.02,0.067277
2556.28,0.067237
2557.54,0.067435
2558.8,0.067341
2560.07,0.067145
2561.33,0.06712
2562.6,0.067101
2563.86,0.066965
2565.13,0.066992
2566.4,0.067132
2567.67,0.067208
2568.95,0.067239
2570.22,0.067297
2571.5,0.067263
2572.77,0.06726
2574.05,0.067373
2575.33,0.067438
2576.61,0.067305
2577.89,0.067172
2579.17,0.067292
2580.46,0.067355
2581.74,0.067104
2583.03,0.067051
2584.31,0.067179
2585.6,0.067269
2586.89,0.067165
2588.19,0.06715
2589.48,0.067029
2590.77,0.067147
2592.07,0.067292
2593.36,0.067504
2594.66,0.067545
2595.96,0.067449
2597.26,0.067501
2598.56,0.067334
2599.87,0.067179
2601.17,0.067167
2602.48,0.067242
2603.78,0.067231
2605.09,0.067376
2606.4,0.067389
2607.71,0.067235
2609.03,0.067113
2610.34,0.067123
2611.66,0.06716
2612.97,0.067303
2614.29,0.067359
2615.61,0.06711
2616.93,0.066984
2618.25,0.067406
2619.57,0.067523
2620.9,0.067307
2622.22,0.067304
2623.55,0.06694
2624.88,0.066844
2626.21,0.06706
2627.54,0.067131
2628.87,0.066937
2630.21,0.066977
2631.54,0.067157
2632.88,0.067229
2634.21,0.067152
2635.55,0.067147
2636.89,0.067203
2638.24,0.067264
2639.58,0.067048
2640.92,0.067122
2642.27,0.067372
2643.62,0.067199
2644.97,0.067039
2646.32,0.067017
2647.67,0.067147
2649.02,0.067235
2650.38,0.067065
2651.73,0.066899
2653.09,0.066833
2654.45,0.066872
2655.81,0.066806
2657.17,0.066846
2658.53,0.06724
2659.89,0.06723
2661.26,0.067034
2662.63,0.067137
2664.0,0.067109
2665.36,0.066941
2666.74,0.067184
2668.11,0.067281
2669.48,0.067215
2670.86,0.067109
2672.23,0.067254
2673.61,0.067193
2674.99,0.067347
2676.37,0.067185
2677.76,0.066813
2679.14,0.067181
2680.52,0.067384
2681.91,0.06725
2683.3,0.066987
2684.69,0.066708
2686.08,0.066686
2687.47,0.066824
2688.87,0.067111
2690.26,0.067165
2691.66,0.067063
2693.06,0.067006
2694.46,0.06709
2695.86,0.067056
2697.26,0.066704
2698.66,0.066541
2700.07,0.0667
2701.48,0.066911
2702.89,0.066862
2704.3,0.066784
2705.71,0.066659
2707.12,0.066614
2708.53,0.066491
2709.95,0.066395
2711.37,0.066404
2712.79,0.066513
2714.21,0.066491
2715.63,0.066202
2717.05,0.066031
2718.48,0.066138
2719.9,0.066306
2721.33,0.066609
2722.76,0.066787
2724.19,0.066595
2725.62,0.066688
2727.06,0.066717
2728.49,0.066484
2729.93,0.066345
2731.37,0.066211
2732.81,0.06607
2734.25,0.066283
2735.69,0.066341
2737.14,0.066283
2738.58,0.066318
2740.03,0.066153
2741.48,0.06619
2742.93,0.066457
2744.38,0.066404
2745.83,0.066146
2747.29,0.066239
2748.75,0.066358
2750.2,0.066397
2751.66,0.06627
2753.13,0.066055
2754.59,0.0663
2756.05,0.066517
2757.52,0.066551
2758.99,0.066463
2760.46,0.066327
2761.93,0.066192
2763.4,0.066278
2764.87,0.066417
2766.35,0.066358
2767.82,0.066198
2769.3,0.066367
2770.78,0.066407
2772.26,0.06639
2773.75,0.066417
2775.23,0.066392
2776.72,0.066402
2778.21,0.066274
2779.7,0.066295
2781.19,0.066379
2782.68,0.066228
2784.18,0.06601
2785.67,0.066113
2787.17,0.066253
2788.67,0.066286
2790.17,0.066366
2791.67,0.066412
2793.18,0.066361
2794.68,0.066388
2796.19,0.06632
2797.7,0.066147
2799.21,0.066016
2800.72,0.065991
2802.24,0.066073
2803.75,0.066196
2805.27,0.06632
2806.79,0.066378
2808.31,0.066307
2809.83,0.066261
2811.35,0.066238
2812.88,0.066308
2814.41,0.066163
2815.93,0.066256
2817.46,0.066331
2819.0,0.066143
2820.53,0.065797
2822.07,0.065964
2823.6,0.066171
2825.14,0.066179
2826.68,0.066147
2828.22,0.06614
2829.77,0.065951
2831.31,0.065867
2832.86,0.066005
2834.41,0.06629
2835.96,0.06611
2837.51,0.06603
2839.07,0.066195
2840.62,0.066341
2842.18,0.06626
2843.74,0.066183
2845.3,0.06637
2846.86,0.066409
2848.43,0.066373
2849.99,0.066516
2851.56,0.066554
2853.13,0.066305
2854.7,0.066158
2856.27,0.066174
2857.85,0.066199
2859.42,0.066269
2861.0,0.066244
2862.58,0.066225
2864.16,0.066322
2865.75,0.066385
2867.33,0.066266
2868.92,0.066106
2870.51,0.066082
2872.1,0.06625
2873.69,0.066393
2875.28,0.066336
2876.88,0.066259
2878.48,0.066293
2880.07,0.066269
2881.68,0.066193
2883.28,0.066022
2884.88,0.065995
2886.49,0.066282
2888.1,0.06639
2889.71,0.066306
2891.32,0.066234
2892.93,0.06639
2894.55,0.066465
2896.16,0.066294
2897.78,0.066434
2899.4,0.066565
2901.03,0.066564
2902.65,0.066497
2904.28,0.066296
2905.91,0.066246
2907.54,0.066334
2909.17,0.066204
2910.8,0.066136
2912.44,0.066208
2914.07,0.066373
2915.71,0.066609
2917.35,0.066507
2918.99,0.066361
2920.64,0.066368
2922.29,0.066306
2923.93,0.066281
2925.58,0.066484
2927.24,0.066643
2928.89,0.066585
2930.55,0.066389
2932.2,0.066433
2933.86,0.066565
2935.52,0.066484
2937.19,0.066502
2938.85,0.066441
2940.52,0.066321
2942.19,0.066138
2943.86,0.066356
2945.53,0.066587
2947.21,0.066496
2948.88,0.066302
2950.56,0.066307
2952.24,0.066474
2953.92,0.066654
2955.61,0.066582
2957.29,0.066399
2958.98,0.066388
2960.67,0.066484
2962.36,0.066605
2964.06,0.066676
2965.75,0.066638
2967.45,0.066576
2969.15,0.066558
2970.85,0.066542
2972.55,0.066666
2974.26,0.066659
2975.97,0.066423
2977.68,0.066317
2979.39,0.066408
2981.1,0.066591
2982.82,0.066582
2984.53,0.066579
2986.25,0.066557
2987.97,0.066624
2989.7,0.066594
2991.42,0.066559
2993.15,0.066595
2994.88,0.06661
2996.61,0.066688
2998.34,0.066672
3000.08,0.066569
3001.82,0.066627
3003.55,0.066735
3005.3,0.06677
3007.04,0.066723
3008.78,0.066681
3010.53,0.06661
3012.28,0.066675
3014.03,0.066745
3015.79,0.066682
3017.54,0.066711
3019.3,0.066858
3021.06,0.066831
3022.82,0.066626
3024.58,0.066656
3026.35,0.066732
3028.12,0.0667
3029.89,0.066734
3031.66,0.066794
3033.43,0.066826
3035.21,0.066801
3036.99,0.066811
3038.77,0.06686
3040.55,0.066986
3042.33,0.067088
3044.12,0.066982
3045.91,0.066816
3047.7,0.066745
3049.49,0.066792
3051.29,0.06686
3053.08,0.066768
3054.88,0.066721
3056.68,0.066825
3058.49,0.066925
3060.29,0.066964
3062.1,0.066936
3063.91,0.067024
3065.72,0.0671
3067.54,0.066992
3069.35,0.06689
3071.17,0.066892
3072.99,0.066873
3074.81,0.066914
3076.64,0.066928
3078.47,0.066962
3080.29,0.066994
3082.13,0.067065
3083.96,0.06712
3085.79,0.067124
3087.63,0.067133
3089.47,0.067127
3091.31,0.067119
3093.16,0.067085
3095.01,0.067143
3096.85,0.06723
3098.71,0.067191
3100.56,0.067149
3102.41,0.067105
3104.27,0.067105
3106.13,0.067049
3107.99,0.06702
3109.86,0.067027
3111.73,0.067009
3113.59,0.067063
3115.47,0.067129
3117.34,0.067098
3119.21,0.067022
3121.09,0.067023
3122.97,0.067163
3124.86,0.06717
3126.74,0.06708
3128.63,0.067083
3130.52,0.0671
3132.41,0.06706
3134.3,0.06721
3136.2,0.067342
3138.1,0.067235
3140.0,0.067141
3141.9,0.067067
3143.81,0.066988
3145.71,0.067059
3147.62,0.067156
3149.54,0.067199
3151.45,0.067167
3153.37,0.067235
3155.29,0.067259
3157.21,0.067183
3159.13,0.067289
3161.06,0.067249
3162.99,0.067285
3164.92,0.067309
3166.85,0.067253
3168.79,0.067248
3170.72,0.067261
3172.67,0.067277
3174.61,0.067336
3176.55,0.067377
3178.5,0.067445
3180.45,0.067453
3182.4,0.067488
3184.36,0.067535
3186.32,0.067415
3188.27,0.067462
3190.24,0.067526
3192.2,0.067478
3194.17,0.067534
3196.14,0.067554
3198.11,0.067402
3200.08,0.06736
3202.06,0.067484
3204.04,0.067645
3206.02,0.06743
3208.0,0.067316
3209.99,0.067456
3211.98,0.067454
3213.97,0.067512
3215.96,0.067573
3217.96,0.067457
3219.96,0.067464
3221.96,0.067556
3223.96,0.067599
3225.97,0.067619
3227.98,0.067677
3229.99,0.067816
3232.0,0.067847
3234.02,0.067748
3236.04,0.067681
3238.06,0.067635
3240.08,0.06767
3242.11,0.067758
3244.14,0.067778
3246.17,0.067753
3248.2,0.067715
3250.24,0.06764
3252.28,0.067709
3254.32,0.067719
3256.37,0.067708
3258.41,0.067766
3260.46,0.067762
3262.51,0.067759
3264.57,0.067865
3266.63,0.067947
3268.69,0.067936
3270.75,0.067924
3272.81,0.06795
3274.88,0.067942
3276.95,0.067825
3279.02,0.067882
3281.1,0.068041
3283.18,0.068018
3285.26,0.067983
3287.34,0.067874
3289.43,0.067777
3291.51,0.067929
3293.61,0.068062
3295.7,0.067939
3297.8,0.067894
3299.9,0.067948
3302.0,0.068036
3304.1,0.068121
3306.21,0.068088
3308.32,0.068004
3310.43,0.068059
3312.55,0.068145
3314.66,0.068171
3316.79,0.068245
3318.91,0.068187
3321.03,0.068106
3323.16,0.068187
3325.29,0.068311
3327.43,0.068353
3329.57,0.068279
3331.71,0.068245
3333.85,0.068281
3335.99,0.068227
3338.14,0.06815
3340.29,0.06831
3342.45,0.068364
3344.6,0.068298
3346.76,0.068293
3348.92,0.068226
3351.09,0.068268
3353.26,0.068312
3355.43,0.068281
3357.6,0.068341
3359.78,0.068516
3361.96,0.068504
3364.14,0.068458
3366.32,0.068531
3368.51,0.068562
3370.7,0.068497
3372.89,0.068318
3375.09,0.068391
3377.29,0.068565
3379.49,0.068608
3381.69,0.06854
3383.9,0.068494
3386.11,0.068521
3388.32,0.068533
3390.54,0.068537
3392.76,0.068667
3394.98,0.068646
3397.21,0.068611
3399.43,0.068753
3401.66,0.068876
3403.9,0.068844
3406.13,0.06877
3408.37,0.068771
3410.61,0.068822
3412.86,0.068877
3415.11,0.068779
3417.36,0.0687
3419.61,0.068801
3421.87,0.068925
3424.13,0.068982
3426.39,0.068968
3428.66,0.068935
3430.93,0.068884
3433.2,0.068764
3435.48,0.068749
3437.76,0.068867
3440.04,0.06892
3442.32,0.068975
3444.61,0.069038
3446.9,0.068983
3449.19,0.068965
3451.49,0.069009
3453.79,0.069071
3456.09,0.068989
3458.4,0.069003
3460.7,0.069051
3463.02,0.069071
3465.33,0.069122
3467.65,0.069246
3469.97,0.069294
3472.29,0.069212
3474.62,0.069172
3476.95,0.069224
3479.29,0.069205
3481.62,0.069132
3483.96,0.069139
3486.3,0.069259
3488.65,0.069333
3491.0,0.069357
3493.35,0.069341
3495.71,0.069294
3498.07,0.069327
3500.43,0.06938
3502.79,0.069369
3505.16,0.06942
3507.53,0.069504
3509.91,0.069543
3512.29,0.069479
3514.67,0.069469
3517.05,0.069448
3519.44,0.069358
3521.83,0.069279
3524.23,0.069341
3526.62,0.069454
3529.02,0.069473
3531.43,0.069503
3533.83,0.069567
3536.24,0.069597
3538.66,0.069618
3541.08,0.069609
3543.5,0.069537
3545.92,0.069537
3548.35,0.069569
3550.78,0.069664
3553.21,0.069713
3555.65,0.069709
3558.09,0.069697
3560.53,0.069768
3562.98,0.069765
3565.43,0.069748
3567.88,0.069759
3570.34,0.06979
3572.8,0.069865
3575.27,0.069895
3577.73,0.069887
3580.2,0.069879
3582.68,0.069966
3585.16,0.069996
3587.64,0.069971
3590.12,0.070002
3592.61,0.070043
3595.1,0.070043
3597.6,0.070038
3600.09,0.070085
3602.6,0.070043
3605.1,0.070077
3607.61,0.070138
3610.12,0.070185
3612.64,0.070226
3615.16,0.070234
3617.68,0.070233
3620.21,0.070281
3622.74,0.070293
3625.27,0.070281
3627.81,0.070355
3630.35,0.070397
3632.89,0.070399
3635.44,0.070336
3637.99,0.070375
3640.54,0.070408
3643.1,0.07045
3645.66,0.070463
3648.23,0.070448
3650.8,0.070445
3653.37,0.070492
3655.95,0.070469
3658.53,0.07048
3661.11,0.070535
3663.7,0.070538
3666.29,0.070561
3668.89,0.070506
3671.48,0.070511
3674.09,0.070566
3676.69,0.070638
3679.3,0.070681
3681.91,0.07065
3684.53,0.070706
3687.15,0.070734
3689.78,0.070716
3692.4,0.070797
3695.04,0.070816
3697.67,0.070762
3700.31,0.070729
3702.95,0.070731
3705.6,0.070783
3708.25,0.070836
3710.91,0.070792
3713.56,0.070809
3716.23,0.070844
3718.89,0.070884
3721.56,0.070945
3724.23,0.070964
3726.91,0.071007
3729.59,0.071012
3732.28,0.071014
3734.97,0.071018
3737.66,0.071046
3740.36,0.071114
3743.06,0.071108
3745.76,0.071063
3748.47,0.071045
3751.18,0.071117
3753.9,0.071159
3756.62,0.071141
3759.34,0.0712
3762.07,0.07124
3764.8,0.071286
3767.54,0.071266
3770.28,0.071275
3773.02,0.07132
3775.77,0.071366
3778.52,0.071438
3781.28,0.071428
3784.04,0.071444
3786.8,0.071473
3789.57,0.0715
3792.34,0.071496
3795.12,0.071497
3797.9,0.071468
3800.69,0.071493
3803.47,0.071559
3806.27,0.071683
3809.06,0.071709
3811.86,0.071716
3814.67,0.071751
3817.48,0.071758
3820.29,0.071803
3823.11,0.071809
3825.93,0.071755
3828.76,0.071737
3831.59,0.071746
3834.42,0.071764
3837.26,0.071824
3840.1,0.071849
3842.95,0.071926
3845.8,0.071961
3848.65,0.072029
3851.51,0.071975
3854.38,0.071907
3857.24,0.071981
3860.12,0.072036
3862.99,0.072045
3865.87,0.072018
3868.76,0.071963
3871.65,0.071951
3874.54,0.072012
3877.44,0.072098
3880.34,0.072197
3883.25,0.072233
3886.16,0.072246
3889.07,0.072304
3891.99,0.07235
3894.92,0.072304
3897.85,0.072252
3900.78,0.072306
3903.72,0.072306
3906.66,0.072321
3909.6,0.072349
3912.55,0.072369
3915.51,0.072362
3918.47,0.072376
3921.43,0.072496
3924.4,0.072524
3927.38,0.07253
3930.35,0.072576
3933.33,0.072611
3936.32,0.072601
3939.31,0.072611
3942.31,0.072628
3945.31,0.072629
3948.31,0.072602
3951.32,0.072616
3954.34,0.072584
3957.35,0.072671
3960.38,0.072731
3963.41,0.07277
3966.44,0.072766
3969.48,0.072762
3972.52,0.072829
3975.56,0.072888
3978.61,0.0729
3981.67,0.07288
3984.73,0.072918
3987.8,0.072959
3990.87,0.072992
3993.94,0.072978
3997.02,0.072966
4000.1,0.073035
4003.19,0.073055
4006.29,0.073103
4009.39,0.07313
4012.49,0.073119
4015.6,0.073196
4018.71,0.073221
4021.83,0.073253
4024.95,0.07326
4028.08,0.07321
4031.21,0.073175
4034.35,0.073217
4037.49,0.073308
4040.64,0.073348
4043.79,0.073287
4046.94,0.073304
4050.11,0.073364
4053.27,0.073382
4056.44,0.073449
4059.62,0.073545
4062.8,0.073519
4065.99,0.073509
4069.18,0.073505
4072.38,0.073486
4075.58,0.07349
4078.78,0.073451
4082.0,0.073497
4085.21,0.07351
4088.43,0.073551
4091.66,0.073657
4094.89,0.073745
4098.13,0.07372
4101.37,0.073737
4104.62,0.073827
4107.87,0.073893
4111.13,0.073914
4114.39,0.073842
4117.66,0.07383
4120.93,0.07387
4124.21,0.073971
4127.5,0.07401
4130.79,0.073961
4134.08,0.073985
4137.38,0.074019
4140.68,0.073999
4143.99,0.074011
4147.31,0.074057
4150.63,0.074063
4153.95,0.074119
4157.29,0.074245
4160.62,0.074282
4163.96,0.074206
4167.31,0.074158
4170.66,0.0742
4174.02,0.074206
4177.39,0.074232
4180.75,0.074259
4184.13,0.074288
4187.51,0.074347
4190.89,0.074411
4194.28,0.074416
4197.68,0.074385
4201.08,0.074451
4204.49,0.07446
4207.9,0.074495
4211.32,0.074576
4214.74,0.074587
4218.17,0.074594
4221.61,0.07458
4225.05,0.074656
4228.5,0.074737
4231.95,0.074713
4235.4,0.074753
4238.87,0.074805
4242.34,0.074823
4245.81,0.074815
4249.29,0.074867
4252.78,0.074883
4256.27,0.074849
4259.77,0.074874
4263.27,0.074868
4266.78,0.074918
4270.29,0.075005
4273.81,0.075015
4277.34,0.075041
4280.87,0.075138
4284.41,0.075146
4287.95,0.075117
4291.5,0.075099
4295.06,0.075132
4298.62,0.075191
4302.19,0.075205
4305.76,0.075235
4309.34,0.075221
4312.92,0.075193
4316.52,0.07522
4320.11,0.075307
4323.72,0.075305
4327.32,0.075318
4330.94,0.075388
4334.56,0.075426
4338.19,0.075411
4341.82,0.075415
4345.46,0.075432
4349.11,0.075444
4352.76,0.07543
4356.42,0.075446
4360.08,0.07544
4363.75,0.075508
4367.43,0.075601
4371.11,0.07565
4374.8,0.075732
4378.49,0.075816
4382.19,0.075863
4385.9,0.075805
4389.61,0.07575
4393.33,0.075791
4397.06,0.075836
4400.79,0.075892
4404.53,0.075904
4408.28,0.075909
4412.03,0.075926
4415.79,0.075952
4419.55,0.076009
4423.32,0.076075
4427.1,0.076063
4430.88,0.076079
4434.68,0.076147
4438.47,0.076169
4442.28,0.076202
4446.08,0.076228
4449.9,0.076204
4453.72,0.07613
4457.55,0.07614
4461.39,0.076228
4465.23,0.076218
4469.08,0.076315
4472.94,0.076385
4476.8,0.076387
4480.67,0.076373
4484.55,0.076382
4488.43,0.076423
4492.32,0.076468
4496.21,0.076477
4500.12,0.076489
4504.03,0.076523
4507.94,0.076574
4511.87,0.076623
4515.8,0.076611
4519.73,0.076647
4523.68,0.076681
4527.63,0.076626
4531.59,0.076618
4535.55,0.076699
4539.52,0.076827
4543.5,0.076847
4547.49,0.076826
4551.48,0.076854
4555.48,0.076904
4559.49,0.076919
4563.5,0.076959
4567.52,0.076979
4571.55,0.077007
4575.58,0.076965
4579.63,0.077011
4583.67,0.07706
4587.73,0.077062
4591.79,0.077132
4595.86,0.077182
4599.94,0.077173
4604.03,0.077187
4608.12,0.077183
4612.22,0.077186
4616.33,0.077225
4620.44,0.077231
4624.56,0.077253
4628.69,0.077275
4632.83,0.077312
4636.97,0.077328
4641.12,0.077363
4645.28,0.077384
4649.45,0.077378
4653.62,0.077478
4657.8,0.077538
4661.99,0.077512
4666.19,0.077534
4670.39,0.077539
4674.6,0.077521
4678.82,0.07756
4683.05,0.077626
4687.28,0.077678
4691.52,0.077701
4695.77,0.077723
4700.03,0.077761
4704.3,0.077763
4708.57,0.07778
4712.85,0.077833
4717.14,0.077856
4721.43,0.077909
4725.74,0.077957
4730.05,0.077952
4734.37,0.077994
4738.7,0.078012
4743.03,0.078014
4747.38,0.078025
4751.73,0.078063
4756.09,0.078096
4760.45,0.078106
4764.83,0.078149
4769.21,0.078176
4773.6,0.078175
4778.0,0.078199
4782.41,0.078277
4786.83,0.078325
4791.25,0.07832
4795.68,0.078276
4800.13,0.07829
4804.57,0.078344
4809.03,0.078407
4813.5,0.078419
4817.97,0.078402
4822.45,0.078433
4826.94,0.078479
4831.44,0.078506
4835.95,0.078538
4840.46,0.07854
4844.99,0.078568
4849.52,0.078615
4854.06,0.078611
4858.61,0.078636
4863.17,0.078726
4867.73,0.078766
4872.31,0.07879
4876.89,0.078814
4881.48,0.078802
4886.08,0.078804
4890.69,0.078832
4895.31,0.078878
4899.94,0.078951
4904.57,0.078991
4909.22,0.078981
4913.87,0.07897
4918.53,0.078952
4923.21,0.079031
4927.88,0.0791
4932.57,0.079106
4937.27,0.079139
4941.98,0.079148
4946.69,0.079189
4951.42,0.079257
4956.15,0.079239
4960.9,0.079231
4965.65,0.079255
4970.41,0.079255
4975.18,0.079245
4979.96,0.079248
4984.75,0.079313
4989.54,0.079376
4994.35,0.079462
4999.17,0.079496
5003.99,0.079459
5008.83,0.07948
5013.67,0.079543
5018.52,0.079609
5023.39,0.079637
5028.26,0.079644
5033.14,0.079645
5038.03,0.079676
5042.93,0.079688
5047.84,0.079705
5052.76,0.079742
5057.69,0.079784
5062.63,0.079805
5067.58,0.07983
5072.54,0.079846
5077.51,0.079816
5082.49,0.07987
5087.47,0.079937
5092.47,0.079977
5097.48,0.079979
5102.5,0.079998
5107.52,0.079999
5112.56,0.080039
5117.61,0.0801
5122.66,0.080089
5127.73,0.080078
5132.81,0.080145
5137.89,0.080215
5142.99,0.080244
5148.1,0.080234
5153.22,0.080246
5158.34,0.080291
5163.48,0.080324
5168.63,0.080312
5173.79,0.080361
5178.96,0.080432
5184.13,0.080435
5189.32,0.080492
5194.52,0.080525
5199.73,0.080536
5204.96,0.080574
5210.19,0.0806
5215.43,0.080655
5220.68,0.08068
5225.94,0.080653
5231.22,0.080605
5236.5,0.080632
5241.79,0.080724
5247.1,0.080786
5252.42,0.080762
5257.74,0.080748
5263.08,0.080759
5268.43,0.080789
5273.79,0.080809
5279.16,0.080803
5284.54,0.080834
5289.93,0.080896
5295.34,0.080938
5300.75,0.080939
5306.18,0.080988
5311.61,0.081031
5317.06,0.081033
5322.52,0.081055
5327.99,0.081054
5333.47,0.081074
5338.96,0.081094
5344.47,0.081103
5349.98,0.081167
5355.51,0.081212
5361.05,0.081172
5366.6,0.08117
5372.16,0.081189
5377.73,0.08125
5383.32,0.081312
5388.91,0.08137
5394.52,0.081372
5400.14,0.081403
5405.77,0.081434
5411.41,0.081519
5417.07,0.081559
5422.74,0.08157
5428.41,0.081612
5434.1,0.081584
5439.81,0.081593
5445.52,0.081653
5451.25,0.081694
5456.98,0.081637
5462.73,0.081647
5468.5,0.081736
5474.27,0.08176
5480.06,0.08175
5485.86,0.081774
5491.67,0.081794
5497.49,0.08184
5503.33,0.081837
5509.18,0.081872
5515.04,0.081927
5520.91,0.081973
5526.8,0.082004
5532.69,0.082029
5538.61,0.08204
5544.53,0.082007
5550.47,0.081992
5556.41,0.082047
5562.38,0.08213
5568.35,0.082186
5574.34,0.082195
5580.34,0.082224
5586.35,0.082279
5592.38,0.082279
5598.42,0.082281
5604.47,0.082299
5610.54,0.082312
5616.61,0.082323
5622.71,0.082381
5628.81,0.082409
5634.93,0.082452
5641.06,0.082506
5647.21,0.082607
5653.36,0.082611
5659.54,0.082566
5665.72,0.082549
5671.92,0.082588
5678.13,0.082656
5684.36,0.082687
5690.6,0.082723
5696.85,0.082775
5703.12,0.082777
5709.4,0.082836
5715.69,0.082931
5722.0,0.082945
5728.33,0.082966
5734.66,0.083024
5741.01,0.083086
5747.38,0.08308
5753.76,0.083166
5760.15,0.083175
5766.56,0.083225
5772.98,0.083339
5779.41,0.083281
5785.86,0.083287
5792.33,0.083299
5798.81,0.08332
5805.3,0.083327
5811.81,0.08334
5818.33,0.083414
5824.87,0.08353
5831.42,0.083518
5837.99,0.083477
5844.57,0.083452
5851.17,0.083481
5857.78,0.083549
5864.41,0.083607
5871.05,0.083637
5877.7,0.083581
5884.38,0.083767
5891.06,0.083804
5897.76,0.083744
5904.48,0.083695
5911.21,0.083568
5917.96,0.083575
5924.73,0.083596
5931.5,0.083606
5938.3,0.083725
5945.11,0.083823
5951.93,0.083685
5958.78,0.083674
5965.63,0.083679
5972.51,0.08379
5979.39,0.083789
5986.3,0.083808
5993.22,0.083866
6000.16,0.083857
6007.11,0.083829
6014.08,0.083833
6021.06,0.083912
6028.06,0.083954
6035.08,0.083985
6042.12,0.083998
6049.17,0.08413
6056.23,0.084328
6063.32,0.08415
6070.42,0.084128
6077.53,0.084187
6084.67,0.084194
6091.82,0.084132
6098.98,0.08411
6106.17,0.084139
6113.37,0.084232
6120.58,0.084336
6127.82,0.084252
6135.07,0.084147
6142.34,0.084157
6149.63,0.084191
6156.93,0.084173
6164.25,0.084246
6171.59,0.08429
6178.95,0.084248
6186.32,0.084327
6193.71,0.084428
6201.12,0.084361
6208.54,0.084367
6215.99,0.084432
6223.45,0.084441
6230.93,0.084382
6238.43,0.084381
6245.95,0.084448
6253.48,0.0845
6261.03,0.084485
6268.6,0.084512
6276.19,0.084505
6283.8,0.084537
6291.43,0.08456
6299.07,0.084593
6306.73,0.084644
6314.42,0.084632
6322.12,0.084658
6329.84,0.08474
6337.57,0.084731
6345.33,0.084781
6353.11,0.084875
6360.9,0.084756
6368.72,0.084776
6376.55,0.084883
6384.4,0.084857
6392.27,0.084826
6400.17,0.084894
6408.08,0.084999
6416.01,0.085221
6423.96,0.085261
6431.93,0.085105
6439.92,0.085115
6447.93,0.085113
6455.96,0.085115
6464.01,0.085103
6472.08,0.085141
6480.17,0.085251
6488.28,0.085326
6496.41,0.085472
6504.56,0.085446
6512.73,0.085252
6520.92,0.085262
6529.14,0.085305
6537.37,0.085291
6545.63,0.085288
6553.9,0.085314
6562.2,0.08536
6570.51,0.085387
6578.85,0.08547
6587.21,0.085436
6595.59,0.085455
6603.99,0.085449
6612.42,0.085384
6620.86,0.0854
6629.33,0.085448
6637.82,0.085566
6646.33,0.085676
6654.86,0.08554
6663.41,0.085499
6671.99,0.085547
6680.59,0.085599
6689.21,0.085625
6697.85,0.085574
6706.51,0.085574
6715.2,0.085665
6723.91,0.085729
6732.64,0.085717
6741.4,0.085677
6750.18,0.085708
6758.98,0.085745
6767.8,0.085778
6776.65,0.085844
6785.52,0.085878
6794.41,0.085966
6803.33,0.08595
6812.27,0.085883
6821.23,0.085912
6830.22,0.086006
6839.23,0.085995
6848.26,0.085952
6857.32,0.085996
6866.4,0.08614
6875.51,0.086146
6884.64,0.086026
6893.8,0.086024
6902.98,0.086033
6912.18,0.086098
6921.41,0.086081
6930.66,0.08611
6939.94,0.08616
6949.24,0.08617
6958.57,0.086181
6967.92,0.086243
6977.3,0.086191
6986.7,0.086211
6996.13,0.086244
7005.59,0.086227
7015.07,0.086212
7024.57,0.08624
7034.1,0.086234
7043.66,0.086295
7053.25,0.086423
7062.85,0.086365
7072.49,0.086344
7082.15,0.086388
7091.84,0.0864
7101.55,0.086423
7111.3,0.08646
7121.06,0.086514
7130.86,0.086464
7140.68,0.086417
7150.53,0.086489
7160.41,0.086554
7170.31,0.086561
7180.24,0.086593
7190.2,0.086587
7200.19,0.086587
7210.2,0.086617
7220.24,0.086663
7230.31,0.086669
7240.41,0.08664
7250.54,0.086633
7260.69,0.086636
7270.88,0.086647
7281.09,0.086704
7291.33,0.086736
7301.6,0.086728
7311.9,0.086755
7322.22,0.086761
7332.58,0.086767
7342.97,0.086843
7353.38,0.086861
7363.83,0.086798
7374.3,0.086805
7384.81,0.086824
7395.34,0.086797
7405.91,0.086829
7416.5,0.086886
7427.13,0.08689
7437.78,0.086888
7448.47,0.086903
7459.19,0.086935
7469.94,0.086986
7480.71,0.08698
7491.52,0.086989
7502.37,0.086968
7513.24,0.086982
7524.14,0.087015
7535.08,0.087008
7546.05,0.086982
7557.05,0.08699
7568.08,0.087
7579.15,0.087033
7590.24,0.087002
7601.37,0.087009
7612.53,0.087023
7623.73,0.086989
7634.96,0.086971
7646.22,0.08699
7657.51,0.08701
7668.84,0.087013
7680.2,0.087004
7691.59,0.087021
7703.02,0.08708
7714.49,0.087144
7725.98,0.08715
7737.52,0.087147
7749.08,0.087148
7760.68,0.087145
7772.32,0.087156
7783.99,0.087156
7795.69,0.087145
7807.43,0.087162
7819.21,0.087168
7831.02,0.087142
7842.87,0.08716
7854.75,0.087181
7866.67,0.087192
7878.62,0.087241
7890.62,0.087335
7902.64,0.087421
7914.71,0.087467
7926.81,0.087437
7938.95,0.087422
7951.13,0.087412
7963.34,0.087367
7975.59,0.087361
7987.88,0.087338
8000.21,0.087297
8012.57,0.087269
8024.98,0.087261
8037.42,0.087246
8049.9,0.087242
8062.42,0.087265
8074.98,0.08724
8087.57,0.087217
8100.21,0.087216
8112.89,0.087198
8125.6,0.087223
8138.36,0.087198
8151.16,0.087154
8163.99,0.087193
8176.87,0.087261
8189.79,0.087274
8202.75,0.087276
8215.75,0.087296
8228.79,0.087356
8241.87,0.087357
8254.99,0.087325
8268.16,0.087338
8281.37,0.087336
8294.62,0.087328
8307.91,0.087333
8321.24,0.087332
8334.62,0.087369
8348.04,0.087413
8361.51,0.087408
8375.02,0.087371
8388.57,0.087377
8402.16,0.087406
8415.8,0.087407
8429.49,0.087416
8443.22,0.087424
8456.99,0.087383
8470.81,0.08735
8484.67,0.087321
8498.58,0.087323
8512.54,0.087346
8526.54,0.087305
8540.58,0.087302
8554.68,0.087335
8568.82,0.087324
8583.0,0.087306
8597.24,0.08725
8611.52,0.087249
8625.85,0.087268
8640.23,0.08727
8654.65,0.087219
8669.12,0.087204
8683.64,0.08724
8698.21,0.087243
8712.83,0.087227
8727.5,0.087218
8742.22,0.087148
8756.99,0.08715
8771.8,0.087124
8786.67,0.087065
8801.59,0.087053
8816.56,0.087034
8831.58,0.086995
8846.65,0.08697
8861.77,0.086899
8876.94,0.086858
8892.17,0.08685
8907.45,0.086747
8922.78,0.086769
8938.16,0.086817
8953.6,0.086724
8969.09,0.086609
8984.64,0.08653
9000.23,0.086565
9015.89,0.086602
9031.59,0.08653
9047.36,0.086398
9063.17,0.086287
9079.05,0.086126
9094.97,0.086003
9110.96,0.085965
9127.0,0.085914
9143.1,0.085834
9159.25,0.085718
9175.46,0.085682
9191.73,0.085678
9208.06,0.085521
9224.44,0.085387
9240.88,0.085374
9257.38,0.085304
9273.94,0.085174
9290.56,0.085143
9307.24,0.0851
9323.98,0.085016
9340.78,0.084988
9357.64,0.084928
9374.57,0.084822
9391.55,0.084746
9408.59,0.084741
9425.7,0.084715
9442.87,0.084586
9460.1,0.084519
9477.4,0.08445
9494.75,0.084318
9512.17,0.084288
9529.66,0.084294
9547.21,0.084261
9564.83,0.084239
9582.5,0.084212
9600.25,0.084141
9618.06,0.084048
9635.94,0.083967
9653.88,0.083922
9671.89,0.083914
9689.97,0.083904
9708.12,0.083912
9726.33,0.08385
9744.62,0.083748
9762.97,0.083725
9781.39,0.083692
9799.88,0.083621
9818.44,0.083602
9837.07,0.083612
9855.77,0.083602
9874.54,0.083577
9893.39,0.083531
9912.3,0.083484
9931.29,0.083493
9950.36,0.083466
9969.49,0.083375
9988.7,0.083357
10007.98,0.083324
10027.34,0.08327
10046.77,0.083276
10066.28,0.083311
10085.87,0.083302
10105.53,0.083269
10125.26,0.083273
10145.08,0.083275
10164.97,0.083265
10184.94,0.083272
10204.99,0.083263
10225.12,0.083222
10245.33,0.083184
10265.61,0.083188
10285.98,0.083155
10306.43,0.08314
10326.96,0.083144
10347.57,0.083123
10368.27,0.083159
10389.05,0.083149
10409.91,0.083182
10430.86,0.083222
10451.88,0.0832
10473.0,0.083195
10494.2,0.0832
10515.49,0.083193
10536.86,0.083219
10558.32,0.083213
10579.87,0.083251
10601.5,0.083332
10623.23,0.083314
10645.04,0.083301
10666.94,0.083312
10688.94,0.083301
10711.02,0.083365
10733.2,0.083467
10755.47,0.083489
10777.83,0.083515
10800.28,0.083534
10822.83,0.083471
10845.47,0.083451
10868.21,0.083519
10891.04,0.08362
10913.97,0.083639
10936.99,0.083553
10960.12,0.083539
10983.34,0.08363
11006.66,0.083638
11030.07,0.08357
11053.59,0.083598
11077.21,0.083644
11100.93,0.083593
11124.75,0.083559
11148.68,0.083594
11172.71,0.083623
11196.84,0.083637
11221.07,0.083651
11245.41,0.083612
11269.86,0.083564
11294.41,0.083552
11319.07,0.083525
11343.84,0.083469
11368.72,0.083478
11393.7,0.083541
11418.8,0.083569
11444.01,0.083531
11469.33,0.083522
11494.76,0.083437
11520.3,0.083331
11545.96,0.083252
11571.73,0.083279
11597.62,0.083285
11623.62,0.083202
11649.74,0.083117
11675.98,0.083015
11702.34,0.082965
11728.81,0.083003
11755.41,0.082903
11782.13,0.082812
11808.96,0.082834
11835.92,0.08276
11863.01,0.082671
11890.22,0.08259
11917.55,0.082554
11945.01,0.08256
11972.6,0.082473
12000.31,0.082405
12028.16,0.082417
12056.13,0.082392
12084.23,0.082317
12112.46,0.082187
12140.83,0.082129
12169.33,0.082166
12197.96,0.082174
12226.73,0.082173
12255.64,0.082094
12284.68,0.082037
12313.86,0.081938
12343.18,0.081832
12372.64,0.081772
12402.24,0.081686
12431.98,0.081691
12461.86,0.081679
12491.89,0.081497
12522.07,0.081343
12552.38,0.081363
12582.85,0.08131
12613.47,0.081192
12644.23,0.081154
12675.15,0.081142
12706.21,0.081063
12737.43,0.080985
12768.81,0.08098
12800.33,0.080837
12832.02,0.080729
12863.86,0.080651
12895.86,0.080655
12928.02,0.080637
12960.34,0.080593
12992.82,0.080535
13025.46,0.080419
13058.27,0.080324
13091.25,0.08029
13124.39,0.080252
13157.7,0.080225
13191.18,0.080143
13224.83,0.08015
13258.66,0.080145
13292.65,0.080124
13326.83,0.080113
13361.17,0.080083
13395.7,0.080016
13430.4,0.079878
13465.29,0.079811
13500.35,0.079814
13535.6,0.079794
13571.03,0.079744
13606.65,0.079787
13642.46,0.079757
13678.46,0.079767
13714.64,0.079789
13751.02,0.07977
13787.59,0.079822
13824.36,0.079737
13861.32,0.079701
13898.49,0.079666
13935.85,0.079601
13973.41,0.07969
14011.17,0.079738
14049.15,0.079739
14087.32,0.079776
14125.71,0.079823
14164.3,0.079822
14203.11,0.079808
14242.13,0.079773
14281.36,0.079871
14320.81,0.079867
14360.49,0.07979
14400.38,0.079904
14440.49,0.080112
14480.82,0.080251
14521.39,0.080457
14562.18,0.080579
14603.2,0.080652
14644.45,0.080806
14685.93,0.081026
14727.66,0.081165
14769.62,0.081328
14811.81,0.081538
14854.25,0.081836
14896.94,0.082159
14939.87,0.082553
14983.05,0.082979
15026.48,0.083238
15070.16,0.083322
15114.1,0.083578
15158.29,0.083953
15202.74,0.084275
15247.46,0.084506
15292.43,0.084724
15337.68,0.084967
15383.19,0.085266
15428.97,0.085521
15475.03,0.08578
15521.36,0.08611
15567.97,0.086333
15614.87,0.086569
15662.04,0.08699
15709.5,0.087474
15757.25,0.087937
15805.29,0.088302
15853.62,0.088607
15902.26,0.08913
15951.19,0.089797
16000.42,0.090339
16049.95,0.091
16099.8,0.091745
16149.95,0.09244
16200.42,0.093225
16251.21,0.094148
16302.31,0.09514
16353.74,0.096135
16405.49,0.09716
16457.57,0.098259
16509.98,0.099468
16562.73,0.100701
16615.82,0.10208
16669.24,0.10352
16723.02,0.105074
16777.14,0.106721
16831.61,0.108412
16886.43,0.11022
16941.62,0.112096
16997.16,0.114111
17053.08,0.116413
17109.36,0.118754
17166.01,0.121137
17223.04,0.123694
17280.45,0.12613
17338.24,0.128589
17396.43,0.131353
17455.0,0.13398
17513.97,0.136569
17573.34,0.139367
17633.11,0.142114
17693.29,0.144638
17753.89,0.14702
17814.9,0.148936
17876.33,0.150532
17938.18,0.151637
18000.47,0.1524
18063.19,0.152525
18126.35,0.152047
18189.95,0.151242
18254.0,0.150021
18318.5,0.148202
18383.46,0.146007
18448.88,0.14366
18514.77,0.141507
18581.13,0.139341
18647.97,0.137263
18715.29,0.135068
18783.1,0.132591
18851.4,0.130383
18920.2,0.128652
18989.51,0.126942
19059.32,0.125422
19129.65,0.1238
19200.5,0.122085
19271.88,0.120668
19343.79,0.119218
19416.24,0.117699
19489.23,0.11665
19562.77,0.115378
19636.88,0.1141
19711.54,0.112893
19786.78,0.111971
19862.59,0.111259
19938.98,0.1104
20015.96,0.109449
20093.55,0.108835
20171.73,0.108331
20250.53,0.107635
20329.94,0.106796
20409.98,0.106465
20490.65,0.10595
20571.96,0.105141
20653.92,0.104425
20736.54,0.103921
20819.82,0.103914
20903.77,0.103721
20988.4,0.103543
21073.72,0.103228
21159.73,0.102907
21246.46,0.102955
21333.89,0.102639
21422.04,0.102402
21510.93,0.102204
21600.56,0.102037
21690.94,0.102265
21782.08,0.102499
21873.99,0.102137
21966.67,0.101873
22060.15,0.102604
22154.42,0.103196
22249.51,0.10352
22345.41,0.104061
22442.14,0.104452
22539.72,0.104517
22638.14,0.104792
22737.43,0.1053
22837.6,0.106316
22938.65,0.107337
23040.6,0.108222
23143.46,0.109228
23247.24,0.109707
23351.96,0.11001
23457.63,0.110848
23564.25,0.111679
23671.85,0.112051
23780.44,0.112355
23890.02,0.113024
24000.63,0.114192
24112.26,0.115045
24224.93,0.114814
24338.66,0.115619
24453.47,0.11671
24569.36,0.117576
24686.36,0.119486
24804.47,0.120734
24923.73,0.120981
25044.13,0.1211
25165.71,0.122709
25288.46,0.12503
25412.43,0.126942
25537.61,0.128822
25664.04,0.130151
25791.72,0.131065
25920.68,0.132704
