Database of Origin, USGS Spectral Database
Sample Description, See USGS database for additional info
Date Added,2016-08-10 05:10:45.476650

Data ID,USGS_mon04          
Sample ID, monticellite_hs339.14280
Mineral Name, monticellite
Material Class,Nesosilicate

Wavelength
1602.52, 0.243527
1603.02, 0.243527
1603.51, 0.243906
1604.01, 0.244096
1604.5, 0.243780
1605.0, 0.244159
1605.5, 0.244917
1606.0, 0.245549
1606.49, 0.245675
1606.99, 0.245802
1607.49, 0.246181
1607.99, 0.246623
1608.49, 0.246497
1608.99, 0.246812
1609.49, 0.246623
1609.99, 0.247444
1610.49, 0.247823
1610.99, 0.247760
1611.49, 0.247886
1611.99, 0.248708
1612.49, 0.248834
1612.99, 0.248834
1613.49, 0.248897
1614.0, 0.249213
1614.5, 0.248897
1615.0, 0.249150
1615.51, 0.249213
1616.01, 0.249592
1616.51, 0.249781
1617.02, 0.249908
1617.52, 0.249971
1618.03, 0.250413
1618.53, 0.250792
1619.04, 0.250919
1619.54, 0.251108
1620.05, 0.251613
1620.55, 0.251487
1621.06, 0.251613
1621.57, 0.251866
1622.08, 0.252308
1622.58, 0.252119
1623.09, 0.252245
1623.6, 0.252561
1624.11, 0.252877
1624.62, 0.252877
1625.13, 0.253382
1625.64, 0.253761
1626.15, 0.253951
1626.66, 0.253951
1627.17, 0.253635
1627.68, 0.253256
1628.19, 0.253698
1628.7, 0.253635
1629.21, 0.253761
1629.72, 0.253888
1630.24, 0.255025
1630.75, 0.255972
1631.26, 0.256415
1631.78, 0.255972
1632.29, 0.256099
1632.8, 0.256288
1633.32, 0.256036
1633.83, 0.255720
1634.35, 0.255783
1634.86, 0.256288
1635.38, 0.256920
1635.9, 0.257236
1636.41, 0.257299
1636.93, 0.256920
1637.45, 0.257362
1637.96, 0.257552
1638.48, 0.257994
1639.0, 0.258057
1639.52, 0.258246
1640.04, 0.258183
1640.56, 0.258246
1641.08, 0.258310
1641.59, 0.258752
1642.11, 0.258815
1642.63, 0.258941
1643.16, 0.259384
1643.68, 0.259636
1644.2, 0.259447
1644.72, 0.259510
1645.24, 0.259636
1645.76, 0.260015
1646.29, 0.260268
1646.81, 0.260521
1647.33, 0.260142
1647.86, 0.260394
1648.38, 0.260458
1648.9, 0.260900
1649.43, 0.261026
1649.95, 0.261089
1650.48, 0.260773
1651.0, 0.261216
1651.53, 0.261595
1652.06, 0.262416
1652.58, 0.262416
1653.11, 0.262163
1653.64, 0.261974
1654.17, 0.262037
1654.69, 0.262100
1655.22, 0.262416
1655.75, 0.262479
1656.28, 0.262732
1656.81, 0.262795
1657.34, 0.263237
1657.87, 0.262921
1658.4, 0.263363
1658.93, 0.263490
1659.46, 0.263300
1659.99, 0.263490
1660.52, 0.263869
1661.05, 0.263742
1661.59, 0.263995
1662.12, 0.263869
1662.65, 0.263995
1663.19, 0.264185
1663.72, 0.264374
1664.26, 0.264437
1664.79, 0.264690
1665.32, 0.264690
1665.86, 0.264753
1666.39, 0.264627
1666.93, 0.264564
1667.47, 0.264500
1668.0, 0.264753
1668.54, 0.264943
1669.08, 0.265259
1669.61, 0.265448
1670.15, 0.265953
1670.69, 0.265764
1671.23, 0.266017
1671.77, 0.266269
1672.31, 0.266522
1672.85, 0.266585
1673.39, 0.266459
1673.93, 0.266522
1674.47, 0.266712
1675.01, 0.266648
1675.55, 0.266901
1676.09, 0.266585
1676.64, 0.266522
1677.18, 0.266648
1677.72, 0.267533
1678.26, 0.267280
1678.81, 0.267154
1679.35, 0.267343
1679.89, 0.267659
1680.44, 0.267912
1680.98, 0.267975
1681.53, 0.267659
1682.07, 0.267849
1682.62, 0.268038
1683.17, 0.268480
1683.71, 0.268607
1684.26, 0.268354
1684.81, 0.268417
1685.36, 0.268670
1685.9, 0.268417
1686.45, 0.268417
1687.0, 0.268354
1687.55, 0.268796
1688.1, 0.268733
1688.65, 0.268923
1689.2, 0.268923
1689.75, 0.268796
1690.3, 0.269049
1690.85, 0.269681
1691.41, 0.269617
1691.96, 0.269744
1692.51, 0.269807
1693.06, 0.269617
1693.61, 0.269617
1694.17, 0.270060
1694.72, 0.269870
1695.28, 0.269617
1695.83, 0.269554
1696.39, 0.269681
1696.94, 0.269870
1697.5, 0.270123
1698.05, 0.270249
1698.61, 0.270439
1699.17, 0.270123
1699.72, 0.270312
1700.28, 0.270628
1700.84, 0.270881
1701.4, 0.271007
1701.95, 0.271260
1702.51, 0.270818
1703.07, 0.270691
1703.63, 0.271007
1704.19, 0.271386
1704.75, 0.271260
1705.31, 0.271197
1705.88, 0.271260
1706.44, 0.271449
1707.0, 0.271260
1707.56, 0.271260
1708.12, 0.271386
1708.69, 0.271449
1709.25, 0.271260
1709.81, 0.271449
1710.38, 0.271702
1710.94, 0.271955
1711.51, 0.271955
1712.07, 0.272081
1712.64, 0.272397
1713.2, 0.272650
1713.77, 0.272271
1714.34, 0.272271
1714.9, 0.272271
1715.47, 0.272713
1716.04, 0.272650
1716.61, 0.272713
1717.18, 0.272523
1717.74, 0.272460
1718.31, 0.272271
1718.88, 0.272586
1719.45, 0.272902
1720.02, 0.272966
1720.59, 0.273218
1721.17, 0.273471
1721.74, 0.273155
1722.31, 0.273155
1722.88, 0.273281
1723.45, 0.273218
1724.03, 0.273218
1724.6, 0.273345
1725.18, 0.273345
1725.75, 0.273534
1726.33, 0.273597
1726.9, 0.273976
1727.48, 0.273976
1728.05, 0.274103
1728.63, 0.273976
1729.2, 0.274039
1729.78, 0.273850
1730.36, 0.274292
1730.94, 0.274482
1731.51, 0.274545
1732.09, 0.274418
1732.67, 0.274418
1733.25, 0.274292
1733.83, 0.274545
1734.41, 0.274355
1734.99, 0.274292
1735.57, 0.274797
1736.15, 0.274987
1736.73, 0.274545
1737.32, 0.274482
1737.9, 0.274545
1738.48, 0.274734
1739.07, 0.274671
1739.65, 0.274861
1740.23, 0.274671
1740.82, 0.274924
1741.4, 0.275050
1741.99, 0.274987
1742.57, 0.275240
1743.16, 0.275429
1743.74, 0.275429
1744.33, 0.275871
1744.92, 0.275808
1745.51, 0.275429
1746.09, 0.275240
1746.68, 0.275303
1747.27, 0.275113
1747.86, 0.275303
1748.45, 0.275492
1749.04, 0.275682
1749.63, 0.275556
1750.22, 0.275808
1750.81, 0.275745
1751.4, 0.275808
1751.99, 0.276061
1752.59, 0.276377
1753.18, 0.276314
1753.77, 0.276124
1754.37, 0.275935
1754.96, 0.275998
1755.56, 0.275745
1756.15, 0.275619
1756.74, 0.275871
1757.34, 0.276566
1757.94, 0.276314
1758.53, 0.276124
1759.13, 0.276250
1759.73, 0.276377
1760.32, 0.276124
1760.92, 0.276187
1761.52, 0.276187
1762.12, 0.276440
1762.72, 0.276566
1763.32, 0.276566
1763.92, 0.276250
1764.52, 0.276440
1765.12, 0.276566
1765.72, 0.276756
1766.32, 0.276693
1766.92, 0.276693
1767.53, 0.276629
1768.13, 0.276756
1768.73, 0.276566
1769.34, 0.276693
1769.94, 0.276629
1770.55, 0.276566
1771.15, 0.276566
1771.76, 0.276693
1772.36, 0.276693
1772.97, 0.277072
1773.57, 0.277135
1774.18, 0.277072
1774.79, 0.277135
1775.4, 0.277198
1776.0, 0.276945
1776.61, 0.277261
1777.22, 0.277388
1777.83, 0.277198
1778.44, 0.277009
1779.05, 0.277135
1779.66, 0.277198
1780.27, 0.277324
1780.88, 0.277324
1781.5, 0.277198
1782.11, 0.277009
1782.72, 0.277324
1783.33, 0.277577
1783.95, 0.277577
1784.56, 0.277451
1785.18, 0.277577
1785.79, 0.277577
1786.41, 0.277767
1787.02, 0.277324
1787.64, 0.277388
1788.26, 0.277703
1788.87, 0.277830
1789.49, 0.277767
1790.11, 0.278146
1790.73, 0.278019
1791.35, 0.277956
1791.96, 0.278082
1792.58, 0.278272
1793.21, 0.278082
1793.83, 0.278082
1794.45, 0.278146
1795.07, 0.278398
1795.69, 0.278651
1796.31, 0.278651
1796.93, 0.278461
1797.56, 0.278525
1798.18, 0.278398
1798.8, 0.278461
1799.43, 0.278272
1800.05, 0.278398
1800.68, 0.278588
1801.3, 0.278651
1801.93, 0.278525
1802.56, 0.278651
1803.18, 0.278777
1803.81, 0.278904
1804.44, 0.278841
1805.07, 0.278967
1805.7, 0.278714
1806.33, 0.278651
1806.95, 0.278588
1807.58, 0.278714
1808.22, 0.278904
1808.85, 0.279346
1809.48, 0.279283
1810.11, 0.279030
1810.74, 0.278841
1811.38, 0.278904
1812.01, 0.278841
1812.64, 0.279283
1813.28, 0.279220
1813.91, 0.279472
1814.55, 0.279599
1815.18, 0.279725
1815.82, 0.279409
1816.45, 0.279156
1817.09, 0.279093
1817.73, 0.279409
1818.36, 0.279599
1819.0, 0.279662
1819.64, 0.279535
1820.28, 0.279725
1820.92, 0.279788
1821.56, 0.279914
1822.2, 0.279851
1822.84, 0.279535
1823.48, 0.279472
1824.12, 0.279725
1824.76, 0.279599
1825.41, 0.279662
1826.05, 0.279851
1826.69, 0.279914
1827.34, 0.279788
1827.98, 0.280167
1828.63, 0.280167
1829.27, 0.280230
1829.92, 0.280293
1830.56, 0.280293
1831.21, 0.280104
1831.86, 0.280104
1832.5, 0.280104
1833.15, 0.280420
1833.8, 0.280357
1834.45, 0.280357
1835.1, 0.280546
1835.75, 0.280609
1836.4, 0.280420
1837.05, 0.280420
1837.7, 0.280483
1838.35, 0.280672
1839.01, 0.280799
1839.66, 0.280736
1840.31, 0.280672
1840.96, 0.280862
1841.62, 0.280736
1842.27, 0.280736
1842.93, 0.280546
1843.58, 0.280672
1844.24, 0.280609
1844.9, 0.280546
1845.55, 0.280483
1846.21, 0.280546
1846.87, 0.280799
1847.53, 0.280988
1848.18, 0.281178
1848.84, 0.281115
1849.5, 0.280799
1850.16, 0.280609
1850.82, 0.280609
1851.48, 0.280925
1852.14, 0.280925
1852.81, 0.281052
1853.47, 0.281178
1854.13, 0.281052
1854.8, 0.280799
1855.46, 0.280925
1856.12, 0.280925
1856.79, 0.280862
1857.45, 0.280799
1858.12, 0.280736
1858.79, 0.280736
1859.45, 0.280925
1860.12, 0.280925
1860.79, 0.281115
1861.46, 0.281178
1862.12, 0.280925
1862.79, 0.280672
1863.46, 0.280925
1864.13, 0.280925
1864.8, 0.281052
1865.48, 0.280925
1866.15, 0.280799
1866.82, 0.280988
1867.49, 0.281178
1868.16, 0.281304
1868.84, 0.281557
1869.51, 0.281557
1870.19, 0.281683
1870.86, 0.281683
1871.54, 0.281683
1872.21, 0.281557
1872.89, 0.281620
1873.56, 0.281304
1874.24, 0.281431
1874.92, 0.281494
1875.6, 0.281431
1876.28, 0.281241
1876.96, 0.281620
1877.64, 0.281746
1878.32, 0.281620
1879.0, 0.281557
1879.68, 0.281746
1880.36, 0.281683
1881.04, 0.281494
1881.73, 0.281620
1882.41, 0.281683
1883.09, 0.281620
1883.78, 0.281746
1884.46, 0.281683
1885.15, 0.281810
1885.83, 0.281746
1886.52, 0.281746
1887.21, 0.281810
1887.89, 0.281746
1888.58, 0.281620
1889.27, 0.281746
1889.96, 0.281746
1890.65, 0.281999
1891.34, 0.282252
1892.03, 0.282062
1892.72, 0.281873
1893.41, 0.281999
1894.1, 0.281999
1894.79, 0.282062
1895.49, 0.281873
1896.18, 0.281873
1896.87, 0.281873
1897.57, 0.281999
1898.26, 0.281873
1898.96, 0.282062
1899.65, 0.282189
1900.35, 0.282315
1901.05, 0.282315
1901.74, 0.282189
1902.44, 0.281936
1903.14, 0.281999
1903.84, 0.282062
1904.54, 0.282315
1905.24, 0.282252
1905.94, 0.281936
1906.64, 0.281683
1907.34, 0.281810
1908.04, 0.281936
1908.75, 0.281873
1909.45, 0.281746
1910.15, 0.281873
1910.86, 0.282125
1911.56, 0.282189
1912.27, 0.281936
1912.97, 0.281999
1913.68, 0.281936
1914.39, 0.281936
1915.09, 0.281810
1915.8, 0.281746
1916.51, 0.281936
1917.22, 0.282125
1917.93, 0.282062
1918.64, 0.282062
1919.35, 0.282125
1920.06, 0.282315
1920.77, 0.282252
1921.48, 0.282315
1922.19, 0.282062
1922.91, 0.281936
1923.62, 0.281999
1924.33, 0.282252
1925.05, 0.282062
1925.76, 0.281999
1926.48, 0.282062
1927.19, 0.282189
1927.91, 0.282252
1928.63, 0.282378
1929.35, 0.282315
1930.07, 0.282252
1930.78, 0.282189
1931.5, 0.282189
1932.22, 0.282252
1932.94, 0.282441
1933.66, 0.282315
1934.39, 0.282378
1935.11, 0.282252
1935.83, 0.282315
1936.55, 0.282315
1937.28, 0.282315
1938.0, 0.282315
1938.73, 0.282378
1939.45, 0.282315
1940.18, 0.282568
1940.9, 0.282568
1941.63, 0.282441
1942.36, 0.282378
1943.09, 0.282315
1943.81, 0.282315
1944.54, 0.282694
1945.27, 0.282568
1946.0, 0.282568
1946.73, 0.282694
1947.47, 0.282631
1948.2, 0.282504
1948.93, 0.282820
1949.66, 0.282757
1950.4, 0.282820
1951.13, 0.282820
1951.86, 0.282757
1952.6, 0.282504
1953.34, 0.282568
1954.07, 0.282631
1954.81, 0.282820
1955.55, 0.282694
1956.29, 0.282883
1957.02, 0.282947
1957.76, 0.283010
1958.5, 0.283136
1959.24, 0.283326
1959.98, 0.283199
1960.72, 0.283073
1961.47, 0.282820
1962.21, 0.283136
1962.95, 0.283136
1963.7, 0.282947
1964.44, 0.282883
1965.18, 0.283010
1965.93, 0.283010
1966.67, 0.283073
1967.42, 0.283073
1968.17, 0.283326
1968.92, 0.283263
1969.66, 0.283389
1970.41, 0.283389
1971.16, 0.283326
1971.91, 0.283263
1972.66, 0.283389
1973.41, 0.283389
1974.16, 0.283578
1974.92, 0.283642
1975.67, 0.283831
1976.42, 0.283831
1977.18, 0.283831
1977.93, 0.283894
1978.69, 0.283957
1979.44, 0.283894
1980.2, 0.283831
1980.95, 0.283831
1981.71, 0.283957
1982.47, 0.283957
1983.23, 0.284084
1983.99, 0.284147
1984.74, 0.284273
1985.51, 0.284526
1986.27, 0.284779
1987.03, 0.284842
1987.79, 0.284716
1988.55, 0.284589
1989.32, 0.284652
1990.08, 0.284842
1990.84, 0.285094
1991.61, 0.285094
1992.37, 0.285221
1993.14, 0.285221
1993.9, 0.285158
1994.67, 0.285221
1995.44, 0.285284
1996.21, 0.285284
1996.98, 0.285410
1997.75, 0.285410
1998.52, 0.285474
1999.29, 0.285474
2000.06, 0.285726
2000.83, 0.285789
2001.6, 0.285916
2002.38, 0.285979
2003.15, 0.286105
2003.93, 0.286042
2004.7, 0.286295
2005.48, 0.286484
2006.25, 0.286611
2007.03, 0.286611
2007.81, 0.286421
2008.58, 0.286105
2009.36, 0.286421
2010.14, 0.286737
2010.92, 0.286863
2011.7, 0.286800
2012.48, 0.286737
2013.26, 0.286737
2014.05, 0.286737
2014.83, 0.286800
2015.61, 0.287116
2016.4, 0.287053
2017.18, 0.287179
2017.97, 0.287179
2018.75, 0.287179
2019.54, 0.287306
2020.32, 0.287369
2021.11, 0.287242
2021.9, 0.287369
2022.69, 0.287432
2023.48, 0.287495
2024.27, 0.287495
2025.06, 0.287495
2025.85, 0.287558
2026.64, 0.287621
2027.44, 0.287811
2028.23, 0.287937
2029.02, 0.287748
2029.82, 0.287748
2030.61, 0.287685
2031.41, 0.287748
2032.2, 0.287621
2033.0, 0.287811
2033.8, 0.287874
2034.6, 0.288000
2035.4, 0.287874
2036.2, 0.287937
2037.0, 0.287874
2037.8, 0.288127
2038.6, 0.288253
2039.4, 0.288379
2040.2, 0.288316
2041.01, 0.288443
2041.81, 0.288632
2042.61, 0.288758
2043.42, 0.288253
2044.22, 0.288253
2045.03, 0.288316
2045.84, 0.288443
2046.65, 0.288569
2047.46, 0.288569
2048.26, 0.288569
2049.07, 0.288506
2049.88, 0.288632
2050.69, 0.288885
2051.51, 0.288695
2052.32, 0.288443
2053.13, 0.288506
2053.94, 0.288885
2054.76, 0.288758
2055.57, 0.288822
2056.39, 0.288758
2057.2, 0.288758
2058.02, 0.288695
2058.84, 0.288885
2059.66, 0.288948
2060.48, 0.288885
2061.29, 0.288758
2062.11, 0.288758
2062.94, 0.288632
2063.76, 0.288632
2064.58, 0.289011
2065.4, 0.289327
2066.22, 0.289074
2067.05, 0.288948
2067.87, 0.288948
2068.7, 0.289264
2069.52, 0.289327
2070.35, 0.289327
2071.18, 0.289138
2072.0, 0.289074
2072.83, 0.289138
2073.66, 0.289390
2074.49, 0.289453
2075.32, 0.289390
2076.15, 0.289390
2076.98, 0.289453
2077.82, 0.289390
2078.65, 0.289453
2079.48, 0.289517
2080.32, 0.289706
2081.15, 0.289706
2081.99, 0.289832
2082.83, 0.289769
2083.66, 0.289896
2084.5, 0.290022
2085.34, 0.289832
2086.18, 0.289769
2087.02, 0.290085
2087.86, 0.290148
2088.7, 0.290275
2089.54, 0.290338
2090.39, 0.290401
2091.23, 0.290401
2092.07, 0.290464
2092.92, 0.290401
2093.76, 0.290527
2094.61, 0.290717
2095.45, 0.290843
2096.3, 0.290970
2097.15, 0.291096
2098.0, 0.290780
2098.85, 0.290843
2099.7, 0.291033
2100.55, 0.291222
2101.4, 0.291349
2102.25, 0.291412
2103.1, 0.291412
2103.96, 0.291601
2104.81, 0.291412
2105.67, 0.291349
2106.52, 0.291349
2107.38, 0.291475
2108.24, 0.291601
2109.09, 0.291664
2109.95, 0.291664
2110.81, 0.291728
2111.67, 0.291854
2112.53, 0.292107
2113.39, 0.292170
2114.25, 0.292359
2115.12, 0.292296
2115.98, 0.292422
2116.84, 0.292422
2117.71, 0.292549
2118.58, 0.292738
2119.44, 0.292865
2120.31, 0.292991
2121.18, 0.293054
2122.04, 0.292928
2122.91, 0.292991
2123.78, 0.292991
2124.65, 0.293054
2125.52, 0.292928
2126.4, 0.292991
2127.27, 0.293117
2128.14, 0.293117
2129.02, 0.293054
2129.89, 0.293117
2130.77, 0.293117
2131.64, 0.293181
2132.52, 0.293244
2133.4, 0.293244
2134.27, 0.293370
2135.15, 0.293560
2136.03, 0.293560
2136.91, 0.293623
2137.79, 0.293686
2138.68, 0.293812
2139.56, 0.293686
2140.44, 0.293623
2141.33, 0.293623
2142.21, 0.293686
2143.1, 0.293686
2143.99, 0.293812
2144.87, 0.293875
2145.76, 0.293939
2146.65, 0.293939
2147.54, 0.293939
2148.43, 0.293812
2149.32, 0.293939
2150.21, 0.293875
2151.1, 0.293875
2151.99, 0.293749
2152.89, 0.293749
2153.78, 0.293812
2154.68, 0.294065
2155.57, 0.294065
2156.47, 0.294002
2157.37, 0.294065
2158.27, 0.294128
2159.16, 0.293939
2160.06, 0.293939
2160.96, 0.293939
2161.86, 0.293812
2162.77, 0.293875
2163.67, 0.294065
2164.57, 0.293939
2165.48, 0.293939
2166.38, 0.293939
2167.29, 0.293875
2168.2, 0.293875
2169.1, 0.293939
2170.01, 0.293812
2170.92, 0.293875
2171.83, 0.293875
2172.74, 0.293812
2173.65, 0.293749
2174.56, 0.293623
2175.47, 0.293496
2176.39, 0.293496
2177.3, 0.293560
2178.22, 0.293623
2179.13, 0.293560
2180.05, 0.293496
2180.96, 0.293370
2181.88, 0.293560
2182.8, 0.293686
2183.72, 0.293686
2184.64, 0.293496
2185.56, 0.293433
2186.48, 0.293370
2187.41, 0.293370
2188.33, 0.293244
2189.25, 0.293117
2190.18, 0.293181
2191.1, 0.293307
2192.03, 0.293307
2192.96, 0.293244
2193.89, 0.293117
2194.82, 0.293054
2195.74, 0.292928
2196.68, 0.292865
2197.61, 0.292801
2198.54, 0.292865
2199.47, 0.292801
2200.4, 0.293054
2201.34, 0.293181
2202.28, 0.293181
2203.21, 0.293181
2204.15, 0.293181
2205.08, 0.293117
2206.02, 0.293307
2206.96, 0.293370
2207.9, 0.293560
2208.84, 0.293623
2209.78, 0.293560
2210.73, 0.293370
2211.67, 0.293560
2212.61, 0.293623
2213.56, 0.293812
2214.5, 0.294002
2215.45, 0.293939
2216.4, 0.293812
2217.35, 0.294002
2218.3, 0.293939
2219.24, 0.293875
2220.2, 0.293875
2221.15, 0.294002
2222.1, 0.293939
2223.05, 0.294128
2224.0, 0.294191
2224.96, 0.294191
2225.91, 0.294065
2226.87, 0.294254
2227.83, 0.294191
2228.79, 0.294191
2229.74, 0.294254
2230.7, 0.294381
2231.66, 0.294444
2232.63, 0.294697
2233.59, 0.294507
2234.55, 0.294570
2235.51, 0.294381
2236.48, 0.294318
2237.44, 0.294318
2238.41, 0.294507
2239.38, 0.294381
2240.34, 0.294507
2241.31, 0.294633
2242.28, 0.294697
2243.25, 0.294318
2244.22, 0.294318
2245.19, 0.294444
2246.17, 0.294507
2247.14, 0.294507
2248.12, 0.294633
2249.09, 0.294507
2250.07, 0.294381
2251.04, 0.294507
2252.02, 0.294760
2253.0, 0.294760
2253.98, 0.294633
2254.96, 0.294570
2255.94, 0.295076
2256.92, 0.295076
2257.91, 0.294949
2258.89, 0.295202
2259.88, 0.295202
2260.86, 0.295139
2261.85, 0.295582
2262.83, 0.295519
2263.82, 0.295519
2264.81, 0.295836
2265.8, 0.296026
2266.79, 0.295772
2267.78, 0.295709
2268.78, 0.296026
2269.77, 0.296152
2270.76, 0.295962
2271.76, 0.295772
2272.75, 0.295709
2273.75, 0.295772
2274.75, 0.295836
2275.75, 0.295962
2276.75, 0.296152
2277.75, 0.296406
2278.75, 0.295962
2279.75, 0.295709
2280.75, 0.295772
2281.76, 0.295899
2282.76, 0.295836
2283.77, 0.295962
2284.77, 0.295899
2285.78, 0.296089
2286.79, 0.296469
2287.8, 0.296596
2288.81, 0.296089
2289.82, 0.295772
2290.83, 0.295962
2291.84, 0.296216
2292.86, 0.296279
2293.87, 0.296279
2294.89, 0.296152
2295.91, 0.296026
2296.92, 0.296089
2297.94, 0.296089
2298.96, 0.296026
2299.98, 0.296089
2301.0, 0.295899
2302.02, 0.295836
2303.04, 0.296026
2304.07, 0.296152
2305.09, 0.295962
2306.12, 0.295899
2307.15, 0.295456
2308.17, 0.295265
2309.2, 0.295139
2310.23, 0.294949
2311.26, 0.294822
2312.29, 0.295012
2313.32, 0.294886
2314.35, 0.295076
2315.39, 0.295076
2316.42, 0.295076
2317.46, 0.294632
2318.5, 0.294442
2319.53, 0.294442
2320.57, 0.294505
2321.61, 0.294379
2322.65, 0.294252
2323.69, 0.294252
2324.73, 0.294125
2325.78, 0.293809
2326.82, 0.293999
2327.86, 0.293935
2328.91, 0.293935
2329.96, 0.294189
2331.01, 0.294062
2332.05, 0.293745
2333.1, 0.293872
2334.15, 0.294189
2335.21, 0.294189
2336.26, 0.294252
2337.31, 0.294252
2338.36, 0.294189
2339.42, 0.294379
2340.48, 0.294442
2341.53, 0.294569
2342.59, 0.294632
2343.65, 0.294695
2344.71, 0.294822
2345.77, 0.295076
2346.83, 0.295012
2347.9, 0.294695
2348.96, 0.294505
2350.02, 0.294632
2351.09, 0.294759
2352.16, 0.294949
2353.23, 0.294949
2354.29, 0.294886
2355.36, 0.294759
2356.43, 0.294949
2357.51, 0.295012
2358.58, 0.295202
2359.65, 0.295139
2360.73, 0.295012
2361.8, 0.295139
2362.88, 0.295392
2363.96, 0.295519
2365.03, 0.295456
2366.11, 0.295329
2367.19, 0.295519
2368.27, 0.295709
2369.36, 0.295962
2370.44, 0.295962
2371.53, 0.296026
2372.61, 0.296089
2373.7, 0.296089
2374.78, 0.295962
2375.87, 0.296279
2376.96, 0.296406
2378.05, 0.296532
2379.14, 0.296532
2380.24, 0.296469
2381.33, 0.296406
2382.42, 0.296596
2383.52, 0.296596
2384.61, 0.296722
2385.71, 0.296659
2386.81, 0.296722
2387.91, 0.296912
2389.01, 0.296976
2390.11, 0.297039
2391.22, 0.297419
2392.32, 0.297546
2393.42, 0.297482
2394.53, 0.297166
2395.64, 0.296976
2396.74, 0.297292
2397.85, 0.297609
2398.96, 0.297672
2400.07, 0.297292
2401.18, 0.297229
2402.3, 0.297672
2403.41, 0.297799
2404.52, 0.297736
2405.64, 0.297482
2406.76, 0.297609
2407.88, 0.297736
2408.99, 0.297609
2410.11, 0.297736
2411.23, 0.297482
2412.36, 0.297292
2413.48, 0.297419
2414.6, 0.297419
2415.73, 0.297419
2416.85, 0.297229
2417.98, 0.297419
2419.11, 0.297039
2420.24, 0.296596
2421.37, 0.296342
2422.5, 0.296216
2423.64, 0.296406
2424.77, 0.296406
2425.9, 0.296089
2427.04, 0.295899
2428.18, 0.295772
2429.31, 0.295709
2430.45, 0.295519
2431.59, 0.295519
2432.73, 0.295709
2433.88, 0.295519
2435.02, 0.294822
2436.16, 0.294442
2437.31, 0.294505
2438.45, 0.294759
2439.6, 0.294822
2440.75, 0.294759
2441.9, 0.294315
2443.05, 0.293682
2444.2, 0.293492
2445.35, 0.293682
2446.51, 0.293619
2447.67, 0.293492
2448.82, 0.293112
2449.98, 0.292859
2451.14, 0.292922
2452.3, 0.292732
2453.46, 0.292352
2454.62, 0.292099
2455.78, 0.291845
2456.94, 0.292035
2458.11, 0.292035
2459.28, 0.291845
2460.44, 0.291465
2461.61, 0.291529
2462.78, 0.291529
2463.95, 0.291529
2465.12, 0.291592
2466.3, 0.291529
2467.47, 0.291085
2468.65, 0.290895
2469.82, 0.290705
2471.0, 0.290389
2472.18, 0.290199
2473.36, 0.290009
2474.54, 0.289882
2475.72, 0.289755
2476.9, 0.289439
2478.08, 0.289312
2479.27, 0.289249
2480.46, 0.289312
2481.64, 0.289059
2482.83, 0.288995
2484.02, 0.288932
2485.21, 0.288932
2486.4, 0.288869
2487.6, 0.288805
2488.79, 0.288995
2489.99, 0.289312
2491.18, 0.289375
2492.38, 0.289502
2493.58, 0.289629
2494.78, 0.289439
2495.98, 0.289059
2497.18, 0.288932
2498.39, 0.289059
2499.59, 0.289059
2500.8, 0.288932
2502.01, 0.288869
2503.21, 0.289122
2504.42, 0.289375
2505.63, 0.289439
2506.84, 0.289312
2508.06, 0.289439
2509.27, 0.289692
2510.49, 0.289692
2511.7, 0.289692
2512.92, 0.289629
2514.14, 0.289439
2515.36, 0.289629
2516.58, 0.289945
2517.8, 0.289819
2519.03, 0.289755
2520.25, 0.289945
2521.48, 0.290072
2522.7, 0.289882
2523.93, 0.289882
2525.16, 0.289945
2526.39, 0.290135
2527.62, 0.289945
2528.86, 0.289882
2530.09, 0.290009
2531.33, 0.290325
2532.56, 0.290642
2533.8, 0.290642
2535.04, 0.290642
2536.28, 0.290832
2537.52, 0.290579
2538.76, 0.290769
2540.01, 0.291022
2541.25, 0.291339
2542.5, 0.291529
2543.75, 0.291845
2544.99, 0.291782
2546.24, 0.291972
2547.49, 0.292352
2548.75, 0.292542
2550.0, 0.292605
2551.26, 0.292669
2552.51, 0.292859
2553.77, 0.293049
2555.03, 0.292922
2556.29, 0.292859
2557.55, 0.292922
2558.81, 0.293112
2560.08, 0.293935
2561.34, 0.294505
2562.61, 0.294315
2563.88, 0.294125
2565.14, 0.293682
2566.41, 0.293365
2567.68, 0.293492
2568.96, 0.294442
2570.23, 0.294505
2571.51, 0.294189
2572.78, 0.294886
2574.06, 0.294569
2575.34, 0.294125
2576.62, 0.294569
2577.9, 0.294315
2579.18, 0.293745
2580.47, 0.293935
2581.75, 0.294062
2583.04, 0.294759
2584.32, 0.294505
2585.61, 0.293492
2586.9, 0.293935
2588.2, 0.293935
2589.49, 0.293682
2590.78, 0.293112
2592.08, 0.293365
2593.37, 0.295139
2594.67, 0.296849
2595.97, 0.294695
2597.27, 0.292922
2598.57, 0.292352
2599.88, 0.292352
2601.18, 0.292542
2602.49, 0.292542
2603.79, 0.292479
2605.1, 0.293239
2606.41, 0.292859
2607.72, 0.292035
2609.03, 0.291719
2610.35, 0.291465
2611.66, 0.290959
2612.98, 0.290769
2614.3, 0.290452
2615.62, 0.291339
2616.94, 0.291592
2618.26, 0.290642
2619.58, 0.291085
2620.91, 0.290705
2622.23, 0.289375
2623.56, 0.288995
2624.89, 0.289249
2626.22, 0.289945
2627.55, 0.289059
2628.88, 0.289059
2630.21, 0.289755
2631.55, 0.288615
2632.89, 0.287919
2634.22, 0.287475
2635.56, 0.286652
2636.9, 0.286715
2638.25, 0.286335
2639.59, 0.285955
2640.93, 0.285955
2642.28, 0.285829
2643.63, 0.285195
2644.98, 0.285195
2646.33, 0.284689
2647.68, 0.284119
2649.03, 0.283549
2650.39, 0.283422
2651.74, 0.283675
2653.1, 0.283549
2654.46, 0.282725
2655.82, 0.282029
2657.18, 0.281079
2658.54, 0.280762
2659.9, 0.280129
2661.27, 0.279369
2662.64, 0.278672
2664.01, 0.279115
2665.38, 0.279052
2666.74, 0.277849
2668.12, 0.275822
2669.49, 0.276012
2670.87, 0.274745
2672.24, 0.271578
2673.62, 0.269932
2675.0, 0.269108
2676.38, 0.268285
2677.76, 0.266322
2679.15, 0.264042
2680.54, 0.261002
2681.92, 0.258278
2683.31, 0.256061
2684.7, 0.253211
2686.09, 0.250425
2687.48, 0.247385
2688.88, 0.244408
2690.27, 0.241051
2691.67, 0.237758
2693.07, 0.234401
2694.47, 0.229714
2695.87, 0.222874
2697.27, 0.212867
2698.67, 0.199947
2700.08, 0.188484
2701.49, 0.179173
2702.9, 0.170813
2704.31, 0.163340
2705.72, 0.156310
2707.13, 0.149596
2708.54, 0.143769
2709.96, 0.138956
2711.38, 0.133826
2712.8, 0.128506
2714.22, 0.124579
2715.64, 0.121032
2717.06, 0.117802
2718.49, 0.114825
2719.91, 0.112165
2721.34, 0.108872
2722.77, 0.106275
2724.2, 0.104312
2725.63, 0.102159
2727.07, 0.100259
2728.5, 0.0991820
2729.94, 0.0985490
2731.38, 0.0981050
2732.82, 0.0979150
2734.26, 0.0978520
2735.7, 0.0974080
2737.15, 0.0972180
2738.59, 0.0974080
2740.04, 0.0972180
2741.49, 0.0966480
2742.94, 0.0960150
2744.39, 0.0954450
2745.84, 0.0953180
2747.3, 0.0955080
2748.76, 0.0956980
2750.21, 0.0959520
2751.67, 0.0964580
2753.14, 0.0965220
2754.6, 0.0967120
2756.06, 0.0965220
2757.53, 0.0962680
2759.0, 0.0965850
2760.46, 0.0968380
2761.94, 0.0970280
2763.41, 0.0968380
2764.88, 0.0965220
2766.36, 0.0963950
2767.83, 0.0960150
2769.31, 0.0958250
2770.79, 0.0958250
2772.27, 0.0960150
2773.76, 0.0960780
2775.24, 0.0959520
2776.73, 0.0960150
2778.22, 0.0962680
2779.71, 0.0965220
2781.2, 0.0970920
2782.69, 0.0973450
2784.18, 0.0968380
2785.68, 0.0966480
2787.18, 0.0972180
2788.68, 0.0979780
2790.18, 0.0984220
2791.68, 0.0986120
2793.19, 0.0985490
2794.69, 0.0984850
2796.2, 0.0982950
2797.71, 0.0972180
2799.22, 0.0958250
2800.73, 0.0941780
2802.24, 0.0924050
2803.76, 0.0911380
2805.28, 0.0917720
2806.8, 0.0936080
2808.32, 0.0953180
2809.84, 0.0965850
2811.36, 0.0974720
2812.89, 0.0979150
2814.42, 0.0980420
2815.94, 0.0979780
2817.48, 0.0982950
2819.01, 0.0986120
2820.54, 0.0989920
2822.08, 0.0994350
2823.61, 0.100195
2825.15, 0.101082
2826.69, 0.102159
2828.23, 0.103109
2829.78, 0.103679
2831.32, 0.104122
2832.87, 0.104439
2834.42, 0.104439
2835.97, 0.104629
2837.52, 0.105135
2839.08, 0.105515
2840.63, 0.105769
2842.19, 0.106022
2843.75, 0.106339
2845.31, 0.106655
2846.87, 0.107035
2848.44, 0.107415
2850.0, 0.107859
2851.57, 0.108239
2853.14, 0.108745
2854.71, 0.109062
2856.28, 0.109125
2857.86, 0.109379
2859.43, 0.109759
2861.01, 0.110075
2862.59, 0.110265
2864.17, 0.110709
2865.76, 0.111089
2867.34, 0.111279
2868.93, 0.111342
2870.52, 0.111595
2872.11, 0.111975
2873.7, 0.112229
2875.29, 0.112419
2876.89, 0.112735
2878.49, 0.112989
2880.08, 0.113305
2881.69, 0.113622
2883.29, 0.113875
2884.89, 0.114129
2886.5, 0.114572
2888.11, 0.114762
2889.72, 0.115079
2891.33, 0.115459
2892.94, 0.115649
2894.56, 0.115965
2896.17, 0.116346
2897.79, 0.116726
2899.42, 0.117042
2901.04, 0.117296
2902.66, 0.117612
2904.29, 0.118119
2905.92, 0.118499
2907.55, 0.119006
2909.18, 0.119386
2910.81, 0.119576
2912.45, 0.119956
2914.08, 0.120336
2915.72, 0.120589
2917.36, 0.120842
2919.01, 0.121222
2920.65, 0.121602
2922.3, 0.122046
2923.94, 0.122362
2925.59, 0.122742
2927.25, 0.123122
2928.9, 0.123566
2930.56, 0.123882
2932.21, 0.124199
2933.87, 0.124706
2935.53, 0.125149
2937.2, 0.125529
2938.86, 0.126099
2940.53, 0.126416
2942.2, 0.126859
2943.87, 0.127366
2945.54, 0.127936
2947.22, 0.128506
2948.89, 0.128759
2950.57, 0.129202
2952.25, 0.129899
2953.93, 0.130469
2955.62, 0.131039
2957.3, 0.131672
2958.99, 0.132179
2960.68, 0.132749
2962.37, 0.133382
2964.07, 0.134016
2965.76, 0.134586
2967.46, 0.135156
2969.16, 0.135853
2970.86, 0.136613
2972.56, 0.137246
2974.27, 0.137753
2975.98, 0.138449
2977.69, 0.139146
2979.4, 0.139653
2981.11, 0.140223
2982.83, 0.140919
2984.54, 0.141553
2986.26, 0.142123
2987.98, 0.142693
2989.71, 0.143326
2991.43, 0.143959
2993.16, 0.144466
2994.89, 0.144973
2996.62, 0.145606
2998.35, 0.146303
3000.09, 0.146936
3001.83, 0.147443
3003.57, 0.148013
3005.31, 0.148583
3007.05, 0.149216
3008.79, 0.149786
3010.54, 0.150546
3012.29, 0.151116
3014.04, 0.151560
3015.8, 0.152003
3017.55, 0.152573
3019.31, 0.153270
3021.07, 0.153776
3022.83, 0.154283
3024.59, 0.154853
3026.36, 0.155486
3028.13, 0.155993
3029.9, 0.156436
3031.67, 0.156943
3033.44, 0.157640
3035.22, 0.158146
3037.0, 0.158590
3038.78, 0.158970
3040.56, 0.159603
3042.34, 0.160236
3044.13, 0.160616
3045.92, 0.161186
3047.71, 0.161756
3049.5, 0.162263
3051.3, 0.162643
3053.09, 0.162960
3054.89, 0.163530
3056.69, 0.164163
3058.5, 0.164670
3060.3, 0.165240
3062.11, 0.165746
3063.92, 0.166316
3065.73, 0.166886
3067.55, 0.167393
3069.36, 0.167900
3071.18, 0.168406
3073.0, 0.168976
3074.82, 0.169546
3076.65, 0.169990
3078.48, 0.170497
3080.31, 0.171003
3082.14, 0.171573
3083.97, 0.172143
3085.8, 0.172587
3087.64, 0.173093
3089.48, 0.173600
3091.33, 0.174170
3093.17, 0.174613
3095.02, 0.175057
3096.87, 0.175500
3098.72, 0.175880
3100.57, 0.176513
3102.43, 0.177083
3104.28, 0.177590
3106.14, 0.178033
3108.01, 0.178730
3109.87, 0.179427
3111.74, 0.179807
3113.61, 0.180250
3115.48, 0.180820
3117.35, 0.181390
3119.23, 0.181960
3121.1, 0.182530
3122.98, 0.183163
3124.87, 0.183733
3126.75, 0.184303
3128.64, 0.184683
3130.53, 0.185063
3132.42, 0.185633
3134.31, 0.186140
3136.21, 0.186520
3138.11, 0.186900
3140.01, 0.187407
3141.91, 0.187914
3143.82, 0.188420
3145.73, 0.188864
3147.64, 0.189307
3149.55, 0.189814
3151.46, 0.190194
3153.38, 0.190574
3155.3, 0.191207
3157.22, 0.191840
3159.14, 0.192284
3161.07, 0.192854
3163.0, 0.193360
3164.93, 0.193740
3166.86, 0.194247
3168.8, 0.194817
3170.74, 0.195260
3172.68, 0.195767
3174.62, 0.196210
3176.56, 0.196654
3178.51, 0.196970
3180.46, 0.197350
3182.42, 0.197920
3184.37, 0.198427
3186.33, 0.198934
3188.29, 0.199314
3190.25, 0.199630
3192.21, 0.200074
3194.18, 0.200580
3196.15, 0.201024
3198.12, 0.201277
3200.09, 0.201657
3202.07, 0.202100
3204.05, 0.202480
3206.03, 0.202860
3208.02, 0.203367
3210.0, 0.203684
3211.99, 0.204064
3213.98, 0.204444
3215.98, 0.204824
3217.97, 0.205267
3219.97, 0.205584
3221.97, 0.205837
3223.98, 0.206344
3225.98, 0.206787
3227.99, 0.206977
3230.0, 0.207294
3232.02, 0.207547
3234.03, 0.207864
3236.05, 0.208181
3238.07, 0.208497
3240.1, 0.208814
3242.12, 0.209257
3244.15, 0.209637
3246.18, 0.209891
3248.22, 0.210271
3250.25, 0.210651
3252.29, 0.210967
3254.33, 0.211094
3256.38, 0.211347
3258.43, 0.211791
3260.47, 0.212234
3262.53, 0.212614
3264.58, 0.212804
3266.64, 0.212994
3268.7, 0.213184
3270.76, 0.213437
3272.82, 0.213754
3274.89, 0.214007
3276.96, 0.214387
3279.04, 0.214704
3281.11, 0.214957
3283.19, 0.215147
3285.27, 0.215464
3287.35, 0.215591
3289.44, 0.215781
3291.53, 0.216097
3293.62, 0.216351
3295.71, 0.216477
3297.81, 0.216667
3299.91, 0.216984
3302.01, 0.217364
3304.11, 0.217617
3306.22, 0.217807
3308.33, 0.217871
3310.44, 0.218187
3312.56, 0.218441
3314.68, 0.218504
3316.8, 0.218567
3318.92, 0.218694
3321.05, 0.218884
3323.18, 0.218947
3325.31, 0.218947
3327.44, 0.219074
3329.58, 0.219074
3331.72, 0.219011
3333.86, 0.218821
3336.01, 0.218631
3338.16, 0.218377
3340.31, 0.217871
3342.46, 0.217111
3344.61, 0.216351
3346.77, 0.215717
3348.94, 0.215527
3351.1, 0.215527
3353.27, 0.215907
3355.44, 0.216477
3357.61, 0.216984
3359.79, 0.217491
3361.97, 0.217934
3364.15, 0.218314
3366.33, 0.218821
3368.52, 0.219264
3370.71, 0.219454
3372.9, 0.219644
3375.1, 0.220024
3377.3, 0.220404
3379.5, 0.220721
3381.71, 0.220974
3383.91, 0.221101
3386.12, 0.221291
3388.34, 0.221607
3390.55, 0.221924
3392.77, 0.222177
3394.99, 0.222367
3397.22, 0.222684
3399.45, 0.222874
3401.68, 0.223127
3403.91, 0.223318
3406.15, 0.223571
3408.39, 0.223761
3410.63, 0.224014
3412.87, 0.224204
3415.12, 0.224648
3417.37, 0.224838
3419.63, 0.225091
3421.88, 0.225408
3424.14, 0.225851
3426.41, 0.226294
3428.67, 0.226738
3430.94, 0.227371
3433.21, 0.228068
3435.49, 0.228511
3437.77, 0.228954
3440.05, 0.229461
3442.33, 0.230094
3444.62, 0.230538
3446.91, 0.230981
3449.2, 0.231361
3451.5, 0.231804
3453.8, 0.232058
3456.1, 0.232121
3458.41, 0.232374
3460.72, 0.232564
3463.03, 0.232438
3465.34, 0.232058
3467.66, 0.231488
3469.98, 0.230728
3472.31, 0.229904
3474.63, 0.229588
3476.96, 0.229588
3479.3, 0.229968
3481.64, 0.230538
3483.97, 0.231171
3486.32, 0.231804
3488.66, 0.232374
3491.01, 0.232881
3493.36, 0.233578
3495.72, 0.234148
3498.08, 0.234781
3500.44, 0.235351
3502.81, 0.236048
3505.18, 0.236681
3507.55, 0.237314
3509.92, 0.238074
3512.3, 0.238961
3514.68, 0.239848
3517.06, 0.240734
3519.45, 0.241811
3521.84, 0.243078
3524.24, 0.244218
3526.64, 0.245231
3529.04, 0.246245
3531.44, 0.247195
3533.85, 0.247955
3536.26, 0.248778
3538.67, 0.249411
3541.09, 0.250045
3543.51, 0.250615
3545.93, 0.251185
3548.36, 0.251755
3550.79, 0.252198
3553.22, 0.252451
3555.66, 0.252768
3558.1, 0.253085
3560.54, 0.253465
3562.99, 0.253781
3565.44, 0.254035
3567.9, 0.254225
3570.35, 0.254478
3572.81, 0.254731
3575.28, 0.255175
3577.75, 0.255555
3580.22, 0.255998
3582.69, 0.256378
3585.17, 0.256885
3587.65, 0.257265
3590.14, 0.257645
3592.62, 0.257898
3595.11, 0.258278
3597.61, 0.258595
3600.11, 0.258912
3602.61, 0.259291
3605.11, 0.259672
3607.62, 0.260052
3610.14, 0.260558
3612.65, 0.260812
3615.17, 0.261192
3617.69, 0.261508
3620.22, 0.261952
3622.75, 0.262332
3625.28, 0.262838
3627.82, 0.263155
3630.36, 0.263472
3632.9, 0.263788
3635.45, 0.264168
3638.0, 0.264548
3640.56, 0.264865
3643.12, 0.265245
3645.68, 0.265688
3648.24, 0.266005
3650.81, 0.266258
3653.39, 0.266448
3655.96, 0.266765
3658.54, 0.267145
3661.13, 0.267462
3663.71, 0.267842
3666.3, 0.268222
3668.9, 0.268475
3671.5, 0.268728
3674.1, 0.268918
3676.7, 0.269362
3679.31, 0.269615
3681.93, 0.269868
3684.54, 0.270185
3687.17, 0.270565
3689.79, 0.270882
3692.42, 0.271135
3695.05, 0.271325
3697.69, 0.271578
3700.32, 0.271958
3702.97, 0.272402
3705.61, 0.272592
3708.27, 0.272782
3710.92, 0.273098
3713.58, 0.273478
3716.24, 0.273732
3718.91, 0.273922
3721.58, 0.274175
3724.25, 0.274555
3726.93, 0.274682
3729.61, 0.274872
3732.29, 0.275125
3734.98, 0.275378
3737.67, 0.275568
3740.37, 0.275695
3743.07, 0.275885
3745.78, 0.276139
3748.49, 0.276329
3751.2, 0.276455
3753.91, 0.276518
3756.63, 0.276645
3759.36, 0.276835
3762.09, 0.276962
3764.82, 0.276899
3767.55, 0.277025
3770.29, 0.277089
3773.04, 0.277152
3775.78, 0.277152
3778.54, 0.277152
3781.29, 0.277025
3784.05, 0.276835
3786.82, 0.276645
3789.59, 0.276582
3792.36, 0.276202
3795.13, 0.275695
3797.92, 0.275315
3800.7, 0.274808
3803.49, 0.274048
3806.28, 0.273605
3809.08, 0.273098
3811.88, 0.272718
3814.68, 0.272212
3817.49, 0.271768
3820.31, 0.271198
3823.12, 0.270692
3825.94, 0.270185
3828.77, 0.269678
3831.6, 0.269108
3834.43, 0.268475
3837.27, 0.267968
3840.11, 0.267462
3842.96, 0.267145
3845.81, 0.266892
3848.67, 0.266638
3851.53, 0.266385
3854.39, 0.266132
3857.26, 0.265878
3860.13, 0.265625
3863.01, 0.265372
3865.89, 0.265118
3868.77, 0.264928
3871.66, 0.264802
3874.55, 0.264738
3877.45, 0.264612
3880.35, 0.264548
3883.26, 0.264422
3886.17, 0.264612
3889.09, 0.264865
3892.01, 0.265182
3894.93, 0.265625
3897.86, 0.266195
3900.79, 0.266575
3903.73, 0.266955
3906.67, 0.267272
3909.62, 0.267652
3912.57, 0.267905
3915.52, 0.267968
3918.48, 0.267968
3921.45, 0.268032
3924.42, 0.267715
3927.39, 0.267462
3930.37, 0.267398
3933.35, 0.267652
3936.34, 0.267588
3939.33, 0.266828
3942.32, 0.265498
3945.32, 0.263788
3948.33, 0.262015
3951.34, 0.260178
3954.35, 0.258341
3957.37, 0.256821
3960.39, 0.255301
3963.42, 0.254161
3966.45, 0.253148
3969.49, 0.252261
3972.53, 0.251755
3975.58, 0.251501
3978.63, 0.251121
3981.68, 0.251058
3984.75, 0.251565
3987.81, 0.252705
3990.88, 0.254288
3993.95, 0.256188
3997.03, 0.258278
4000.12, 0.260558
4003.21, 0.262965
4006.3, 0.265372
4009.4, 0.267905
4012.5, 0.270248
4015.61, 0.271895
4018.72, 0.273098
4021.84, 0.273922
4024.96, 0.274682
4028.09, 0.275125
4031.22, 0.275378
4034.36, 0.275822
4037.5, 0.276265
4040.65, 0.276582
4043.8, 0.276899
4046.96, 0.277342
4050.12, 0.277849
4053.29, 0.278482
4056.46, 0.279369
4059.64, 0.280382
4062.82, 0.281712
4066.0, 0.283042
4069.19, 0.284372
4072.39, 0.285449
4075.59, 0.286399
4078.8, 0.287222
4082.01, 0.287919
4085.23, 0.288552
4088.45, 0.289249
4091.68, 0.289755
4094.91, 0.290009
4098.15, 0.290389
4101.39, 0.290895
4104.63, 0.291149
4107.89, 0.291275
4111.14, 0.291529
4114.41, 0.291972
4117.67, 0.292225
4120.95, 0.292479
4124.23, 0.292605
4127.51, 0.292859
4130.8, 0.293112
4134.09, 0.293175
4137.39, 0.293239
4140.7, 0.293429
4144.01, 0.293619
4147.32, 0.293809
4150.64, 0.293935
4153.97, 0.294062
4157.3, 0.294252
4160.64, 0.294442
4163.98, 0.294442
4167.33, 0.294632
4170.68, 0.294759
4174.04, 0.294886
4177.4, 0.294886
4180.77, 0.295012
4184.14, 0.295012
4187.52, 0.295202
4190.91, 0.295265
4194.3, 0.295392
4197.69, 0.295582
4201.1, 0.295709
4204.5, 0.295836
4207.92, 0.295962
4211.34, 0.296279
4214.76, 0.296659
4218.19, 0.296849
4221.62, 0.296912
4225.06, 0.297166
4228.51, 0.297419
4231.96, 0.297546
4235.42, 0.297609
4238.88, 0.297419
4242.35, 0.297229
4245.83, 0.296912
4249.31, 0.296406
4252.79, 0.295962
4256.28, 0.295772
4259.78, 0.295836
4263.29, 0.296026
4266.79, 0.296279
4270.31, 0.296532
4273.83, 0.296469
4277.35, 0.296406
4280.89, 0.296342
4284.42, 0.296279
4287.97, 0.296026
4291.52, 0.295899
4295.07, 0.295646
4298.63, 0.295456
4302.2, 0.295265
4305.78, 0.295139
4309.35, 0.294949
4312.94, 0.294886
4316.53, 0.294695
4320.13, 0.294569
4323.73, 0.294505
4327.34, 0.294252
4330.96, 0.294062
4334.58, 0.293999
4338.21, 0.293872
4341.84, 0.293745
4345.48, 0.293682
4349.12, 0.293555
4352.77, 0.293492
4356.43, 0.293492
4360.1, 0.293239
4363.76, 0.293175
4367.44, 0.293112
4371.12, 0.292985
4374.81, 0.292922
4378.51, 0.292859
4382.21, 0.292669
4385.92, 0.292605
4389.63, 0.292542
4393.35, 0.292352
4397.08, 0.292225
4400.81, 0.292225
4404.55, 0.292099
4408.29, 0.291972
4412.04, 0.291845
4415.8, 0.291782
4419.57, 0.291592
4423.34, 0.291529
4427.12, 0.291402
4430.9, 0.291149
4434.69, 0.290959
4438.49, 0.290959
4442.29, 0.290769
4446.1, 0.290515
4449.92, 0.290262
4453.74, 0.290072
4457.57, 0.289882
4461.41, 0.289692
4465.25, 0.289439
4469.1, 0.289249
4472.95, 0.289122
4476.82, 0.289059
4480.69, 0.288869
4484.56, 0.288615
4488.44, 0.288362
4492.33, 0.288172
4496.23, 0.287919
4500.13, 0.287602
4504.04, 0.287412
4507.96, 0.287349
4511.88, 0.287159
4515.81, 0.287032
4519.75, 0.286779
4523.69, 0.286462
4527.65, 0.286209
4531.6, 0.286082
4535.57, 0.285829
4539.54, 0.285575
4543.52, 0.285259
4547.5, 0.284942
4551.5, 0.284562
4555.5, 0.284309
4559.5, 0.283992
4563.52, 0.283675
4567.54, 0.283169
4571.56, 0.282725
4575.6, 0.282409
4579.64, 0.282155
4583.69, 0.281775
4587.75, 0.281395
4591.81, 0.280889
4595.88, 0.280509
4599.96, 0.280065
4604.04, 0.279749
4608.14, 0.279432
4612.24, 0.279115
4616.34, 0.278799
4620.46, 0.278482
4624.58, 0.278102
4628.71, 0.277849
4632.84, 0.277405
4636.99, 0.276962
4641.14, 0.276392
4645.3, 0.275885
4649.47, 0.275442
4653.64, 0.275062
4657.82, 0.274618
4662.01, 0.274238
4666.21, 0.273922
4670.41, 0.273668
4674.62, 0.273288
4678.84, 0.273035
4683.07, 0.272718
4687.3, 0.272528
4691.54, 0.272402
4695.79, 0.272528
4700.05, 0.272528
4704.31, 0.272592
4708.59, 0.272718
4712.87, 0.272782
4717.15, 0.272782
4721.45, 0.272782
4725.76, 0.272718
4730.07, 0.272655
4734.39, 0.272402
4738.72, 0.272148
4743.05, 0.271832
4747.39, 0.271642
4751.75, 0.271388
4756.1, 0.271072
4760.47, 0.270628
4764.85, 0.270375
4769.23, 0.269995
4773.62, 0.269742
4778.02, 0.269362
4782.43, 0.268918
4786.85, 0.268538
4791.27, 0.268285
4795.7, 0.267905
4800.14, 0.267462
4804.59, 0.267082
4809.05, 0.266702
4813.51, 0.266322
4817.99, 0.265878
4822.47, 0.265308
4826.96, 0.265055
4831.46, 0.264738
4835.96, 0.264548
4840.48, 0.264358
4845.0, 0.264042
4849.54, 0.263598
4854.08, 0.263092
4858.63, 0.262522
4863.18, 0.261952
4867.75, 0.261255
4872.33, 0.260558
4876.91, 0.259672
4881.5, 0.258722
4886.1, 0.257645
4890.71, 0.256568
4895.33, 0.255428
4899.96, 0.254351
4904.59, 0.253021
4909.24, 0.251565
4913.89, 0.250045
4918.55, 0.248398
4923.22, 0.246561
4927.9, 0.244535
4932.59, 0.242001
4937.29, 0.239151
4942.0, 0.235731
4946.71, 0.231551
4951.44, 0.226231
4956.17, 0.219391
4960.91, 0.211031
4965.67, 0.201404
4970.43, 0.191144
4975.2, 0.181010
4979.98, 0.171447
4984.76, 0.163023
4989.56, 0.155613
4994.37, 0.149089
4999.18, 0.143263
5004.01, 0.138323
5008.84, 0.134586
5013.69, 0.132496
5018.54, 0.132052
5023.4, 0.133002
5028.28, 0.134649
5033.16, 0.136676
5038.05, 0.138829
5042.95, 0.141046
5047.86, 0.143136
5052.78, 0.145226
5057.71, 0.147189
5062.65, 0.149153
5067.6, 0.150863
5072.56, 0.152510
5077.53, 0.154093
5082.5, 0.155486
5087.49, 0.156563
5092.49, 0.157513
5097.5, 0.158336
5102.51, 0.159160
5107.54, 0.160046
5112.58, 0.160933
5117.62, 0.161566
5122.68, 0.161946
5127.75, 0.162263
5132.82, 0.162516
5137.91, 0.162453
5143.01, 0.162326
5148.12, 0.162073
5153.23, 0.161630
5158.36, 0.160933
5163.5, 0.160046
5168.65, 0.158906
5173.81, 0.157513
5178.98, 0.155803
5184.15, 0.153840
5189.34, 0.151623
5194.54, 0.149153
5199.75, 0.146366
5204.98, 0.143263
5210.21, 0.140413
5215.45, 0.138006
5220.7, 0.136359
5225.96, 0.135726
5231.23, 0.135726
5236.52, 0.135726
5241.81, 0.135029
5247.12, 0.133826
5252.44, 0.132052
5257.76, 0.129646
5263.1, 0.126859
5268.45, 0.123882
5273.81, 0.120906
5279.18, 0.118309
5284.56, 0.116219
5289.95, 0.115079
5295.36, 0.114699
5300.77, 0.115015
5306.2, 0.115965
5311.63, 0.117422
5317.08, 0.118942
5322.54, 0.120209
5328.01, 0.120969
5333.49, 0.121349
5338.98, 0.121159
5344.49, 0.120842
5350.0, 0.120336
5355.53, 0.119322
5361.07, 0.117992
5366.62, 0.116346
5372.18, 0.114445
5377.75, 0.112419
5383.34, 0.110709
5388.93, 0.109315
5394.54, 0.108365
5400.16, 0.107669
5405.79, 0.106972
5411.44, 0.106149
5417.09, 0.105135
5422.76, 0.103805
5428.43, 0.102159
5434.12, 0.100892
5439.83, 0.100069
5445.54, 0.0994990
5451.26, 0.0989290
5457.0, 0.0981680
5462.75, 0.0972820
5468.52, 0.0958880
5474.29, 0.0943050
5480.08, 0.0925950
5485.88, 0.0904420
5491.69, 0.0882250
5497.51, 0.0860080
5503.35, 0.0839820
5509.2, 0.0823350
5515.06, 0.0810680
5520.93, 0.0801810
5526.82, 0.0794850
5532.71, 0.0789150
5538.63, 0.0785350
5544.55, 0.0782180
5550.49, 0.0778380
5556.44, 0.0772050
5562.4, 0.0766980
5568.37, 0.0761910
5574.36, 0.0754310
5580.36, 0.0745450
5586.37, 0.0734680
5592.4, 0.0722650
5598.44, 0.0709350
5604.49, 0.0698580
5610.56, 0.0692250
5616.63, 0.0687180
5622.73, 0.0677050
5628.83, 0.0661850
5634.95, 0.0641580
5641.08, 0.0614980
5647.23, 0.0580140
5653.39, 0.0547210
5659.56, 0.0517440
5665.74, 0.0497810
5671.94, 0.0490840
5678.15, 0.0490840
5684.38, 0.0495280
5690.62, 0.0504780
5696.87, 0.0513640
5703.14, 0.0523140
5709.42, 0.0531380
5715.72, 0.0542140
5722.03, 0.0556080
5728.35, 0.0573180
5734.69, 0.0593440
5741.03, 0.0616880
5747.4, 0.0641580
5753.78, 0.0661210
5760.17, 0.0679580
5766.58, 0.0695410
5773.0, 0.0703010
5779.44, 0.0708710
5785.88, 0.0714410
5792.35, 0.0723910
5798.83, 0.0738480
5805.32, 0.0759380
5811.83, 0.0787880
5818.35, 0.0823350
5824.89, 0.0852480
5831.45, 0.0867050
5838.01, 0.0871480
5844.59, 0.0866420
5851.19, 0.0857550
5857.8, 0.0848680
5864.43, 0.0842350
5871.07, 0.0839180
5877.73, 0.0844880
5884.4, 0.0842350
5891.09, 0.0837280
5897.79, 0.0827780
5904.5, 0.0810050
5911.23, 0.0797380
5917.98, 0.0787250
5924.75, 0.0779650
5931.53, 0.0782810
5938.32, 0.0791680
5945.13, 0.0803080
5951.96, 0.0827150
5958.8, 0.0858820
5965.65, 0.0894280
5972.53, 0.0918350
5979.42, 0.0925950
5986.32, 0.0917720
5993.24, 0.0889220
6000.18, 0.0849320
6007.13, 0.0808780
6014.1, 0.0766350
6021.08, 0.0725810
6028.09, 0.0691610
6035.1, 0.0663750
6042.14, 0.0649180
6049.19, 0.0644110
6056.25, 0.0643480
6063.34, 0.0663750
6070.44, 0.0706810
6077.55, 0.0763810
6084.69, 0.0828420
6091.84, 0.0903780
6099.0, 0.0982320
6106.19, 0.105959
6113.39, 0.113305
6120.61, 0.119132
6127.84, 0.124009
6135.09, 0.128696
6142.36, 0.132686
6149.65, 0.136043
6156.95, 0.139083
6164.27, 0.141363
6171.61, 0.143136
6178.97, 0.145543
6186.34, 0.147443
6193.73, 0.148203
6201.14, 0.149216
6208.57, 0.150229
6216.01, 0.151053
6223.47, 0.151686
6230.95, 0.152193
6238.45, 0.152636
6245.97, 0.152826
6253.5, 0.152953
6261.06, 0.153206
6268.63, 0.153333
6276.21, 0.153333
6283.82, 0.153080
6291.45, 0.152700
6299.1, 0.152446
6306.76, 0.152256
6314.44, 0.152003
6322.14, 0.151560
6329.86, 0.150926
6337.6, 0.150926
6345.35, 0.150356
6353.13, 0.148329
6360.92, 0.147063
6368.74, 0.145859
6376.57, 0.143896
6384.43, 0.141869
6392.3, 0.140033
6400.19, 0.138703
6408.1, 0.138323
6416.03, 0.136613
6423.98, 0.133953
6431.95, 0.132369
6439.94, 0.130659
6447.95, 0.129139
6455.98, 0.127492
6464.03, 0.125782
6472.1, 0.124199
6480.19, 0.122616
6488.31, 0.121222
6496.44, 0.119069
6504.59, 0.116409
6512.76, 0.114825
6520.95, 0.113622
6529.16, 0.111975
6537.4, 0.110645
6545.65, 0.109569
6553.92, 0.108302
6562.22, 0.107035
6570.54, 0.106085
6578.88, 0.104312
6587.23, 0.102602
6595.61, 0.100955
6604.02, 0.0991820
6612.44, 0.0975980
6620.89, 0.0962050
6629.35, 0.0953820
6637.84, 0.0942420
6646.35, 0.0923420
6654.88, 0.0906950
6663.44, 0.0896180
6672.01, 0.0886050
6680.61, 0.0876550
6689.23, 0.0863250
6697.88, 0.0853120
6706.54, 0.0846780
6715.23, 0.0839180
6723.94, 0.0832220
6732.67, 0.0826520
6741.42, 0.0823350
6750.2, 0.0822720
6759.0, 0.0822080
6767.82, 0.0822080
6776.67, 0.0822080
6785.54, 0.0823350
6794.44, 0.0820180
6803.35, 0.0813850
6812.29, 0.0808780
6821.26, 0.0803710
6830.24, 0.0796110
6839.25, 0.0787250
6848.29, 0.0782180
6857.35, 0.0777750
6866.43, 0.0768250
6875.54, 0.0755580
6884.67, 0.0746710
6893.82, 0.0739750
6903.0, 0.0735310
6912.2, 0.0734050
6921.43, 0.0736580
6930.69, 0.0739750
6939.96, 0.0744810
6949.27, 0.0752410
6958.59, 0.0758110
6967.95, 0.0758110
6977.33, 0.0756850
6986.73, 0.0757480
6996.16, 0.0755580
7005.61, 0.0749250
7015.09, 0.0742280
7024.6, 0.0734680
7034.13, 0.0728350
7043.69, 0.0725180
7053.27, 0.0719480
7062.88, 0.0714410
7072.52, 0.0711250
7082.18, 0.0709350
7091.87, 0.0705550
7101.58, 0.0701110
7111.32, 0.0696050
7121.09, 0.0687810
7130.88, 0.0682110
7140.71, 0.0681480
7150.56, 0.0682750
7160.43, 0.0683380
7170.33, 0.0683380
7180.27, 0.0680850
7190.23, 0.0677680
7200.21, 0.0676410
7210.23, 0.0674510
7220.27, 0.0668810
7230.34, 0.0661850
7240.44, 0.0652980
7250.56, 0.0643480
7260.72, 0.0633980
7270.9, 0.0627010
7281.12, 0.0623210
7291.36, 0.0622580
7301.63, 0.0625750
7311.93, 0.0630810
7322.25, 0.0637150
7332.61, 0.0642850
7343.0, 0.0647280
7353.41, 0.0647280
7363.86, 0.0642850
7374.33, 0.0636510
7384.83, 0.0629550
7395.37, 0.0621940
7405.93, 0.0613080
7416.53, 0.0604840
7427.15, 0.0598510
7437.81, 0.0592180
7448.5, 0.0589010
7459.22, 0.0586480
7469.96, 0.0583940
7480.74, 0.0582040
7491.55, 0.0580140
7502.39, 0.0576340
7513.27, 0.0573180
7524.17, 0.0570010
7535.11, 0.0566210
7546.08, 0.0559240
7557.08, 0.0551010
7568.11, 0.0544040
7579.17, 0.0536440
7590.27, 0.0528210
7601.4, 0.0521240
7612.56, 0.0514910
7623.76, 0.0509210
7634.98, 0.0504140
7646.24, 0.0499710
7657.54, 0.0495280
7668.87, 0.0491480
7680.23, 0.0486410
7691.62, 0.0481340
7703.05, 0.0477540
7714.51, 0.0475010
7726.01, 0.0471840
7737.54, 0.0468680
7749.11, 0.0464240
7760.71, 0.0463610
7772.35, 0.0467410
7784.02, 0.0471210
7795.72, 0.0473740
7807.46, 0.0477540
7819.23, 0.0481980
7831.04, 0.0486410
7842.89, 0.0488940
7854.77, 0.0489580
7866.69, 0.0488310
7878.65, 0.0483880
7890.64, 0.0477540
7902.67, 0.0472480
7914.74, 0.0470580
7926.84, 0.0470580
7938.98, 0.0467410
7951.16, 0.0462980
7963.37, 0.0460440
7975.62, 0.0457280
7987.91, 0.0451580
8000.24, 0.0443970
8012.6, 0.0433210
8025.01, 0.0423070
8037.45, 0.0418640
8049.93, 0.0418010
8062.45, 0.0417370
8075.01, 0.0416110
8087.61, 0.0414210
8100.24, 0.0412940
8112.91, 0.0412940
8125.63, 0.0414210
8138.39, 0.0413570
8151.18, 0.0410410
8164.02, 0.0405970
8176.9, 0.0401540
8189.81, 0.0396470
8202.77, 0.0388240
8215.77, 0.0377470
8228.82, 0.0367340
8241.9, 0.0355940
8255.02, 0.0343910
8268.19, 0.0332510
8281.39, 0.0322370
8294.65, 0.0312870
8307.94, 0.0305910
8321.28, 0.0298310
8334.66, 0.0289440
8348.08, 0.0281210
8361.54, 0.0274240
8375.05, 0.0267910
8388.6, 0.0260300
8402.2, 0.0252700
8415.84, 0.0245740
8429.52, 0.0239400
8443.25, 0.0233070
8457.02, 0.0228000
8470.84, 0.0223570
8484.7, 0.0219770
8498.61, 0.0215970
8512.57, 0.0212170
8526.57, 0.0209000
8540.62, 0.0203940
8554.71, 0.0198240
8568.85, 0.0192540
8583.04, 0.0188740
8597.27, 0.0184940
8611.55, 0.0180500
8625.88, 0.0176070
8640.26, 0.0173540
8654.68, 0.0171640
8669.16, 0.0171000
8683.68, 0.0170370
8698.25, 0.0167200
8712.87, 0.0164670
8727.53, 0.0163400
8742.25, 0.0162770
8757.02, 0.0161500
8771.83, 0.0160870
8786.7, 0.0158970
8801.62, 0.0156440
8816.59, 0.0154540
8831.61, 0.0152640
8846.68, 0.0150100
8861.8, 0.0148840
8876.97, 0.0147570
8892.2, 0.0144400
8907.48, 0.0143140
8922.81, 0.0143140
8938.2, 0.0144400
8953.63, 0.0141870
8969.13, 0.0138700
8984.67, 0.0136800
9000.27, 0.0136170
9015.92, 0.0135540
9031.63, 0.0132370
9047.39, 0.0130470
9063.21, 0.0129840
9079.08, 0.0127940
9095.01, 0.0129200
9111.0, 0.0133640
9127.04, 0.0136800
9143.13, 0.0140600
9159.28, 0.0144400
9175.49, 0.0147570
9191.76, 0.0151370
9208.09, 0.0157700
9224.47, 0.0166570
9240.92, 0.0176070
9257.42, 0.0186200
9273.98, 0.0200140
9290.6, 0.0217870
9307.28, 0.0236240
9324.02, 0.0255240
9340.82, 0.0278670
9357.68, 0.0309710
9374.6, 0.0347710
9391.58, 0.0392040
9408.62, 0.0440810
9425.73, 0.0492740
9442.9, 0.0552910
9460.13, 0.0620680
9477.42, 0.0695410
9494.78, 0.0778380
9512.2, 0.0870220
9529.69, 0.0965850
9547.24, 0.106275
9564.86, 0.114699
9582.54, 0.120336
9600.28, 0.123376
9618.1, 0.124769
9635.97, 0.124896
9653.92, 0.124262
9671.93, 0.122932
9690.01, 0.120842
9708.16, 0.118182
9726.37, 0.115205
9744.65, 0.112102
9763.0, 0.109189
9781.43, 0.106339
9799.92, 0.103679
9818.48, 0.101209
9837.1, 0.0990550
9855.8, 0.0970920
9874.58, 0.0955080
9893.42, 0.0940520
9912.34, 0.0927220
9931.33, 0.0916450
9950.39, 0.0908850
9969.52, 0.0902520
9988.74, 0.0900620
10008.0, 0.0902520
10027.4, 0.0908220
10046.8, 0.0916450
10066.3, 0.0930380
10085.9, 0.0949380
10105.6, 0.0973450
10125.3, 0.100195
10145.1, 0.103552
10165.0, 0.107479
10185.0, 0.111912
10205.0, 0.116536
10225.2, 0.121602
10245.4, 0.127619
10265.7, 0.135663
10286.0, 0.146176
10306.5, 0.157956
10327.0, 0.168026
10347.6, 0.172397
10368.3, 0.168850
10389.1, 0.157766
10409.9, 0.143009
10430.9, 0.131166
10451.9, 0.125276
10473.0, 0.123502
10494.2, 0.126289
10515.5, 0.140159
10536.9, 0.162326
10558.4, 0.181770
10579.9, 0.194184
10601.5, 0.200644
10623.3, 0.203620
10645.1, 0.204760
10667.0, 0.204824
10689.0, 0.204127
10711.1, 0.202734
10733.2, 0.201087
10755.5, 0.199504
10777.9, 0.197794
10800.3, 0.196210
10822.9, 0.194754
10845.5, 0.193234
10868.2, 0.191650
10891.1, 0.190447
10914.0, 0.189497
10937.0, 0.188230
10960.2, 0.186773
10983.4, 0.185380
11006.7, 0.183860
11030.1, 0.181833
11053.6, 0.179617
11077.3, 0.177527
11101.0, 0.175500
11124.8, 0.173473
11148.7, 0.172017
11172.7, 0.170497
11196.9, 0.168850
11221.1, 0.167330
11245.4, 0.166316
11269.9, 0.165303
11294.4, 0.164226
11319.1, 0.162960
11343.9, 0.161250
11368.8, 0.159223
11393.7, 0.156753
11418.8, 0.153080
11444.0, 0.147253
11469.4, 0.138133
11494.8, 0.126542
11520.3, 0.115585
11546.0, 0.107225
11571.8, 0.101082
11597.7, 0.0957620
11623.7, 0.0912650
11649.8, 0.0872750
11676.0, 0.0839820
11702.4, 0.0812580
11728.9, 0.0787880
11755.5, 0.0763810
11782.2, 0.0741010
11809.0, 0.0718210
11836.0, 0.0697310
11863.0, 0.0672610
11890.3, 0.0643480
11917.6, 0.0610540
11945.0, 0.0575710
11972.6, 0.0550380
12000.4, 0.0566210
12028.2, 0.0638410
12056.2, 0.0703650
12084.3, 0.0716950
12112.5, 0.0698580
12140.9, 0.0677050
12169.4, 0.0659950
12198.0, 0.0646010
12226.8, 0.0634610
12255.7, 0.0622580
12284.7, 0.0611810
12313.9, 0.0602310
12343.2, 0.0589640
12372.7, 0.0578240
12402.3, 0.0570010
12432.0, 0.0560510
12461.9, 0.0552280
12491.9, 0.0546580
12522.1, 0.0540880
12552.4, 0.0531380
12582.9, 0.0523780
12613.5, 0.0518080
12644.3, 0.0511740
12675.2, 0.0505410
12706.3, 0.0500980
12737.5, 0.0496540
12768.9, 0.0488940
12800.4, 0.0480710
12832.1, 0.0476910
12863.9, 0.0474380
12895.9, 0.0470580
12928.1, 0.0466780
12960.4, 0.0462980
12992.9, 0.0459810
13025.5, 0.0456010
13058.3, 0.0452210
13091.3, 0.0449040
13124.4, 0.0445240
13157.8, 0.0442070
13191.2, 0.0437640
13224.9, 0.0430670
13258.7, 0.0428140
13292.7, 0.0424340
13326.9, 0.0417370
13361.2, 0.0412940
13395.7, 0.0409140
13430.4, 0.0403440
13465.3, 0.0399010
13500.4, 0.0396470
13535.7, 0.0394570
13571.1, 0.0392040
13606.7, 0.0390140
13642.5, 0.0388240
13678.5, 0.0384440
13714.7, 0.0383170
13751.1, 0.0381910
13787.6, 0.0380010
13824.4, 0.0378740
13861.4, 0.0375570
13898.5, 0.0367970
13935.9, 0.0362270
13973.5, 0.0357210
14011.2, 0.0354670
14049.2, 0.0353410
14087.4, 0.0352770
14125.8, 0.0350240
14164.3, 0.0348340
14203.2, 0.0349610
14242.2, 0.0349610
14281.4, 0.0348340
14320.9, 0.0345810
14360.5, 0.0340110
14400.4, 0.0337570
14440.5, 0.0335040
14480.9, 0.0330610
14521.4, 0.0328710
14562.2, 0.0325540
14603.3, 0.0320470
14644.5, 0.0316670
14686.0, 0.0311610
14727.7, 0.0305270
14769.7, 0.0298310
14811.9, 0.0293240
14854.3, 0.0289440
14897.0, 0.0287540
14939.9, 0.0285010
14983.1, 0.0278670
15026.5, 0.0271070
15070.2, 0.0266640
15114.2, 0.0262200
15158.3, 0.0259670
15202.8, 0.0253340
15247.5, 0.0247000
15292.5, 0.0243200
15337.7, 0.0237500
15383.2, 0.0233070
15429.0, 0.0230540
15475.1, 0.0228000
15521.4, 0.0228000
15568.0, 0.0231800
15614.9, 0.0241300
15662.1, 0.0250170
15709.6, 0.0262840
15757.3, 0.0282470
15805.4, 0.0312240
15853.7, 0.0349610
15902.3, 0.0395210
15951.2, 0.0443970
16000.5, 0.0494010
16050.0, 0.0537710
16099.8, 0.0574440
16150.0, 0.0604840
16200.5, 0.0629550
16251.3, 0.0646010
16302.4, 0.0659310
16353.8, 0.0666910
16405.5, 0.0670710
16457.6, 0.0670710
16510.0, 0.0661210
16562.8, 0.0653610
16615.9, 0.0642850
16669.3, 0.0620040
16723.1, 0.0595340
16777.2, 0.0575710
16831.7, 0.0560510
16886.5, 0.0540240
16941.7, 0.0512380
16997.2, 0.0478810
17053.1, 0.0446510
17109.4, 0.0418010
17166.1, 0.0390770
17223.1, 0.0369870
17280.5, 0.0351510
17338.3, 0.0332510
17396.5, 0.0323010
17455.1, 0.0318570
17514.0, 0.0321110
17573.4, 0.0324910
17633.2, 0.0336310
17693.4, 0.0357210
17754.0, 0.0384440
17815.0, 0.0417370
17876.4, 0.0454110
17938.3, 0.0500340
18000.5, 0.0552910
18063.3, 0.0614980
18126.4, 0.0676410
18190.0, 0.0736580
18254.1, 0.0794850
18318.6, 0.0851220
18383.5, 0.0896820
18449.0, 0.0936720
18514.9, 0.0973450
18581.2, 0.0996890
18648.0, 0.102602
18715.4, 0.105769
18783.2, 0.108302
18851.5, 0.112039
18920.3, 0.116599
18989.6, 0.121222
19059.4, 0.124769
19129.7, 0.126479
19200.6, 0.126732
19272.0, 0.126732
19343.9, 0.127302
19416.3, 0.128252
19489.3, 0.127872
19562.8, 0.127112
19637.0, 0.125656
19711.6, 0.122869
19786.8, 0.120336
19862.6, 0.118436
19939.0, 0.117866
20016.0, 0.118436
20093.6, 0.118816
20171.8, 0.118562
20250.6, 0.116726
20330.0, 0.114445
20410.0, 0.111785
20490.7, 0.108555
20572.0, 0.105009
20654.0, 0.101145
20736.6, 0.0972820
20819.9, 0.0928480
20903.8, 0.0884780
20988.5, 0.0848680
21073.8, 0.0810050
21159.8, 0.0767610
21246.5, 0.0711250
21334.0, 0.0663110
21422.1, 0.0634610
21511.0, 0.0593440
21600.7, 0.0578240
21691.0, 0.0592810
21782.1, 0.0640940
21874.0, 0.0697890
21966.7, 0.0778330
22060.2, 0.0859410
22154.5, 0.0951110
22249.6, 0.106051
22345.5, 0.117988
22442.2, 0.133110
22539.8, 0.143761
22638.2, 0.149649
22737.5, 0.150807
22837.7, 0.152191
22938.7, 0.153220
23040.7, 0.150357
23143.5, 0.146109
23247.3, 0.140350
23352.1, 0.136392
23457.7, 0.132242
23564.4, 0.126386
23672.0, 0.120047
23780.5, 0.114545
23890.1, 0.109687
24000.7, 0.103509
24112.3, 0.0977490
24225.0, 0.0924400
24338.7, 0.0879680
24453.5, 0.0849440
24569.4, 0.0837530
24686.4, 0.0864560
24804.5, 0.0951430
24923.8, 0.107756
25044.2, 0.119983
25165.8, 0.135781
25288.6, 0.150904
25412.5, 0.163967
25537.7, 0.173780
25664.1, 0.183015
25791.8, 0.189096
25920.8, 0.193408
26051.1, 0.196915
26182.6, 0.199070
26315.5, 0.198781
26449.8, 0.198556
26585.4, 0.197687
26722.5, 0.189289
26860.9, 0.176387
27000.8, 0.163356
27142.1, 0.151032
27285.0, 0.139031
27429.4, 0.127608
27575.3, 0.121109
27722.7, 0.115478
27871.8, 0.108046
28022.4, 0.102576
28174.7, 0.100581
28328.7, 0.0969450
28484.4, 0.0903170
28641.7, 0.0828840
28800.9, 0.0785730
28961.8, 0.0764170
29124.5, 0.0726200
29289.0, 0.0685340
29455.4, 0.0648340
29623.8, 0.0625170
29794.0, 0.0619380
29966.3, 0.0647370
30140.5, 0.0719120
30316.7, 0.0861980
30495.1, 0.104860
30675.5, 0.120852
30858.1, 0.132467
31042.8, 0.142281
31229.8, 0.147525
31419.1, 0.151290
31610.7, 0.153574
31804.6, 0.154604
32000.9, 0.158433
32199.7, 0.167024
32400.9, 0.175067
32604.8, 0.177931
32811.1, 0.179958
33020.1, 0.185074
33231.8, 0.185750
33446.2, 0.182371
33663.4, 0.179218
33883.4, 0.178510
34106.3, 0.177191
34332.1, 0.175968
34561.0, 0.173587
34792.9, 0.170209
35028.0, 0.164868
35266.3, 0.160074
35507.8, 0.154829
35752.7, 0.146013
36001.0, 0.138226
36252.8, 0.131566
36508.1, 0.125388
36767.0, 0.120433
37029.7, 0.117666
37296.1, 0.114931
37566.3, 0.112164
37840.5, 0.107756
38118.8, 0.103895
38401.2, 0.100710
38687.8, 0.0967520
38978.6, 0.0904130
39273.9, 0.0850720
39573.7, 0.0818870
39878.1, 0.0778010
40187.3, 0.0836890
40501.2, 0.111295
40820.0, 0.139642
41144.0, 0.152287
41473.2, 0.150968
41807.6, 0.142731
42147.5, 0.132049
42493.0, 0.122943
42844.2, 0.117055
43201.2, 0.110137
43564.3, 0.102833
43933.5, 0.100903
44309.0, 0.0979430
44691.0, 0.0944350
45079.6, 0.0947570
45475.0, 0.100098
45877.5, 0.107338
46287.1, 0.113773
46704.2, 0.120948
47128.7, 0.122814
47561.1, 0.121592
48001.5, 0.124970
48450.1, 0.140993
48907.2, 0.157435
49373.0, 0.162583
49847.7, 0.150131
50331.5, 0.141154
50825.0, 0.139385
51328.2, 0.141991
51841.5, 0.142023
52365.1, 0.137293
52899.4, 0.130794
53444.8, 0.130826
54001.5, 0.130697
54570.1, 0.128316
55150.6, 0.127094
55743.6, 0.129764
56349.5, 0.127898
56968.7, 0.118020
57601.7, 0.113644
58248.9, 0.113451
58910.9, 0.120176
59588.1, 0.128831
60281.0, 0.129796
60990.2, 0.125903
61716.3, 0.124745
62459.8, 0.123104
63221.6, 0.120562
64002.1, 0.122750
64802.1, 0.121495
65622.1, 0.126772
66463.4, 0.141830
67326.6, 0.129957
68212.4, 0.119565
69121.9, 0.116604
70056.0, 0.118985
71015.7, 0.124166
72002.0, 0.119758
73016.3, 0.119018
74059.4, 0.126354
75132.7, 0.125678
76237.6, 0.117763
77375.5, 0.112679
78547.9, 0.104185
79756.3, 0.0990040
81002.5, 0.104828
82288.5, 0.119854
83615.7, 0.133110
84986.5, 0.136135
86402.9, 0.134301
87867.4, 0.138291
89382.4, 0.142409
90950.5, 0.147815
92574.6, 0.150453
94257.2, 0.153542
96002.7, 0.149745
97814.1, 0.148780
99695.1, 0.154990
101650.0, 0.157178
103683.0, 0.159012
105799.0, 0.163388
108003.0, 0.166991
110301.0, 0.163999
112699.0, 0.172493
115204.0, 0.179443
117822.0, 0.169340
120562.0, 0.180666
123433.0, 0.196400
126443.0, 0.202256
129604.0, 0.207597
132926.0, 0.213968
136424.0, 0.207854
140111.0, 0.211458
144003.0, 0.216027
148118.0, 0.229476
152474.0, 0.265513
157095.0, 0.269792
162004.0, 0.229895
167231.0, 0.220403
172805.0, 0.238872
178764.0, 0.252675
185148.0, 0.267798
192005.0, 0.282277
199390.0, 0.256214
207366.0, 0.220178
216006.0, 0.269374
