Database of Origin, USGS Spectral Database
Sample Description, See USGS database for additional info
Date Added,2016-08-10 02:55:09.181613

Data ID,USGS_hem06          
Sample ID, hematite_gds69.9373
Mineral Name, hematite
Material Class,Oxide

Wavelength
1562.9, 0.121912
1563.38, 0.121717
1563.85, 0.121570
1564.32, 0.121766
1564.79, 0.122059
1565.26, 0.122059
1565.74, 0.122059
1566.21, 0.122206
1566.68, 0.122010
1567.16, 0.121912
1567.63, 0.122010
1568.1, 0.122059
1568.58, 0.121815
1569.05, 0.121766
1569.53, 0.122059
1570.0, 0.121961
1570.48, 0.122059
1570.96, 0.122255
1571.43, 0.122304
1571.91, 0.122108
1572.39, 0.122255
1572.86, 0.122304
1573.34, 0.122352
1573.82, 0.122499
1574.3, 0.122401
1574.77, 0.122352
1575.25, 0.122255
1575.73, 0.122352
1576.21, 0.122548
1576.69, 0.122450
1577.17, 0.122597
1577.65, 0.122646
1578.13, 0.122646
1578.61, 0.122841
1579.09, 0.123135
1579.57, 0.123086
1580.05, 0.122792
1580.54, 0.122792
1581.02, 0.122841
1581.5, 0.122695
1581.98, 0.122695
1582.47, 0.122890
1582.95, 0.123086
1583.43, 0.123281
1583.92, 0.123281
1584.4, 0.123183
1584.88, 0.123281
1585.37, 0.123232
1585.85, 0.123135
1586.34, 0.123183
1586.82, 0.123428
1587.31, 0.123428
1587.8, 0.123232
1588.28, 0.123330
1588.77, 0.123428
1589.26, 0.123428
1589.74, 0.123379
1590.23, 0.123428
1590.72, 0.123526
1591.21, 0.123526
1591.7, 0.123672
1592.19, 0.123770
1592.67, 0.123623
1593.16, 0.123574
1593.65, 0.123721
1594.14, 0.123868
1594.63, 0.123966
1595.12, 0.123966
1595.61, 0.123966
1596.11, 0.124063
1596.6, 0.124112
1597.09, 0.124063
1597.58, 0.124014
1598.08, 0.123917
1598.57, 0.123917
1599.06, 0.124063
1599.55, 0.124161
1600.05, 0.124210
1600.54, 0.124357
1601.04, 0.124357
1601.53, 0.124357
1602.03, 0.124454
1602.52, 0.124503
1603.02, 0.124503
1603.51, 0.124552
1604.01, 0.124503
1604.5, 0.124503
1605.0, 0.124650
1605.5, 0.124699
1606.0, 0.124992
1606.49, 0.125188
1606.99, 0.125041
1607.49, 0.124992
1607.99, 0.124845
1608.49, 0.124699
1608.99, 0.124992
1609.49, 0.125236
1609.99, 0.125139
1610.49, 0.125090
1610.99, 0.125090
1611.49, 0.125139
1611.99, 0.125334
1612.49, 0.125481
1612.99, 0.125481
1613.49, 0.125530
1614.0, 0.125676
1614.5, 0.125725
1615.0, 0.125676
1615.51, 0.125725
1616.01, 0.125872
1616.51, 0.125823
1617.02, 0.125774
1617.52, 0.125872
1618.03, 0.125774
1618.53, 0.125872
1619.04, 0.125921
1619.54, 0.126019
1620.05, 0.126067
1620.55, 0.126019
1621.06, 0.126165
1621.57, 0.126312
1622.08, 0.126263
1622.58, 0.126312
1623.09, 0.126312
1623.6, 0.126165
1624.11, 0.126067
1624.62, 0.126214
1625.13, 0.126605
1625.64, 0.126801
1626.15, 0.126605
1626.66, 0.126458
1627.17, 0.126507
1627.68, 0.126458
1628.19, 0.126507
1628.7, 0.126605
1629.21, 0.126752
1629.72, 0.126703
1630.24, 0.126801
1630.75, 0.127045
1631.26, 0.126898
1631.78, 0.127045
1632.29, 0.127192
1632.8, 0.127143
1633.32, 0.126996
1633.83, 0.126947
1634.35, 0.126996
1634.86, 0.126898
1635.38, 0.126947
1635.9, 0.127192
1636.41, 0.127289
1636.93, 0.127143
1637.45, 0.126996
1637.96, 0.127143
1638.48, 0.127241
1639.0, 0.127192
1639.52, 0.127241
1640.04, 0.127387
1640.56, 0.127534
1641.08, 0.127632
1641.59, 0.127387
1642.11, 0.127289
1642.63, 0.127338
1643.16, 0.127583
1643.68, 0.127681
1644.2, 0.127681
1644.72, 0.127729
1645.24, 0.127778
1645.76, 0.127632
1646.29, 0.127534
1646.81, 0.127729
1647.33, 0.127778
1647.86, 0.127876
1648.38, 0.127925
1648.9, 0.127974
1649.43, 0.127974
1649.95, 0.127778
1650.48, 0.127827
1651.0, 0.127876
1651.53, 0.127729
1652.06, 0.127729
1652.58, 0.127974
1653.11, 0.128120
1653.64, 0.128218
1654.17, 0.128218
1654.69, 0.128267
1655.22, 0.128120
1655.75, 0.127925
1656.28, 0.128023
1656.81, 0.128072
1657.34, 0.128218
1657.87, 0.128560
1658.4, 0.128658
1658.93, 0.128463
1659.46, 0.128512
1659.99, 0.128658
1660.52, 0.128609
1661.05, 0.128512
1661.59, 0.128512
1662.12, 0.128512
1662.65, 0.128609
1663.19, 0.128707
1663.72, 0.128805
1664.26, 0.128805
1664.79, 0.128854
1665.32, 0.129098
1665.86, 0.129098
1666.39, 0.129000
1666.93, 0.129049
1667.47, 0.129098
1668.0, 0.129343
1668.54, 0.129734
1669.08, 0.129636
1669.61, 0.129391
1670.15, 0.129440
1670.69, 0.129587
1671.23, 0.129489
1671.77, 0.129489
1672.31, 0.129734
1672.85, 0.129538
1673.39, 0.129489
1673.93, 0.129489
1674.47, 0.129391
1675.01, 0.129636
1675.55, 0.129978
1676.09, 0.129978
1676.64, 0.129929
1677.18, 0.129929
1677.72, 0.129929
1678.26, 0.129978
1678.81, 0.129978
1679.35, 0.130027
1679.89, 0.130027
1680.44, 0.130076
1680.98, 0.130174
1681.53, 0.130222
1682.07, 0.130320
1682.62, 0.130369
1683.17, 0.130271
1683.71, 0.130369
1684.26, 0.130516
1684.81, 0.130613
1685.36, 0.130662
1685.9, 0.130662
1686.45, 0.130858
1687.0, 0.130858
1687.55, 0.130565
1688.1, 0.130516
1688.65, 0.130662
1689.2, 0.130907
1689.75, 0.130956
1690.3, 0.130858
1690.85, 0.130809
1691.41, 0.131005
1691.96, 0.130907
1692.51, 0.130809
1693.06, 0.130858
1693.61, 0.131005
1694.17, 0.131102
1694.72, 0.131151
1695.28, 0.131102
1695.83, 0.131347
1696.39, 0.131542
1696.94, 0.131444
1697.5, 0.131444
1698.05, 0.131444
1698.61, 0.131444
1699.17, 0.131444
1699.72, 0.131591
1700.28, 0.131591
1700.84, 0.131591
1701.4, 0.131640
1701.95, 0.131591
1702.51, 0.131591
1703.07, 0.131542
1703.63, 0.131591
1704.19, 0.131738
1704.75, 0.131836
1705.31, 0.131884
1705.88, 0.131884
1706.44, 0.131689
1707.0, 0.131787
1707.56, 0.131738
1708.12, 0.131787
1708.69, 0.132080
1709.25, 0.132080
1709.81, 0.131884
1710.38, 0.131738
1710.94, 0.131933
1711.51, 0.132080
1712.07, 0.132031
1712.64, 0.132031
1713.2, 0.131982
1713.77, 0.132031
1714.34, 0.132080
1714.9, 0.131933
1715.47, 0.132031
1716.04, 0.132275
1716.61, 0.132471
1717.18, 0.132324
1717.74, 0.132227
1718.31, 0.132422
1718.88, 0.132471
1719.45, 0.132471
1720.02, 0.132422
1720.59, 0.132373
1721.17, 0.132275
1721.74, 0.132373
1722.31, 0.132569
1722.88, 0.132471
1723.45, 0.132569
1724.03, 0.132911
1724.6, 0.132911
1725.18, 0.132715
1725.75, 0.132764
1726.33, 0.132715
1726.9, 0.132618
1727.48, 0.132667
1728.05, 0.132862
1728.63, 0.132764
1729.2, 0.132569
1729.78, 0.132520
1730.36, 0.132862
1730.94, 0.133058
1731.51, 0.133009
1732.09, 0.133009
1732.67, 0.133058
1733.25, 0.132960
1733.83, 0.132862
1734.41, 0.133058
1734.99, 0.133155
1735.57, 0.133204
1736.15, 0.133204
1736.73, 0.133400
1737.32, 0.133449
1737.9, 0.133351
1738.48, 0.133351
1739.07, 0.133449
1739.65, 0.133449
1740.23, 0.133351
1740.82, 0.133595
1741.4, 0.133693
1741.99, 0.133693
1742.57, 0.133742
1743.16, 0.133693
1743.74, 0.133693
1744.33, 0.133791
1744.92, 0.133889
1745.51, 0.134084
1746.09, 0.134231
1746.68, 0.134182
1747.27, 0.134133
1747.86, 0.134182
1748.45, 0.134133
1749.04, 0.134133
1749.63, 0.134231
1750.22, 0.134280
1750.81, 0.134231
1751.4, 0.134377
1751.99, 0.134524
1752.59, 0.134524
1753.18, 0.134377
1753.77, 0.134622
1754.37, 0.134866
1754.96, 0.134671
1755.56, 0.134475
1756.15, 0.134377
1756.74, 0.134475
1757.34, 0.134720
1757.94, 0.134720
1758.53, 0.134817
1759.13, 0.134866
1759.73, 0.134720
1760.32, 0.134720
1760.92, 0.134768
1761.52, 0.134915
1762.12, 0.135062
1762.72, 0.135208
1763.32, 0.135257
1763.92, 0.135306
1764.52, 0.135306
1765.12, 0.135160
1765.72, 0.134964
1766.32, 0.134964
1766.92, 0.135208
1767.53, 0.135404
1768.13, 0.135404
1768.73, 0.135404
1769.34, 0.135453
1769.94, 0.135502
1770.55, 0.135648
1771.15, 0.135697
1771.76, 0.135648
1772.36, 0.135697
1772.97, 0.135551
1773.57, 0.135599
1774.18, 0.135746
1774.79, 0.135697
1775.4, 0.135697
1776.0, 0.135697
1776.61, 0.135697
1777.22, 0.135746
1777.83, 0.135697
1778.44, 0.135551
1779.05, 0.135599
1779.66, 0.135795
1780.27, 0.135746
1780.88, 0.135795
1781.5, 0.135942
1782.11, 0.135991
1782.72, 0.135893
1783.33, 0.135893
1783.95, 0.135844
1784.56, 0.135697
1785.18, 0.135795
1785.79, 0.136039
1786.41, 0.136039
1787.02, 0.135991
1787.64, 0.135942
1788.26, 0.135893
1788.87, 0.135844
1789.49, 0.135942
1790.11, 0.136186
1790.73, 0.136235
1791.35, 0.136137
1791.96, 0.136137
1792.58, 0.136039
1793.21, 0.135991
1793.83, 0.136088
1794.45, 0.136137
1795.07, 0.136235
1795.69, 0.136284
1796.31, 0.136479
1796.93, 0.136528
1797.56, 0.136333
1798.18, 0.136186
1798.8, 0.136382
1799.43, 0.136577
1800.05, 0.136528
1800.68, 0.136430
1801.3, 0.136479
1801.93, 0.136430
1802.56, 0.136479
1803.18, 0.136430
1803.81, 0.136675
1804.44, 0.136870
1805.07, 0.136626
1805.7, 0.136528
1806.33, 0.136528
1806.95, 0.136577
1807.58, 0.136479
1808.22, 0.136382
1808.85, 0.136479
1809.48, 0.136675
1810.11, 0.136822
1810.74, 0.136870
1811.38, 0.136870
1812.01, 0.137066
1812.64, 0.137017
1813.28, 0.136919
1813.91, 0.136870
1814.55, 0.137115
1815.18, 0.137115
1815.82, 0.136870
1816.45, 0.137017
1817.09, 0.137359
1817.73, 0.137359
1818.36, 0.137213
1819.0, 0.137115
1819.64, 0.137213
1820.28, 0.137261
1820.92, 0.137408
1821.56, 0.137604
1822.2, 0.137701
1822.84, 0.137653
1823.48, 0.137799
1824.12, 0.137848
1824.76, 0.137897
1825.41, 0.137701
1826.05, 0.137555
1826.69, 0.137653
1827.34, 0.137750
1827.98, 0.137799
1828.63, 0.137946
1829.27, 0.138044
1829.92, 0.137995
1830.56, 0.137995
1831.21, 0.138044
1831.86, 0.137946
1832.5, 0.137995
1833.15, 0.137946
1833.8, 0.137946
1834.45, 0.138239
1835.1, 0.138435
1835.75, 0.138435
1836.4, 0.138435
1837.05, 0.138239
1837.7, 0.138190
1838.35, 0.138337
1839.01, 0.138484
1839.66, 0.138630
1840.31, 0.138679
1840.96, 0.138630
1841.62, 0.138484
1842.27, 0.138728
1842.93, 0.138875
1843.58, 0.138826
1844.24, 0.138923
1844.9, 0.138875
1845.55, 0.138923
1846.21, 0.138875
1846.87, 0.138728
1847.53, 0.138777
1848.18, 0.139021
1848.84, 0.139217
1849.5, 0.139168
1850.16, 0.138923
1850.82, 0.138972
1851.48, 0.139168
1852.14, 0.139070
1852.81, 0.139070
1853.47, 0.139266
1854.13, 0.139363
1854.8, 0.139412
1855.46, 0.139217
1856.12, 0.139168
1856.79, 0.139363
1857.45, 0.139461
1858.12, 0.139363
1858.79, 0.139363
1859.45, 0.139315
1860.12, 0.139315
1860.79, 0.139412
1861.46, 0.139461
1862.12, 0.139412
1862.79, 0.139461
1863.46, 0.139510
1864.13, 0.139461
1864.8, 0.139510
1865.48, 0.139608
1866.15, 0.139412
1866.82, 0.139315
1867.49, 0.139412
1868.16, 0.139412
1868.84, 0.139510
1869.51, 0.139510
1870.19, 0.139412
1870.86, 0.139412
1871.54, 0.139510
1872.21, 0.139510
1872.89, 0.139363
1873.56, 0.139412
1874.24, 0.139510
1874.92, 0.139559
1875.6, 0.139657
1876.28, 0.139608
1876.96, 0.139657
1877.64, 0.139657
1878.32, 0.139510
1879.0, 0.139461
1879.68, 0.139608
1880.36, 0.139608
1881.04, 0.139706
1881.73, 0.139754
1882.41, 0.139559
1883.09, 0.139412
1883.78, 0.139559
1884.46, 0.139852
1885.15, 0.139950
1885.83, 0.139706
1886.52, 0.139608
1887.21, 0.139608
1887.89, 0.139706
1888.58, 0.139706
1889.27, 0.139706
1889.96, 0.139706
1890.65, 0.139608
1891.34, 0.139657
1892.03, 0.139608
1892.72, 0.139559
1893.41, 0.139510
1894.1, 0.139608
1894.79, 0.139706
1895.49, 0.139754
1896.18, 0.139608
1896.87, 0.139461
1897.57, 0.139510
1898.26, 0.139608
1898.96, 0.139608
1899.65, 0.139754
1900.35, 0.139754
1901.05, 0.139803
1901.74, 0.139657
1902.44, 0.139657
1903.14, 0.139852
1903.84, 0.139803
1904.54, 0.139657
1905.24, 0.139706
1905.94, 0.139852
1906.64, 0.139852
1907.34, 0.139901
1908.04, 0.139901
1908.75, 0.139999
1909.45, 0.140194
1910.15, 0.140194
1910.86, 0.140097
1911.56, 0.140097
1912.27, 0.140292
1912.97, 0.140390
1913.68, 0.140292
1914.39, 0.140243
1915.09, 0.140292
1915.8, 0.140292
1916.51, 0.140146
1917.22, 0.140341
1917.93, 0.140390
1918.64, 0.140341
1919.35, 0.140537
1920.06, 0.140781
1920.77, 0.140928
1921.48, 0.140879
1922.19, 0.140879
1922.91, 0.140879
1923.62, 0.140977
1924.33, 0.141025
1925.05, 0.140977
1925.76, 0.140977
1926.48, 0.140928
1927.19, 0.140879
1927.91, 0.141123
1928.63, 0.141319
1929.35, 0.141270
1930.07, 0.141270
1930.78, 0.141319
1931.5, 0.141172
1932.22, 0.141319
1932.94, 0.141270
1933.66, 0.141221
1934.39, 0.141416
1935.11, 0.141563
1935.83, 0.141514
1936.55, 0.141514
1937.28, 0.141563
1938.0, 0.141710
1938.73, 0.141954
1939.45, 0.141954
1940.18, 0.141759
1940.9, 0.141856
1941.63, 0.141856
1942.36, 0.141856
1943.09, 0.142052
1943.81, 0.142150
1944.54, 0.142150
1945.27, 0.142247
1946.0, 0.142101
1946.73, 0.142150
1947.47, 0.142345
1948.2, 0.142394
1948.93, 0.142247
1949.66, 0.142394
1950.4, 0.142394
1951.13, 0.142394
1951.86, 0.142345
1952.6, 0.142247
1953.34, 0.142492
1954.07, 0.142687
1954.81, 0.142541
1955.55, 0.142394
1956.29, 0.142247
1957.02, 0.142394
1957.76, 0.142639
1958.5, 0.142492
1959.24, 0.142443
1959.98, 0.142541
1960.72, 0.142541
1961.47, 0.142541
1962.21, 0.142687
1962.95, 0.142590
1963.7, 0.142443
1964.44, 0.142541
1965.18, 0.142639
1965.93, 0.142590
1966.67, 0.142736
1967.42, 0.142883
1968.17, 0.142785
1968.92, 0.142736
1969.66, 0.142834
1970.41, 0.142834
1971.16, 0.142785
1971.91, 0.142736
1972.66, 0.142736
1973.41, 0.142785
1974.16, 0.142785
1974.92, 0.142785
1975.67, 0.142834
1976.42, 0.142834
1977.18, 0.142736
1977.93, 0.142932
1978.69, 0.142932
1979.44, 0.142736
1980.2, 0.142736
1980.95, 0.142883
1981.71, 0.142883
1982.47, 0.142687
1983.23, 0.142736
1983.99, 0.142883
1984.74, 0.142932
1985.51, 0.142981
1986.27, 0.143127
1987.03, 0.143176
1987.79, 0.143127
1988.55, 0.143176
1989.32, 0.143176
1990.08, 0.143225
1990.84, 0.143225
1991.61, 0.143078
1992.37, 0.143127
1993.14, 0.143274
1993.9, 0.143274
1994.67, 0.143127
1995.44, 0.143176
1996.21, 0.143421
1996.98, 0.143616
1997.75, 0.143567
1998.52, 0.143518
1999.29, 0.143616
2000.06, 0.143518
2000.83, 0.143616
2001.6, 0.143812
2002.38, 0.143763
2003.15, 0.143616
2003.93, 0.143812
2004.7, 0.143958
2005.48, 0.143958
2006.25, 0.143909
2007.03, 0.144007
2007.81, 0.144105
2008.58, 0.144007
2009.36, 0.144007
2010.14, 0.144056
2010.92, 0.144154
2011.7, 0.144301
2012.48, 0.144496
2013.26, 0.144545
2014.05, 0.144643
2014.83, 0.144740
2015.61, 0.144789
2016.4, 0.144936
2017.18, 0.144936
2017.97, 0.144692
2018.75, 0.144594
2019.54, 0.144740
2020.32, 0.145034
2021.11, 0.145034
2021.9, 0.144936
2022.69, 0.145034
2023.48, 0.145180
2024.27, 0.145229
2025.06, 0.145229
2025.85, 0.145327
2026.64, 0.145327
2027.44, 0.145327
2028.23, 0.145376
2029.02, 0.145425
2029.82, 0.145278
2030.61, 0.145376
2031.41, 0.145425
2032.2, 0.145718
2033.0, 0.145816
2033.8, 0.145816
2034.6, 0.145767
2035.4, 0.145865
2036.2, 0.146011
2037.0, 0.146109
2037.8, 0.146060
2038.6, 0.146109
2039.4, 0.146158
2040.2, 0.146207
2041.01, 0.146158
2041.81, 0.146109
2042.61, 0.146256
2043.42, 0.146354
2044.22, 0.146256
2045.03, 0.146305
2045.84, 0.146305
2046.65, 0.146256
2047.46, 0.146354
2048.26, 0.146354
2049.07, 0.146305
2049.88, 0.146402
2050.69, 0.146451
2051.51, 0.146354
2052.32, 0.146354
2053.13, 0.146451
2053.94, 0.146451
2054.76, 0.146451
2055.57, 0.146549
2056.39, 0.146598
2057.2, 0.146549
2058.02, 0.146500
2058.84, 0.146598
2059.66, 0.146647
2060.48, 0.146549
2061.29, 0.146500
2062.11, 0.146549
2062.94, 0.146647
2063.76, 0.146647
2064.58, 0.146451
2065.4, 0.146354
2066.22, 0.146402
2067.05, 0.146549
2067.87, 0.146549
2068.7, 0.146549
2069.52, 0.146647
2070.35, 0.146647
2071.18, 0.146549
2072.0, 0.146549
2072.83, 0.146500
2073.66, 0.146500
2074.49, 0.146598
2075.32, 0.146696
2076.15, 0.146696
2076.98, 0.146696
2077.82, 0.146696
2078.65, 0.146647
2079.48, 0.146598
2080.32, 0.146598
2081.15, 0.146647
2081.99, 0.146745
2082.83, 0.146940
2083.66, 0.146989
2084.5, 0.146842
2085.34, 0.146794
2086.18, 0.146891
2087.02, 0.147087
2087.86, 0.147038
2088.7, 0.146745
2089.54, 0.146696
2090.39, 0.146745
2091.23, 0.146940
2092.07, 0.147038
2092.92, 0.147233
2093.76, 0.147331
2094.61, 0.147282
2095.45, 0.147185
2096.3, 0.147185
2097.15, 0.147233
2098.0, 0.147331
2098.85, 0.147331
2099.7, 0.147331
2100.55, 0.147282
2101.4, 0.147282
2102.25, 0.147380
2103.1, 0.147478
2103.96, 0.147527
2104.81, 0.147429
2105.67, 0.147380
2106.52, 0.147478
2107.38, 0.147527
2108.24, 0.147625
2109.09, 0.147673
2109.95, 0.147673
2110.81, 0.147673
2111.67, 0.147576
2112.53, 0.147722
2113.39, 0.147967
2114.25, 0.148016
2115.12, 0.147967
2115.98, 0.148162
2116.84, 0.148358
2117.71, 0.148407
2118.58, 0.148504
2119.44, 0.148456
2120.31, 0.148504
2121.18, 0.148407
2122.04, 0.148553
2122.91, 0.148700
2123.78, 0.148700
2124.65, 0.148602
2125.52, 0.148749
2126.4, 0.148944
2127.27, 0.148944
2128.14, 0.148895
2129.02, 0.149091
2129.89, 0.149335
2130.77, 0.149189
2131.64, 0.149091
2132.52, 0.149091
2133.4, 0.149140
2134.27, 0.149238
2135.15, 0.149335
2136.03, 0.149433
2136.91, 0.149531
2137.79, 0.149580
2138.68, 0.149678
2139.56, 0.149726
2140.44, 0.149775
2141.33, 0.149726
2142.21, 0.149726
2143.1, 0.149824
2143.99, 0.149873
2144.87, 0.150020
2145.76, 0.150215
2146.65, 0.150020
2147.54, 0.149971
2148.43, 0.150069
2149.32, 0.150166
2150.21, 0.150166
2151.1, 0.150215
2151.99, 0.150264
2152.89, 0.150215
2153.78, 0.150313
2154.68, 0.150509
2155.57, 0.150557
2156.47, 0.150460
2157.37, 0.150362
2158.27, 0.150411
2159.16, 0.150557
2160.06, 0.150655
2160.96, 0.150802
2161.86, 0.150802
2162.77, 0.150704
2163.67, 0.150753
2164.57, 0.150802
2165.48, 0.150753
2166.38, 0.150802
2167.29, 0.150851
2168.2, 0.150900
2169.1, 0.150900
2170.01, 0.150753
2170.92, 0.150753
2171.83, 0.150900
2172.74, 0.150900
2173.65, 0.150851
2174.56, 0.150753
2175.47, 0.150851
2176.39, 0.151046
2177.3, 0.151046
2178.22, 0.150851
2179.13, 0.150802
2180.05, 0.150851
2180.96, 0.150949
2181.88, 0.151046
2182.8, 0.151046
2183.72, 0.150997
2184.64, 0.150900
2185.56, 0.150949
2186.48, 0.150900
2187.41, 0.150851
2188.33, 0.150753
2189.25, 0.150704
2190.18, 0.150704
2191.1, 0.150753
2192.03, 0.150900
2192.96, 0.150997
2193.89, 0.150997
2194.82, 0.150851
2195.74, 0.150851
2196.68, 0.150802
2197.61, 0.150851
2198.54, 0.150949
2199.47, 0.150753
2200.4, 0.150655
2201.34, 0.150753
2202.28, 0.150851
2203.21, 0.150900
2204.15, 0.150900
2205.08, 0.150949
2206.02, 0.150997
2206.96, 0.150949
2207.9, 0.150900
2208.84, 0.150851
2209.78, 0.150949
2210.73, 0.151046
2211.67, 0.150949
2212.61, 0.151046
2213.56, 0.151144
2214.5, 0.151095
2215.45, 0.151095
2216.4, 0.151144
2217.35, 0.151095
2218.3, 0.151144
2219.24, 0.151242
2220.2, 0.151291
2221.15, 0.151291
2222.1, 0.151242
2223.05, 0.151242
2224.0, 0.151437
2224.96, 0.151486
2225.91, 0.151535
2226.87, 0.151535
2227.83, 0.151584
2228.79, 0.151584
2229.74, 0.151486
2230.7, 0.151584
2231.66, 0.151828
2232.63, 0.151828
2233.59, 0.151926
2234.55, 0.152073
2235.51, 0.152171
2236.48, 0.152122
2237.44, 0.152024
2238.41, 0.152171
2239.38, 0.152464
2240.34, 0.152464
2241.31, 0.152415
2242.28, 0.152415
2243.25, 0.152415
2244.22, 0.152513
2245.19, 0.152659
2246.17, 0.152659
2247.14, 0.152659
2248.12, 0.152708
2249.09, 0.152806
2250.07, 0.152953
2251.04, 0.153002
2252.02, 0.153050
2253.0, 0.153148
2253.98, 0.153295
2254.96, 0.153393
2255.94, 0.153490
2256.92, 0.153588
2257.91, 0.153588
2258.89, 0.153539
2259.88, 0.153588
2260.86, 0.153539
2261.85, 0.153442
2262.83, 0.153539
2263.82, 0.153735
2264.81, 0.153784
2265.8, 0.153784
2266.79, 0.153784
2267.78, 0.153881
2268.78, 0.153979
2269.77, 0.154175
2270.76, 0.154126
2271.76, 0.154028
2272.75, 0.154126
2273.75, 0.154321
2274.75, 0.154517
2275.75, 0.154615
2276.75, 0.154419
2277.75, 0.154419
2278.75, 0.154566
2279.75, 0.154615
2280.75, 0.154517
2281.76, 0.154664
2282.76, 0.154810
2283.77, 0.154859
2284.77, 0.154908
2285.78, 0.154859
2286.79, 0.154859
2287.8, 0.154957
2288.81, 0.154859
2289.82, 0.154908
2290.83, 0.154752
2291.84, 0.155012
2292.86, 0.154960
2293.87, 0.154960
2294.89, 0.154908
2295.91, 0.154440
2296.92, 0.154388
2297.94, 0.154596
2298.96, 0.154700
2299.98, 0.155220
2301.0, 0.155376
2302.02, 0.155220
2303.04, 0.155116
2304.07, 0.155116
2305.09, 0.155324
2306.12, 0.155116
2307.15, 0.154908
2308.17, 0.154960
2309.2, 0.155012
2310.23, 0.155012
2311.26, 0.154908
2312.29, 0.155012
2313.32, 0.155116
2314.35, 0.154908
2315.39, 0.155012
2316.42, 0.154960
2317.46, 0.154700
2318.5, 0.154596
2319.53, 0.154700
2320.57, 0.155324
2321.61, 0.155272
2322.65, 0.155116
2323.69, 0.155116
2324.73, 0.155012
2325.78, 0.155272
2326.82, 0.155324
2327.86, 0.155168
2328.91, 0.155324
2329.96, 0.155428
2331.01, 0.155116
2332.05, 0.154960
2333.1, 0.155064
2334.15, 0.155220
2335.21, 0.155480
2336.26, 0.155584
2337.31, 0.155324
2338.36, 0.155272
2339.42, 0.155168
2340.48, 0.155064
2341.53, 0.155272
2342.59, 0.155376
2343.65, 0.155428
2344.71, 0.155480
2345.77, 0.155428
2346.83, 0.155376
2347.9, 0.155584
2348.96, 0.155376
2350.02, 0.155012
2351.09, 0.155064
2352.16, 0.155376
2353.23, 0.155428
2354.29, 0.155584
2355.36, 0.155584
2356.43, 0.155480
2357.51, 0.155376
2358.58, 0.155272
2359.65, 0.155324
2360.73, 0.155584
2361.8, 0.155636
2362.88, 0.155636
2363.96, 0.155584
2365.03, 0.155688
2366.11, 0.155688
2367.19, 0.155584
2368.27, 0.155480
2369.36, 0.155532
2370.44, 0.155584
2371.53, 0.155896
2372.61, 0.156156
2373.7, 0.155792
2374.78, 0.155532
2375.87, 0.155584
2376.96, 0.155688
2378.05, 0.155792
2379.14, 0.155844
2380.24, 0.155948
2381.33, 0.156000
2382.42, 0.155844
2383.52, 0.155896
2384.61, 0.156104
2385.71, 0.156104
2386.81, 0.155948
2387.91, 0.155948
2389.01, 0.156104
2390.11, 0.155844
2391.22, 0.156052
2392.32, 0.156312
2393.42, 0.156468
2394.53, 0.156572
2395.64, 0.156520
2396.74, 0.156312
2397.85, 0.156468
2398.96, 0.156520
2400.07, 0.156208
2401.18, 0.156260
2402.3, 0.156156
2403.41, 0.156156
2404.52, 0.156468
2405.64, 0.156676
2406.76, 0.156624
2407.88, 0.156468
2408.99, 0.156676
2410.11, 0.156676
2411.23, 0.156416
2412.36, 0.156468
2413.48, 0.156520
2414.6, 0.156364
2415.73, 0.156468
2416.85, 0.156468
2417.98, 0.156728
2419.11, 0.156728
2420.24, 0.156624
2421.37, 0.156728
2422.5, 0.156832
2423.64, 0.156884
2424.77, 0.156832
2425.9, 0.156728
2427.04, 0.156832
2428.18, 0.156780
2429.31, 0.156676
2430.45, 0.156832
2431.59, 0.157092
2432.73, 0.157144
2433.88, 0.157040
2435.02, 0.156988
2436.16, 0.156780
2437.31, 0.156832
2438.45, 0.156884
2439.6, 0.156780
2440.75, 0.156832
2441.9, 0.156728
2443.05, 0.156884
2444.2, 0.156988
2445.35, 0.156936
2446.51, 0.156832
2447.67, 0.156624
2448.82, 0.156468
2449.98, 0.156676
2451.14, 0.156884
2452.3, 0.156780
2453.46, 0.156780
2454.62, 0.156884
2455.78, 0.156676
2456.94, 0.156572
2458.11, 0.156676
2459.28, 0.156676
2460.44, 0.156572
2461.61, 0.156624
2462.78, 0.156832
2463.95, 0.156728
2465.12, 0.156624
2466.3, 0.156728
2467.47, 0.156728
2468.65, 0.156624
2469.82, 0.156780
2471.0, 0.156884
2472.18, 0.156728
2473.36, 0.156364
2474.54, 0.156260
2475.72, 0.156364
2476.9, 0.156416
2478.08, 0.156364
2479.27, 0.156312
2480.46, 0.156520
2481.64, 0.156728
2482.83, 0.156728
2484.02, 0.156728
2485.21, 0.156468
2486.4, 0.156104
2487.6, 0.155948
2488.79, 0.156104
2489.99, 0.156468
2491.18, 0.156780
2492.38, 0.156624
2493.58, 0.156468
2494.78, 0.156364
2495.98, 0.156520
2497.18, 0.156832
2498.39, 0.156468
2499.59, 0.156208
2500.8, 0.156468
2502.01, 0.156676
2503.21, 0.156624
2504.42, 0.156416
2505.63, 0.156416
2506.84, 0.156520
2508.06, 0.156364
2509.27, 0.156416
2510.49, 0.156520
2511.7, 0.156260
2512.92, 0.156000
2514.14, 0.156156
2515.36, 0.156572
2516.58, 0.156676
2517.8, 0.156572
2519.03, 0.156624
2520.25, 0.156728
2521.48, 0.156520
2522.7, 0.156364
2523.93, 0.156728
2525.16, 0.156780
2526.39, 0.156832
2527.62, 0.156884
2528.86, 0.156832
2530.09, 0.156780
2531.33, 0.156988
2532.56, 0.156936
2533.8, 0.156780
2535.04, 0.156832
2536.28, 0.156936
2537.52, 0.156728
2538.76, 0.156728
2540.01, 0.156936
2541.25, 0.157092
2542.5, 0.157144
2543.75, 0.157196
2544.99, 0.157092
2546.24, 0.157248
2547.49, 0.157404
2548.75, 0.157300
2550.0, 0.157300
2551.26, 0.157560
2552.51, 0.157716
2553.77, 0.157456
2555.03, 0.157144
2556.29, 0.157404
2557.55, 0.157404
2558.81, 0.157248
2560.08, 0.157456
2561.34, 0.157872
2562.61, 0.157820
2563.88, 0.157976
2565.14, 0.157820
2566.41, 0.157300
2567.68, 0.157144
2568.96, 0.157508
2570.23, 0.157716
2571.51, 0.157404
2572.78, 0.157768
2574.06, 0.158184
2575.34, 0.157560
2576.62, 0.157560
2577.9, 0.157612
2579.18, 0.157664
2580.47, 0.157872
2581.75, 0.157924
2583.04, 0.158132
2584.32, 0.158444
2585.61, 0.157976
2586.9, 0.158184
2588.2, 0.157924
2589.49, 0.157612
2590.78, 0.157352
2592.08, 0.157196
2593.37, 0.157612
2594.67, 0.159120
2595.97, 0.159172
2597.27, 0.157976
2598.57, 0.157300
2599.88, 0.157196
2601.18, 0.157508
2602.49, 0.157820
2603.79, 0.157820
2605.1, 0.158028
2606.41, 0.157924
2607.72, 0.157508
2609.03, 0.157820
2610.35, 0.157612
2611.66, 0.157144
2612.98, 0.157196
2614.3, 0.157144
2615.62, 0.157560
2616.94, 0.158184
2618.26, 0.157404
2619.58, 0.157040
2620.91, 0.157300
2622.23, 0.156728
2623.56, 0.156676
2624.89, 0.156780
2626.22, 0.157352
2627.55, 0.157248
2628.88, 0.156884
2630.21, 0.157456
2631.55, 0.157196
2632.89, 0.156624
2634.22, 0.156728
2635.56, 0.156468
2636.9, 0.156260
2638.25, 0.156208
2639.59, 0.156104
2640.93, 0.156156
2642.28, 0.156468
2643.63, 0.156468
2644.98, 0.156624
2646.33, 0.156520
2647.68, 0.156208
2649.03, 0.155844
2650.39, 0.155636
2651.74, 0.155844
2653.1, 0.155844
2654.46, 0.155532
2655.82, 0.155584
2657.18, 0.155376
2658.54, 0.155376
2659.9, 0.155584
2661.27, 0.155428
2662.64, 0.155168
2664.01, 0.155376
2665.38, 0.156104
2666.74, 0.156260
2668.12, 0.155428
2669.49, 0.155324
2670.87, 0.156000
2672.24, 0.154856
2673.62, 0.154440
2675.0, 0.154648
2676.38, 0.154908
2677.76, 0.154700
2679.15, 0.154284
2680.54, 0.153608
2681.92, 0.153036
2683.31, 0.152880
2684.7, 0.152516
2686.09, 0.152204
2687.48, 0.151528
2688.88, 0.150748
2690.27, 0.149916
2691.67, 0.149500
2693.07, 0.149344
2694.47, 0.148876
2695.87, 0.147888
2697.27, 0.146796
2698.67, 0.145496
2700.08, 0.144872
2701.49, 0.143988
2702.9, 0.142740
2704.31, 0.141648
2705.72, 0.140712
2707.13, 0.139828
2708.54, 0.139620
2709.96, 0.139412
2711.38, 0.138840
2712.8, 0.137384
2714.22, 0.136188
2715.64, 0.135304
2717.06, 0.134368
2718.49, 0.133172
2719.91, 0.132912
2721.34, 0.132184
2722.77, 0.130780
2724.2, 0.130364
2725.63, 0.129428
2727.07, 0.127920
2728.5, 0.126516
2729.94, 0.125112
2731.38, 0.123916
2732.82, 0.123136
2734.26, 0.122564
2735.7, 0.121316
2737.15, 0.119912
2738.59, 0.119236
2740.04, 0.118716
2741.49, 0.117312
2742.94, 0.115492
2744.39, 0.113984
2745.84, 0.112840
2747.3, 0.111748
2748.76, 0.110760
2750.21, 0.109928
2751.67, 0.109200
2753.14, 0.108316
2754.6, 0.108212
2756.06, 0.107692
2757.53, 0.106028
2759.0, 0.104936
2760.46, 0.104416
2761.94, 0.104416
2763.41, 0.104000
2764.88, 0.103012
2766.36, 0.102284
2767.83, 0.101764
2769.31, 0.101244
2770.79, 0.101088
2772.27, 0.100672
2773.76, 0.100100
2775.24, 0.0997360
2776.73, 0.0994760
2778.22, 0.0989560
2779.71, 0.0984880
2781.2, 0.0982280
2782.69, 0.0980200
2784.18, 0.0977600
2785.68, 0.0979160
2787.18, 0.0981240
2788.68, 0.0980720
2790.18, 0.0979680
2791.68, 0.0978640
2793.19, 0.0979680
2794.69, 0.0980720
2796.2, 0.0979680
2797.71, 0.0979680
2799.22, 0.0980200
2800.73, 0.0979680
2802.24, 0.0981760
2803.76, 0.0981760
2805.28, 0.0977600
2806.8, 0.0975000
2808.32, 0.0972920
2809.84, 0.0970840
2811.36, 0.0967720
2812.89, 0.0965640
2814.42, 0.0964600
2815.94, 0.0962520
2817.48, 0.0962000
2819.01, 0.0961480
2820.54, 0.0957840
2822.08, 0.0954200
2823.61, 0.0950040
2825.15, 0.0945880
2826.69, 0.0945360
2828.23, 0.0945880
2829.78, 0.0943800
2831.32, 0.0943280
2832.87, 0.0942240
2834.42, 0.0939640
2835.97, 0.0937560
2837.52, 0.0936520
2839.08, 0.0935480
2840.63, 0.0933400
2842.19, 0.0931840
2843.75, 0.0930280
2845.31, 0.0926640
2846.87, 0.0924040
2848.44, 0.0923000
2850.0, 0.0921440
2851.57, 0.0916760
2853.14, 0.0913120
2854.71, 0.0913640
2856.28, 0.0911560
2857.86, 0.0907920
2859.43, 0.0905320
2861.01, 0.0903760
2862.59, 0.0901680
2864.17, 0.0899600
2865.76, 0.0898040
2867.34, 0.0895960
2868.93, 0.0894400
2870.52, 0.0893360
2872.11, 0.0890760
2873.7, 0.0888160
2875.29, 0.0886600
2876.89, 0.0883480
2878.49, 0.0881920
2880.08, 0.0880360
2881.69, 0.0879320
2883.29, 0.0879320
2884.89, 0.0878280
2886.5, 0.0876200
2888.11, 0.0875680
2889.72, 0.0876200
2891.33, 0.0874640
2892.94, 0.0871520
2894.56, 0.0869960
2896.17, 0.0869960
2897.79, 0.0869960
2899.42, 0.0867880
2901.04, 0.0864240
2902.66, 0.0863720
2904.29, 0.0864240
2905.92, 0.0864760
2907.55, 0.0863720
2909.18, 0.0862160
2910.81, 0.0862160
2912.45, 0.0861120
2914.08, 0.0861640
2915.72, 0.0863200
2917.36, 0.0863720
2919.01, 0.0864760
2920.65, 0.0864760
2922.3, 0.0862680
2923.94, 0.0859560
2925.59, 0.0859040
2927.25, 0.0861120
2928.9, 0.0861640
2930.56, 0.0862160
2932.21, 0.0862160
2933.87, 0.0860600
2935.53, 0.0859040
2937.2, 0.0858000
2938.86, 0.0859040
2940.53, 0.0859040
2942.2, 0.0859040
2943.87, 0.0861120
2945.54, 0.0862680
2947.22, 0.0862680
2948.89, 0.0863720
2950.57, 0.0864760
2952.25, 0.0864760
2953.93, 0.0865280
2955.62, 0.0867360
2957.3, 0.0870480
2958.99, 0.0871000
2960.68, 0.0868920
2962.37, 0.0868920
2964.07, 0.0870480
2965.76, 0.0870480
2967.46, 0.0871520
2969.16, 0.0873600
2970.86, 0.0873080
2972.56, 0.0873080
2974.27, 0.0874120
2975.98, 0.0875680
2977.69, 0.0876720
2979.4, 0.0877760
2981.11, 0.0878280
2982.83, 0.0879320
2984.54, 0.0881920
2986.26, 0.0881920
2987.98, 0.0880880
2989.71, 0.0882440
2991.43, 0.0884000
2993.16, 0.0886080
2994.89, 0.0887120
2996.62, 0.0887640
2998.35, 0.0889200
3000.09, 0.0889720
3001.83, 0.0891800
3003.57, 0.0893880
3005.31, 0.0893360
3007.05, 0.0893360
3008.79, 0.0894400
3010.54, 0.0894400
3012.29, 0.0894920
3014.04, 0.0895960
3015.8, 0.0897000
3017.55, 0.0899080
3019.31, 0.0900640
3021.07, 0.0901160
3022.83, 0.0901680
3024.59, 0.0902200
3026.36, 0.0904280
3028.13, 0.0905320
3029.9, 0.0905320
3031.67, 0.0906360
3033.44, 0.0906880
3035.22, 0.0906880
3037.0, 0.0907920
3038.78, 0.0909480
3040.56, 0.0911560
3042.34, 0.0913120
3044.13, 0.0915200
3045.92, 0.0914680
3047.71, 0.0914680
3049.5, 0.0915720
3051.3, 0.0917280
3053.09, 0.0918840
3054.89, 0.0919880
3056.69, 0.0920400
3058.5, 0.0920400
3060.3, 0.0922480
3062.11, 0.0923520
3063.92, 0.0923000
3065.73, 0.0923000
3067.55, 0.0924040
3069.36, 0.0926120
3071.18, 0.0927680
3073.0, 0.0929240
3074.82, 0.0929240
3076.65, 0.0929760
3078.48, 0.0931840
3080.31, 0.0933920
3082.14, 0.0936000
3083.97, 0.0937040
3085.8, 0.0937040
3087.64, 0.0939640
3089.48, 0.0941200
3091.33, 0.0942240
3093.17, 0.0943280
3095.02, 0.0943280
3096.87, 0.0945880
3098.72, 0.0947960
3100.57, 0.0949520
3102.43, 0.0950560
3104.28, 0.0951080
3106.14, 0.0952640
3108.01, 0.0954200
3109.87, 0.0955760
3111.74, 0.0957840
3113.61, 0.0960440
3115.48, 0.0962520
3117.35, 0.0964080
3119.23, 0.0965120
3121.1, 0.0967200
3122.98, 0.0969800
3124.87, 0.0970320
3126.75, 0.0970320
3128.64, 0.0972400
3130.53, 0.0975520
3132.42, 0.0978120
3134.31, 0.0980720
3136.21, 0.0982800
3138.11, 0.0984880
3140.01, 0.0988520
3141.91, 0.0991120
3143.82, 0.0992160
3145.73, 0.0993200
3147.64, 0.0996840
3149.55, 0.0998920
3151.46, 0.0999440
3153.38, 0.0999960
3155.3, 0.100360
3157.22, 0.100620
3159.14, 0.100880
3161.07, 0.101036
3163.0, 0.101088
3164.93, 0.101400
3166.86, 0.101660
3168.8, 0.101816
3170.74, 0.101972
3172.68, 0.102180
3174.62, 0.102440
3176.56, 0.102752
3178.51, 0.103012
3180.46, 0.103168
3182.42, 0.103324
3184.37, 0.103532
3186.33, 0.103740
3188.29, 0.103896
3190.25, 0.104104
3192.21, 0.104364
3194.18, 0.104520
3196.15, 0.104780
3198.12, 0.104936
3200.09, 0.105040
3202.07, 0.105248
3204.05, 0.105612
3206.03, 0.105872
3208.02, 0.106080
3210.0, 0.106288
3211.99, 0.106548
3213.98, 0.106860
3215.98, 0.107016
3217.97, 0.107276
3219.97, 0.107380
3221.97, 0.107380
3223.98, 0.107692
3225.98, 0.107952
3227.99, 0.108108
3230.0, 0.108316
3232.02, 0.108576
3234.03, 0.108784
3236.05, 0.109096
3238.07, 0.109304
3240.1, 0.109512
3242.12, 0.109668
3244.15, 0.109772
3246.18, 0.109928
3248.22, 0.110084
3250.25, 0.110240
3252.29, 0.110552
3254.33, 0.110812
3256.38, 0.111020
3258.43, 0.111280
3260.47, 0.111436
3262.53, 0.111696
3264.58, 0.112008
3266.64, 0.112112
3268.7, 0.112424
3270.76, 0.112736
3272.82, 0.112788
3274.89, 0.112892
3276.96, 0.113152
3279.04, 0.113412
3281.11, 0.113620
3283.19, 0.113828
3285.27, 0.114036
3287.35, 0.114140
3289.44, 0.114348
3291.53, 0.114608
3293.62, 0.114920
3295.71, 0.115076
3297.81, 0.115180
3299.91, 0.115388
3302.01, 0.115596
3304.11, 0.115804
3306.22, 0.115908
3308.33, 0.116012
3310.44, 0.116272
3312.56, 0.116532
3314.68, 0.116688
3316.8, 0.116844
3318.92, 0.117104
3321.05, 0.117260
3323.18, 0.117364
3325.31, 0.117520
3327.44, 0.117780
3329.58, 0.118092
3331.72, 0.118248
3333.86, 0.118404
3336.01, 0.118560
3338.16, 0.118768
3340.31, 0.118872
3342.46, 0.119028
3344.61, 0.119236
3346.77, 0.119236
3348.94, 0.119444
3351.1, 0.119756
3353.27, 0.119860
3355.44, 0.119964
3357.61, 0.119964
3359.79, 0.119808
3361.97, 0.119704
3364.15, 0.119652
3366.33, 0.119756
3368.52, 0.119860
3370.71, 0.119912
3372.9, 0.120068
3375.1, 0.120224
3377.3, 0.120380
3379.5, 0.120640
3381.71, 0.120952
3383.91, 0.121108
3386.12, 0.121316
3388.34, 0.121576
3390.55, 0.121732
3392.77, 0.121888
3394.99, 0.121940
3397.22, 0.121888
3399.45, 0.121940
3401.68, 0.122044
3403.91, 0.121992
3406.15, 0.121940
3408.39, 0.122096
3410.63, 0.122252
3412.87, 0.122304
3415.12, 0.122512
3417.37, 0.122824
3419.63, 0.123136
3421.88, 0.123552
3424.14, 0.124020
3426.41, 0.124488
3428.67, 0.124904
3430.94, 0.125424
3433.21, 0.125580
3435.49, 0.125788
3437.77, 0.126204
3440.05, 0.126516
3442.33, 0.126828
3444.62, 0.127192
3446.91, 0.127452
3449.2, 0.127660
3451.5, 0.127868
3453.8, 0.128128
3456.1, 0.128388
3458.41, 0.128648
3460.72, 0.128804
3463.03, 0.128752
3465.34, 0.128804
3467.66, 0.129012
3469.98, 0.129168
3472.31, 0.129272
3474.63, 0.129532
3476.96, 0.129792
3479.3, 0.129948
3481.64, 0.130104
3483.97, 0.130208
3486.32, 0.130364
3488.66, 0.130416
3491.01, 0.130468
3493.36, 0.130520
3495.72, 0.130624
3498.08, 0.130884
3500.44, 0.131144
3502.81, 0.131352
3505.18, 0.131664
3507.55, 0.132080
3509.92, 0.132548
3512.3, 0.132912
3514.68, 0.133328
3517.06, 0.133640
3519.45, 0.133796
3521.84, 0.134056
3524.24, 0.134368
3526.64, 0.134524
3529.04, 0.134836
3531.44, 0.135252
3533.85, 0.135408
3536.26, 0.135512
3538.67, 0.135720
3541.09, 0.135928
3543.51, 0.136084
3545.93, 0.136396
3548.36, 0.136604
3550.79, 0.136708
3553.22, 0.136760
3555.66, 0.136968
3558.1, 0.137228
3560.54, 0.137436
3562.99, 0.137540
3565.44, 0.137644
3567.9, 0.137956
3570.35, 0.138216
3572.81, 0.138424
3575.28, 0.138528
3577.75, 0.138632
3580.22, 0.138840
3582.69, 0.139100
3585.17, 0.139204
3587.65, 0.139360
3590.14, 0.139516
3592.62, 0.139620
3595.11, 0.139776
3597.61, 0.139984
3600.11, 0.140192
3602.61, 0.140348
3605.11, 0.140556
3607.62, 0.140712
3610.14, 0.141024
3612.65, 0.141180
3615.17, 0.141284
3617.69, 0.141440
3620.22, 0.141544
3622.75, 0.141752
3625.28, 0.141960
3627.82, 0.142064
3630.36, 0.142168
3632.9, 0.142376
3635.45, 0.142532
3638.0, 0.142584
3640.56, 0.142688
3643.12, 0.142844
3645.68, 0.142948
3648.24, 0.143156
3650.81, 0.143364
3653.39, 0.143416
3655.96, 0.143572
3658.54, 0.143676
3661.13, 0.143936
3663.71, 0.144196
3666.3, 0.144248
3668.9, 0.144352
3671.5, 0.144508
3674.1, 0.144716
3676.7, 0.144872
3679.31, 0.144924
3681.93, 0.145028
3684.54, 0.145288
3687.17, 0.145496
3689.79, 0.145652
3692.42, 0.145912
3695.05, 0.146016
3697.69, 0.146172
3700.32, 0.146328
3702.97, 0.146484
3705.61, 0.146640
3708.27, 0.146796
3710.92, 0.146952
3713.58, 0.147004
3716.24, 0.147160
3718.91, 0.147420
3721.58, 0.147680
3724.25, 0.147888
3726.93, 0.147888
3729.61, 0.147992
3732.29, 0.148200
3734.98, 0.148460
3737.67, 0.148616
3740.37, 0.148720
3743.07, 0.148876
3745.78, 0.149032
3748.49, 0.149084
3751.2, 0.149136
3753.91, 0.149344
3756.63, 0.149552
3759.36, 0.149708
3762.09, 0.149864
3764.82, 0.150020
3767.55, 0.150072
3770.29, 0.150072
3773.04, 0.150280
3775.78, 0.150488
3778.54, 0.150540
3781.29, 0.150644
3784.05, 0.150748
3786.82, 0.150800
3789.59, 0.151008
3792.36, 0.151164
3795.13, 0.151216
3797.92, 0.151216
3800.7, 0.151424
3803.49, 0.151476
3806.28, 0.151424
3809.08, 0.151476
3811.88, 0.151528
3814.68, 0.151684
3817.49, 0.151840
3820.31, 0.151892
3823.12, 0.151892
3825.94, 0.151944
3828.77, 0.152100
3831.6, 0.152256
3834.43, 0.152256
3837.27, 0.152256
3840.11, 0.152412
3842.96, 0.152516
3845.81, 0.152568
3848.67, 0.152568
3851.53, 0.152568
3854.39, 0.152672
3857.26, 0.152776
3860.13, 0.152776
3863.01, 0.152776
3865.89, 0.152880
3868.77, 0.152880
3871.66, 0.152880
3874.55, 0.152880
3877.45, 0.152932
3880.35, 0.153036
3883.26, 0.153088
3886.17, 0.153088
3889.09, 0.153088
3892.01, 0.153192
3894.93, 0.153296
3897.86, 0.153244
3900.79, 0.153192
3903.73, 0.153244
3906.67, 0.153296
3909.62, 0.153400
3912.57, 0.153452
3915.52, 0.153400
3918.48, 0.153400
3921.45, 0.153556
3924.42, 0.153660
3927.39, 0.153712
3930.37, 0.153660
3933.35, 0.153608
3936.34, 0.153712
3939.33, 0.153816
3942.32, 0.153712
3945.32, 0.153608
3948.33, 0.153764
3951.34, 0.153972
3954.35, 0.153868
3957.37, 0.153764
3960.39, 0.153816
3963.42, 0.153764
3966.45, 0.153764
3969.49, 0.153868
3972.53, 0.153868
3975.58, 0.153868
3978.63, 0.154024
3981.68, 0.154180
3984.75, 0.154336
3987.81, 0.154544
3990.88, 0.154596
3993.95, 0.154596
3997.03, 0.154648
4000.12, 0.154752
4003.21, 0.154804
4006.3, 0.154804
4009.4, 0.154804
4012.5, 0.154960
4015.61, 0.155064
4018.72, 0.155116
4021.84, 0.155168
4024.96, 0.155272
4028.09, 0.155428
4031.22, 0.155584
4034.36, 0.155688
4037.5, 0.155792
4040.65, 0.155740
4043.8, 0.155844
4046.96, 0.156000
4050.12, 0.156104
4053.29, 0.156104
4056.46, 0.156052
4059.64, 0.156104
4062.82, 0.156208
4066.0, 0.156156
4069.19, 0.156052
4072.39, 0.156104
4075.59, 0.156208
4078.8, 0.156156
4082.01, 0.156104
4085.23, 0.156104
4088.45, 0.156104
4091.68, 0.156208
4094.91, 0.156260
4098.15, 0.156260
4101.39, 0.156312
4104.63, 0.156312
4107.89, 0.156364
4111.14, 0.156416
4114.41, 0.156364
4117.67, 0.156260
4120.95, 0.156208
4124.23, 0.156416
4127.51, 0.156416
4130.8, 0.156312
4134.09, 0.156416
4137.39, 0.156416
4140.7, 0.156364
4144.01, 0.156364
4147.32, 0.156312
4150.64, 0.156312
4153.97, 0.156260
4157.3, 0.156312
4160.64, 0.156312
4163.98, 0.156260
4167.33, 0.156260
4170.68, 0.156208
4174.04, 0.156156
4177.4, 0.156208
4180.77, 0.156208
4184.14, 0.156208
4187.52, 0.156208
4190.91, 0.156156
4194.3, 0.156260
4197.69, 0.156520
4201.1, 0.156780
4204.5, 0.157196
4207.92, 0.157768
4211.34, 0.158444
4214.76, 0.159120
4218.19, 0.159692
4221.62, 0.160108
4225.06, 0.160420
4228.51, 0.160836
4231.96, 0.160940
4235.42, 0.160836
4238.88, 0.160524
4242.35, 0.160212
4245.83, 0.159692
4249.31, 0.158704
4252.79, 0.157352
4256.28, 0.156364
4259.78, 0.156624
4263.29, 0.157300
4266.79, 0.157768
4270.31, 0.158080
4273.83, 0.158132
4277.35, 0.158288
4280.89, 0.158392
4284.42, 0.158444
4287.97, 0.158392
4291.52, 0.158236
4295.07, 0.157976
4298.63, 0.157768
4302.2, 0.157560
4305.78, 0.157300
4309.35, 0.156988
4312.94, 0.156624
4316.53, 0.156260
4320.13, 0.155948
4323.73, 0.155636
4327.34, 0.155324
4330.96, 0.155012
4334.58, 0.154700
4338.21, 0.154492
4341.84, 0.154336
4345.48, 0.154128
4349.12, 0.153972
4352.77, 0.153764
4356.43, 0.153660
4360.1, 0.153556
4363.76, 0.153348
4367.44, 0.153140
4371.12, 0.152932
4374.81, 0.152672
4378.51, 0.152464
4382.21, 0.152308
4385.92, 0.152048
4389.63, 0.151736
4393.35, 0.151528
4397.08, 0.151372
4400.81, 0.151112
4404.55, 0.150852
4408.29, 0.150592
4412.04, 0.150280
4415.8, 0.149864
4419.57, 0.149448
4423.34, 0.149084
4427.12, 0.148772
4430.9, 0.148356
4434.69, 0.147836
4438.49, 0.147316
4442.29, 0.146848
4446.1, 0.146328
4449.92, 0.145808
4453.74, 0.145340
4457.57, 0.144872
4461.41, 0.144404
4465.25, 0.143832
4469.1, 0.143156
4472.95, 0.142376
4476.82, 0.141804
4480.69, 0.141336
4484.56, 0.140608
4488.44, 0.139932
4492.33, 0.139360
4496.23, 0.138736
4500.13, 0.138112
4504.04, 0.137436
4507.96, 0.136760
4511.88, 0.136188
4515.81, 0.135564
4519.75, 0.134940
4523.69, 0.134368
4527.65, 0.133692
4531.6, 0.133016
4535.57, 0.132496
4539.54, 0.132028
4543.52, 0.131404
4547.5, 0.130832
4551.5, 0.130364
4555.5, 0.129844
4559.5, 0.129220
4563.52, 0.128752
4567.54, 0.128388
4571.56, 0.128024
4575.6, 0.127712
4579.64, 0.127296
4583.69, 0.126932
4587.75, 0.126516
4591.81, 0.126204
4595.88, 0.125892
4599.96, 0.125476
4604.04, 0.125164
4608.14, 0.124800
4612.24, 0.124436
4616.34, 0.124176
4620.46, 0.123864
4624.58, 0.123604
4628.71, 0.123500
4632.84, 0.123292
4636.99, 0.123084
4641.14, 0.122876
4645.3, 0.122668
4649.47, 0.122564
4653.64, 0.122460
4657.82, 0.122356
4662.01, 0.122356
4666.21, 0.122408
4670.41, 0.122408
4674.62, 0.122408
4678.84, 0.122304
4683.07, 0.122304
4687.3, 0.122304
4691.54, 0.122356
4695.79, 0.122356
4700.05, 0.122356
4704.31, 0.122408
4708.59, 0.122408
4712.87, 0.122408
4717.15, 0.122512
4721.45, 0.122564
4725.76, 0.122720
4730.07, 0.122720
4734.39, 0.122720
4738.72, 0.122720
4743.05, 0.122720
4747.39, 0.122720
4751.75, 0.122720
4756.1, 0.122720
4760.47, 0.122668
4764.85, 0.122720
4769.23, 0.122772
4773.62, 0.122876
4778.02, 0.122824
4782.43, 0.122824
4786.85, 0.122824
4791.27, 0.122876
4795.7, 0.122824
4800.14, 0.122824
4804.59, 0.122876
4809.05, 0.123032
4813.51, 0.123344
4817.99, 0.123656
4822.47, 0.124020
4826.96, 0.124228
4831.46, 0.124332
4835.96, 0.124540
4840.48, 0.124800
4845.0, 0.125164
4849.54, 0.125476
4854.08, 0.125684
4858.63, 0.125736
4863.18, 0.125632
4867.75, 0.125736
4872.33, 0.125840
4876.91, 0.125996
4881.5, 0.126308
4886.1, 0.126568
4890.71, 0.126776
4895.33, 0.126932
4899.96, 0.126984
4904.59, 0.126984
4909.24, 0.127036
4913.89, 0.127140
4918.55, 0.127244
4923.22, 0.127348
4927.9, 0.127296
4932.59, 0.127400
4937.29, 0.127504
4942.0, 0.127452
4946.71, 0.127348
4951.44, 0.127244
4956.17, 0.127192
4960.91, 0.126984
4965.67, 0.126672
4970.43, 0.126412
4975.2, 0.126360
4979.98, 0.126360
4984.76, 0.126464
4989.56, 0.126620
4994.37, 0.126724
4999.18, 0.126672
5004.01, 0.126464
5008.84, 0.126464
5013.69, 0.126724
5018.54, 0.127192
5023.4, 0.127764
5028.28, 0.128440
5033.16, 0.129168
5038.05, 0.129688
5042.95, 0.130104
5047.86, 0.130364
5052.78, 0.130624
5057.71, 0.130780
5062.65, 0.130988
5067.6, 0.131196
5072.56, 0.131352
5077.53, 0.131612
5082.5, 0.131872
5087.49, 0.131976
5092.49, 0.132132
5097.5, 0.132392
5102.51, 0.132548
5107.54, 0.132704
5112.58, 0.132912
5117.62, 0.133068
5122.68, 0.133172
5127.75, 0.133328
5132.82, 0.133588
5137.91, 0.133848
5143.01, 0.134160
5148.12, 0.134472
5153.23, 0.134472
5158.36, 0.134524
5163.5, 0.134732
5168.65, 0.135044
5173.81, 0.135096
5178.98, 0.135200
5184.15, 0.135512
5189.34, 0.135772
5194.54, 0.136240
5199.75, 0.136708
5204.98, 0.136864
5210.21, 0.137228
5215.45, 0.137540
5220.7, 0.137488
5225.96, 0.137592
5231.23, 0.137748
5236.52, 0.138060
5241.81, 0.138112
5247.12, 0.138164
5252.44, 0.138320
5257.76, 0.138476
5263.1, 0.138580
5268.45, 0.138840
5273.81, 0.139152
5279.18, 0.139256
5284.56, 0.139360
5289.95, 0.139776
5295.36, 0.139932
5300.77, 0.139984
5306.2, 0.140088
5311.63, 0.140192
5317.08, 0.140348
5322.54, 0.140608
5328.01, 0.140868
5333.49, 0.141128
5338.98, 0.141336
5344.49, 0.141752
5350.0, 0.142428
5355.53, 0.142480
5361.07, 0.142428
5366.62, 0.142584
5372.18, 0.142896
5377.75, 0.143208
5383.34, 0.143624
5388.93, 0.144040
5394.54, 0.144352
5400.16, 0.144820
5405.79, 0.145236
5411.44, 0.145496
5417.09, 0.146224
5422.76, 0.147004
5428.43, 0.146536
5434.12, 0.146328
5439.83, 0.146536
5445.54, 0.146744
5451.26, 0.146796
5457.0, 0.147108
5462.75, 0.147784
5468.52, 0.147680
5474.29, 0.147628
5480.08, 0.147888
5485.88, 0.147576
5491.69, 0.147472
5497.51, 0.147576
5503.35, 0.147680
5509.2, 0.147576
5515.06, 0.147732
5520.93, 0.147888
5526.82, 0.147940
5532.71, 0.147836
5538.63, 0.147940
5544.55, 0.148200
5550.49, 0.148668
5556.44, 0.148772
5562.4, 0.148772
5568.37, 0.148928
5574.36, 0.149552
5580.36, 0.149864
5586.37, 0.149240
5592.4, 0.148772
5598.44, 0.148980
5604.49, 0.149136
5610.56, 0.149188
5616.63, 0.149344
5622.73, 0.149344
5628.83, 0.149396
5634.95, 0.149968
5641.08, 0.150748
5647.23, 0.150436
5653.39, 0.150020
5659.56, 0.149656
5665.74, 0.149136
5671.94, 0.149448
5678.15, 0.149448
5684.38, 0.149084
5690.62, 0.149188
5696.87, 0.148928
5703.14, 0.148824
5709.42, 0.149396
5715.72, 0.149032
5722.03, 0.148356
5728.35, 0.147732
5734.69, 0.147420
5741.03, 0.147004
5747.4, 0.146848
5753.78, 0.145964
5760.17, 0.146016
5766.58, 0.146588
5773.0, 0.145132
5779.44, 0.143884
5785.88, 0.143052
5792.35, 0.142272
5798.83, 0.141908
5805.32, 0.141440
5811.83, 0.141232
5818.35, 0.141804
5824.89, 0.141596
5831.45, 0.140244
5838.01, 0.138996
5844.59, 0.138112
5851.19, 0.137644
5857.8, 0.137436
5864.43, 0.137072
5871.07, 0.136292
5877.73, 0.136812
5884.4, 0.136084
5891.09, 0.134732
5897.79, 0.134056
5904.5, 0.132236
5911.23, 0.131040
5917.98, 0.130312
5924.75, 0.129480
5931.53, 0.129532
5938.32, 0.129324
5945.13, 0.127296
5951.96, 0.125684
5958.8, 0.124644
5965.65, 0.124384
5972.53, 0.123448
5979.42, 0.122044
5986.32, 0.121472
5993.24, 0.120432
6000.18, 0.118872
6007.13, 0.117884
6014.1, 0.117312
6021.08, 0.116012
6028.09, 0.114816
6035.1, 0.113984
6042.14, 0.114244
6049.19, 0.114452
6056.25, 0.112320
6063.34, 0.110864
6070.44, 0.110656
6077.55, 0.109616
6084.69, 0.108420
6091.84, 0.107744
6099.0, 0.107432
6106.19, 0.107692
6113.39, 0.108212
6120.61, 0.107432
6127.84, 0.106860
6135.09, 0.107172
6142.36, 0.107692
6149.65, 0.108108
6156.95, 0.108836
6164.27, 0.109252
6171.61, 0.109408
6178.97, 0.110396
6186.34, 0.111436
6193.73, 0.111332
6201.14, 0.111384
6208.57, 0.111800
6216.01, 0.112060
6223.47, 0.112216
6230.95, 0.112320
6238.45, 0.112164
6245.97, 0.111852
6253.5, 0.111488
6261.06, 0.111072
6268.63, 0.110500
6276.21, 0.109928
6283.82, 0.109148
6291.45, 0.108108
6299.1, 0.106860
6306.76, 0.105508
6314.44, 0.104156
6322.14, 0.102700
6329.86, 0.101088
6337.6, 0.0999960
6345.35, 0.0985400
6353.13, 0.0961480
6360.92, 0.0942240
6368.74, 0.0927680
6376.57, 0.0906880
6384.43, 0.0886600
6392.3, 0.0867880
6400.19, 0.0852800
6408.1, 0.0846040
6416.03, 0.0832520
6423.98, 0.0807560
6431.95, 0.0789880
6439.94, 0.0773240
6447.95, 0.0759720
6455.98, 0.0746720
6464.03, 0.0735280
6472.1, 0.0726960
6480.19, 0.0719680
6488.31, 0.0715000
6496.44, 0.0706680
6504.59, 0.0693160
6512.76, 0.0685880
6520.95, 0.0682240
6529.16, 0.0676000
6537.4, 0.0670800
6545.65, 0.0668720
6553.92, 0.0668720
6562.22, 0.0668720
6570.54, 0.0670800
6578.88, 0.0670280
6587.23, 0.0669760
6595.61, 0.0671320
6604.02, 0.0673400
6612.44, 0.0678080
6620.89, 0.0682760
6629.35, 0.0692120
6637.84, 0.0700960
6646.35, 0.0700440
6654.88, 0.0702000
6663.44, 0.0709280
6672.01, 0.0718640
6680.61, 0.0728000
6689.23, 0.0733720
6697.88, 0.0740480
6706.54, 0.0751400
6715.23, 0.0760240
6723.94, 0.0765960
6732.67, 0.0772720
6741.42, 0.0781040
6750.2, 0.0789360
6759.0, 0.0796120
6767.82, 0.0804960
6776.67, 0.0813800
6785.54, 0.0822640
6794.44, 0.0827320
6803.35, 0.0828360
6812.29, 0.0832000
6821.26, 0.0837720
6830.24, 0.0840840
6839.25, 0.0839800
6848.29, 0.0840840
6857.35, 0.0845000
6866.43, 0.0842920
6875.54, 0.0835120
6884.67, 0.0835640
6893.82, 0.0845520
6903.0, 0.0861120
6912.2, 0.0875160
6921.43, 0.0885560
6930.69, 0.0892840
6939.96, 0.0894920
6949.27, 0.0894920
6958.59, 0.0894920
6967.95, 0.0886080
6977.33, 0.0877240
6986.73, 0.0874120
6996.16, 0.0873600
7005.61, 0.0877240
7015.09, 0.0888160
7024.6, 0.0901160
7034.13, 0.0915720
7043.69, 0.0935480
7053.27, 0.0951600
7062.88, 0.0964600
7072.52, 0.0980720
7082.18, 0.0998400
7091.87, 0.101660
7101.58, 0.103428
7111.32, 0.105352
7121.09, 0.107224
7130.88, 0.108888
7140.71, 0.110604
7150.56, 0.112320
7160.43, 0.113880
7170.33, 0.115388
7180.27, 0.116532
7190.23, 0.117780
7200.21, 0.119288
7210.23, 0.120692
7220.27, 0.121628
7230.34, 0.122772
7240.44, 0.123812
7250.56, 0.124800
7260.72, 0.125788
7270.9, 0.126828
7281.12, 0.127504
7291.36, 0.127920
7301.63, 0.128336
7311.93, 0.128752
7322.25, 0.129168
7332.61, 0.129636
7343.0, 0.129844
7353.41, 0.129896
7363.86, 0.129844
7374.33, 0.129896
7384.83, 0.130052
7395.37, 0.130104
7405.93, 0.130104
7416.53, 0.130208
7427.15, 0.130208
7437.81, 0.130156
7448.5, 0.130052
7459.22, 0.130052
7469.96, 0.129896
7480.74, 0.129584
7491.55, 0.129168
7502.39, 0.128804
7513.27, 0.128388
7524.17, 0.128024
7535.11, 0.127504
7546.08, 0.126932
7557.08, 0.126412
7568.11, 0.126048
7579.17, 0.125632
7590.27, 0.125008
7601.4, 0.124332
7612.56, 0.123656
7623.76, 0.122928
7634.98, 0.122252
7646.24, 0.121680
7657.54, 0.121056
7668.87, 0.120380
7680.23, 0.119548
7691.62, 0.118612
7703.05, 0.117780
7714.51, 0.116948
7726.01, 0.116012
7737.54, 0.114972
7749.11, 0.113984
7760.71, 0.112944
7772.35, 0.111800
7784.02, 0.110708
7795.72, 0.109668
7807.46, 0.108628
7819.23, 0.107588
7831.04, 0.106652
7842.89, 0.105716
7854.77, 0.104832
7866.69, 0.104052
7878.65, 0.103324
7890.64, 0.102596
7902.67, 0.102076
7914.74, 0.101556
7926.84, 0.101036
7938.98, 0.100568
7951.16, 0.100048
7963.37, 0.0995280
7975.62, 0.0991120
7987.91, 0.0986960
8000.24, 0.0982800
8012.6, 0.0976560
8025.01, 0.0970320
8037.45, 0.0963040
8049.93, 0.0954720
8062.45, 0.0946920
8075.01, 0.0938600
8087.61, 0.0930800
8100.24, 0.0921440
8112.91, 0.0911040
8125.63, 0.0900120
8138.39, 0.0889200
8151.18, 0.0877760
8164.02, 0.0865800
8176.9, 0.0854360
8189.81, 0.0842400
8202.77, 0.0828880
8215.77, 0.0813800
8228.82, 0.0798200
8241.9, 0.0783640
8255.02, 0.0769600
8268.19, 0.0756080
8281.39, 0.0742040
8294.65, 0.0729560
8307.94, 0.0717080
8321.28, 0.0704080
8334.66, 0.0691600
8348.08, 0.0678600
8361.54, 0.0666640
8375.05, 0.0657280
8388.6, 0.0647920
8402.2, 0.0637520
8415.84, 0.0628160
8429.52, 0.0617760
8443.25, 0.0608400
8457.02, 0.0600080
8470.84, 0.0592280
8484.7, 0.0584480
8498.61, 0.0576680
8512.57, 0.0569920
8526.57, 0.0563680
8540.62, 0.0557960
8554.71, 0.0550680
8568.85, 0.0542360
8583.04, 0.0534040
8597.27, 0.0528320
8611.55, 0.0525720
8625.88, 0.0524680
8640.26, 0.0523120
8654.68, 0.0523120
8669.16, 0.0522080
8683.68, 0.0518440
8698.25, 0.0514800
8712.87, 0.0511680
8727.53, 0.0509080
8742.25, 0.0507000
8757.02, 0.0505440
8771.83, 0.0504920
8786.7, 0.0502320
8801.62, 0.0499720
8816.59, 0.0498680
8831.61, 0.0497120
8846.68, 0.0495040
8861.8, 0.0492440
8876.97, 0.0490880
8892.2, 0.0489320
8907.48, 0.0486720
8922.81, 0.0484120
8938.2, 0.0481520
8953.63, 0.0479440
8969.13, 0.0476840
8984.67, 0.0471640
9000.27, 0.0468520
9015.92, 0.0465920
9031.63, 0.0460720
9047.39, 0.0456040
9063.21, 0.0452400
9079.08, 0.0449800
9095.01, 0.0446680
9111.0, 0.0442520
9127.04, 0.0437840
9143.13, 0.0434720
9159.28, 0.0430040
9175.49, 0.0425880
9191.76, 0.0421200
9208.09, 0.0419120
9224.47, 0.0419640
9240.92, 0.0421200
9257.42, 0.0422760
9273.98, 0.0424840
9290.6, 0.0425360
9307.28, 0.0425360
9324.02, 0.0426400
9340.82, 0.0426400
9357.68, 0.0426400
9374.6, 0.0425360
9391.58, 0.0423280
9408.62, 0.0423800
9425.73, 0.0424840
9442.9, 0.0424840
9460.13, 0.0425360
9477.42, 0.0424320
9494.78, 0.0424320
9512.2, 0.0424320
9529.69, 0.0423280
9547.24, 0.0421200
9564.86, 0.0420680
9582.54, 0.0419120
9600.28, 0.0417560
9618.1, 0.0417040
9635.97, 0.0415480
9653.92, 0.0412360
9671.93, 0.0408720
9690.01, 0.0404560
9708.16, 0.0401960
9726.37, 0.0400400
9744.65, 0.0399880
9763.0, 0.0398320
9781.43, 0.0396240
9799.92, 0.0395200
9818.48, 0.0396760
9837.1, 0.0394680
9855.8, 0.0392600
9874.58, 0.0391560
9893.42, 0.0391560
9912.34, 0.0392080
9931.33, 0.0393120
9950.39, 0.0394160
9969.52, 0.0393640
9988.74, 0.0392600
10008.0, 0.0391040
10027.4, 0.0391040
10046.8, 0.0390520
10066.3, 0.0389480
10085.9, 0.0386360
10105.6, 0.0385840
10125.3, 0.0388960
10145.1, 0.0388440
10165.0, 0.0387920
10185.0, 0.0386880
10205.0, 0.0383240
10225.2, 0.0378560
10245.4, 0.0378040
10265.7, 0.0377520
10286.0, 0.0374400
10306.5, 0.0370240
10327.0, 0.0366600
10347.6, 0.0364520
10368.3, 0.0362440
10389.1, 0.0358280
10409.9, 0.0357240
10430.9, 0.0357760
10451.9, 0.0356200
10473.0, 0.0353600
10494.2, 0.0349960
10515.5, 0.0346840
10536.9, 0.0345800
10558.4, 0.0344240
10579.9, 0.0342680
10601.5, 0.0341120
10623.3, 0.0339560
10645.1, 0.0336960
10667.0, 0.0335400
10689.0, 0.0333320
10711.1, 0.0330720
10733.2, 0.0327600
10755.5, 0.0325520
10777.9, 0.0323440
10800.3, 0.0322920
10822.9, 0.0320320
10845.5, 0.0318240
10868.2, 0.0318240
10891.1, 0.0316160
10914.0, 0.0313560
10937.0, 0.0312520
10960.2, 0.0311480
10983.4, 0.0311480
11006.7, 0.0313040
11030.1, 0.0314600
11053.6, 0.0313040
11077.3, 0.0312520
11101.0, 0.0312000
11124.8, 0.0310440
11148.7, 0.0309400
11172.7, 0.0307320
11196.9, 0.0307320
11221.1, 0.0307320
11245.4, 0.0307840
11269.9, 0.0306800
11294.4, 0.0304720
11319.1, 0.0303160
11343.9, 0.0301600
11368.8, 0.0301080
11393.7, 0.0300040
11418.8, 0.0297960
11444.0, 0.0297960
11469.4, 0.0297440
11494.8, 0.0293800
11520.3, 0.0292240
11546.0, 0.0289640
11571.8, 0.0287560
11597.7, 0.0287040
11623.7, 0.0288080
11649.8, 0.0286000
11676.0, 0.0282360
11702.4, 0.0279760
11728.9, 0.0279760
11755.5, 0.0277160
11782.2, 0.0274040
11809.0, 0.0269880
11836.0, 0.0268320
11863.0, 0.0268320
11890.3, 0.0267280
11917.6, 0.0265200
11945.0, 0.0261560
11972.6, 0.0258440
12000.4, 0.0257400
12028.2, 0.0255320
12056.2, 0.0252720
12084.3, 0.0250120
12112.5, 0.0248560
12140.9, 0.0244920
12169.4, 0.0241800
12198.0, 0.0238680
12226.8, 0.0236080
12255.7, 0.0232960
12284.7, 0.0230880
12313.9, 0.0226720
12343.2, 0.0224120
12372.7, 0.0222560
12402.3, 0.0219440
12432.0, 0.0215800
12461.9, 0.0212160
12491.9, 0.0207480
12522.1, 0.0205400
12552.4, 0.0204880
12582.9, 0.0201240
12613.5, 0.0195520
12644.3, 0.0195000
12675.2, 0.0192920
12706.3, 0.0189800
12737.5, 0.0185640
12768.9, 0.0183560
12800.4, 0.0179400
12832.1, 0.0178360
12863.9, 0.0176800
12895.9, 0.0174720
12928.1, 0.0171600
12960.4, 0.0165880
12992.9, 0.0162760
13025.5, 0.0160160
13058.3, 0.0157560
13091.3, 0.0153920
13124.4, 0.0149240
13157.8, 0.0143520
13191.2, 0.0135200
13224.9, 0.0130520
13258.7, 0.0128960
13292.7, 0.0125320
13326.9, 0.0118560
13361.2, 0.0113360
13395.7, 0.0111280
13430.4, 0.0109720
13465.3, 0.0105040
13500.4, 0.0101400
13535.7, 0.00993200
13571.1, 0.00941200
13606.7, 0.00899600
13642.5, 0.00873600
13678.5, 0.00816400
13714.7, 0.00769600
13751.1, 0.00728000
13787.6, 0.00702000
13824.4, 0.00670800
13861.4, 0.00624000
13898.5, 0.00587600
13935.9, 0.00592800
13973.5, 0.00577200
14011.2, 0.00556400
14049.2, 0.00514800
14087.4, 0.00494000
14125.8, 0.00478400
14164.3, 0.00483600
14203.2, 0.00436800
14242.2, 0.00421200
14281.4, 0.00447200
14320.9, 0.00447200
14360.5, 0.00431600
14400.4, 0.00457600
14440.5, 0.00483600
14480.9, 0.00520000
14521.4, 0.00556400
14562.2, 0.00613600
14603.3, 0.00728000
14644.5, 0.00868400
14686.0, 0.0101920
14727.7, 0.0124280
14769.7, 0.0152360
14811.9, 0.0187720
14854.3, 0.0231920
14897.0, 0.0287560
14939.9, 0.0350480
14983.1, 0.0425880
15026.5, 0.0507520
15070.2, 0.0597480
15114.2, 0.0698360
15158.3, 0.0809640
15202.8, 0.0928200
15247.5, 0.104312
15292.5, 0.115076
15337.7, 0.125164
15383.2, 0.133848
15429.0, 0.140712
15475.1, 0.146328
15521.4, 0.150696
15568.0, 0.154492
15614.9, 0.158132
15662.1, 0.161408
15709.6, 0.164164
15757.3, 0.166400
15805.4, 0.168480
15853.7, 0.170508
15902.3, 0.173004
15951.2, 0.176020
16000.5, 0.178724
16050.0, 0.181636
16099.8, 0.185068
16150.0, 0.188396
16200.5, 0.191568
16251.3, 0.194636
16302.4, 0.197080
16353.8, 0.199004
16405.5, 0.201344
16457.6, 0.204100
16510.0, 0.206076
16562.8, 0.208104
16615.9, 0.210444
16669.3, 0.212628
16723.1, 0.214812
16777.2, 0.217256
16831.7, 0.219232
16886.5, 0.221000
16941.7, 0.222404
16997.2, 0.223912
17053.1, 0.226096
17109.4, 0.229164
17166.1, 0.232700
17223.1, 0.235664
17280.5, 0.238472
17338.3, 0.241956
17396.5, 0.244400
17455.1, 0.245908
17514.0, 0.247520
17573.4, 0.249340
17633.2, 0.251160
17693.4, 0.252980
17754.0, 0.254332
17815.0, 0.255528
17876.4, 0.256880
17938.3, 0.258440
18000.5, 0.259532
18063.3, 0.260936
18126.4, 0.261664
18190.0, 0.261768
18254.1, 0.261040
18318.6, 0.260260
18383.5, 0.259168
18449.0, 0.257452
18514.9, 0.255632
18581.2, 0.253136
18648.0, 0.249860
18715.4, 0.245440
18783.2, 0.240292
18851.5, 0.234988
18920.3, 0.228540
18989.6, 0.220584
19059.4, 0.211328
19129.7, 0.201812
19200.6, 0.191100
19272.0, 0.179764
19343.9, 0.167440
19416.3, 0.153140
19489.3, 0.138684
19562.8, 0.125580
19637.0, 0.113672
19711.6, 0.103220
19786.8, 0.0944320
19862.6, 0.0877240
19939.0, 0.0814840
20016.0, 0.0777920
20093.6, 0.0792480
20171.8, 0.0858520
20250.6, 0.0989560
20330.0, 0.115596
20410.0, 0.132548
20490.7, 0.148460
20572.0, 0.163072
20654.0, 0.174356
20736.6, 0.182104
20819.9, 0.189696
20903.8, 0.196196
20988.5, 0.200512
21073.8, 0.203424
21159.8, 0.205608
21246.5, 0.206284
21334.0, 0.207064
21422.1, 0.207428
21511.0, 0.206700
21600.7, 0.203580
21691.0, 0.200980
21782.1, 0.200408
21874.0, 0.197600
21966.7, 0.194532
22060.2, 0.194740
22154.5, 0.193284
22249.6, 0.190268
22345.5, 0.187772
22442.2, 0.186784
22539.8, 0.184496
22638.2, 0.180700
22737.5, 0.176520
22837.7, 0.171923
22938.7, 0.166485
23040.7, 0.158977
23143.5, 0.150043
23247.3, 0.141010
23352.1, 0.132401
23457.7, 0.124463
23564.4, 0.117731
23672.0, 0.111890
23780.5, 0.107591
23890.1, 0.103033
24000.7, 0.0969580
24112.3, 0.0924560
24225.0, 0.0896500
24338.7, 0.0876560
24453.5, 0.0877190
24569.4, 0.0899420
24686.4, 0.0931750
24804.5, 0.0973170
24923.8, 0.102429
25044.2, 0.107975
25165.8, 0.110779
25288.6, 0.110419
25412.5, 0.109153
25537.7, 0.107271
25664.1, 0.105427
25791.8, 0.102653
25920.8, 0.0990570
26051.1, 0.0948390
26182.6, 0.0895160
26315.5, 0.0837360
26449.8, 0.0775750
26585.4, 0.0720980
26722.5, 0.0659780
26860.9, 0.0619720
27000.8, 0.0644090
27142.1, 0.0759950
27285.0, 0.0962850
27429.4, 0.121841
27575.3, 0.146435
27722.7, 0.167705
27871.8, 0.187241
28022.4, 0.206257
28174.7, 0.225679
28328.7, 0.243673
28484.4, 0.257630
28641.7, 0.267218
28800.9, 0.274530
28961.8, 0.285213
29124.5, 0.296723
29289.0, 0.306867
29455.4, 0.314798
29623.8, 0.322194
29794.0, 0.333977
29966.3, 0.340019
30140.5, 0.341649
30316.7, 0.350071
30495.1, 0.364230
30675.5, 0.368063
30858.1, 0.372852
31042.8, 0.370960
31229.8, 0.368372
31419.1, 0.371741
31610.7, 0.376366
31804.6, 0.380838
32000.9, 0.379715
32199.7, 0.381610
32400.9, 0.382335
32604.8, 0.383510
32811.1, 0.390403
33020.1, 0.402724
33231.8, 0.388277
33446.2, 0.372334
33663.4, 0.359799
33883.4, 0.344546
34106.3, 0.327002
34332.1, 0.314885
34561.0, 0.300831
34792.9, 0.278867
35028.0, 0.263601
35266.3, 0.258712
35507.8, 0.256842
35752.7, 0.250752
36001.0, 0.239989
36252.8, 0.225475
36508.1, 0.215234
36767.0, 0.209023
37029.7, 0.204508
37296.1, 0.202242
37566.3, 0.200341
37840.5, 0.194404
38118.8, 0.189808
38401.2, 0.185751
38687.8, 0.183092
38978.6, 0.183099
39273.9, 0.186843
39573.7, 0.181855
39878.1, 0.175624
40187.3, 0.178425
40501.2, 0.180029
40820.0, 0.173642
41144.0, 0.162779
41473.2, 0.156417
41807.6, 0.153075
42147.5, 0.152587
42493.0, 0.159781
42844.2, 0.171636
43201.2, 0.177899
43564.3, 0.179633
43933.5, 0.184751
44309.0, 0.179717
44691.0, 0.173737
45079.6, 0.171483
45475.0, 0.165219
45877.5, 0.160301
46287.1, 0.161005
46704.2, 0.164184
47128.7, 0.160781
47561.1, 0.160445
48001.5, 0.163297
48450.1, 0.158110
48907.2, 0.159090
49373.0, 0.162456
49847.7, 0.154503
50331.5, 0.151210
50825.0, 0.152143
51328.2, 0.153910
51841.5, 0.152706
52365.1, 0.148755
52899.4, 0.149932
53444.8, 0.149562
54001.5, 0.146607
54570.1, 0.147713
55150.6, 0.150638
55743.6, 0.149639
56349.5, 0.151228
56968.7, 0.150368
57601.7, 0.149584
58248.9, 0.152052
58910.9, 0.150767
59588.1, 0.147003
60281.0, 0.145725
60990.2, 0.142472
61716.3, 0.140887
62459.8, 0.143809
63221.6, 0.152563
64002.1, 0.149716
64802.1, 0.144583
65622.1, 0.150033
66463.4, 0.158189
67326.6, 0.147677
68212.4, 0.139460
69121.9, 0.139565
70056.0, 0.142229
71015.7, 0.150646
72002.0, 0.151748
73016.3, 0.137925
74059.4, 0.135748
75132.7, 0.146148
76237.6, 0.142236
77375.5, 0.138282
78547.9, 0.142093
79756.3, 0.139160
81002.5, 0.141195
82288.5, 0.148189
83615.7, 0.144397
84986.5, 0.140841
86402.9, 0.137234
87867.4, 0.135085
89382.4, 0.138807
90950.5, 0.139135
92574.6, 0.139563
94257.2, 0.146630
96002.7, 0.149898
97814.1, 0.149134
99695.1, 0.151400
101650.0, 0.148554
103683.0, 0.140030
105799.0, 0.144013
108003.0, 0.148260
110301.0, 0.143271
112699.0, 0.145958
115204.0, 0.141276
117822.0, 0.143286
120562.0, 0.148713
123433.0, 0.153622
126443.0, 0.153847
129604.0, 0.146091
132926.0, 0.139879
136424.0, 0.146500
140111.0, 0.148507
144003.0, 0.156191
148118.0, 0.149428
152474.0, 0.144969
157095.0, 0.155835
162004.0, 0.172590
167231.0, 0.175017
172805.0, 0.204142
178764.0, 0.267884
185148.0, 0.247984
192005.0, 0.210399
199390.0, 0.301248
207366.0, 0.302062
216006.0, 0.302062
