Database of Origin, USGS Spectral Database
Sample Description, See USGS database for additional info
Date Added,2016-08-03 21:13:09.896166

Data ID,USGS_cha04          
Sample ID, chalcopyrite_hs431.4568
Mineral Name, chalcopyrite
Material Class,Sulfide

Wavelength
1622.58, 0.0878990
1623.09, 0.0883730
1623.6, 0.0887110
1624.11, 0.0882370
1624.62, 0.0882370
1625.13, 0.0885080
1625.64, 0.0885080
1626.15, 0.0885760
1626.66, 0.0886430
1627.17, 0.0890490
1627.68, 0.0892520
1628.19, 0.0890490
1628.7, 0.0895230
1629.21, 0.0894550
1629.72, 0.0892520
1630.24, 0.0894550
1630.75, 0.0893200
1631.26, 0.0891850
1631.78, 0.0889820
1632.29, 0.0891170
1632.8, 0.0895230
1633.32, 0.0893880
1633.83, 0.0889820
1634.35, 0.0891850
1634.86, 0.0897260
1635.38, 0.0900640
1635.9, 0.0901320
1636.41, 0.0899290
1636.93, 0.0896580
1637.45, 0.0895230
1637.96, 0.0897940
1638.48, 0.0899970
1639.0, 0.0899970
1639.52, 0.0902000
1640.04, 0.0898610
1640.56, 0.0895910
1641.08, 0.0901320
1641.59, 0.0903350
1642.11, 0.0903350
1642.63, 0.0899970
1643.16, 0.0900640
1643.68, 0.0902000
1644.2, 0.0903350
1644.72, 0.0904030
1645.24, 0.0903350
1645.76, 0.0901320
1646.29, 0.0901320
1646.81, 0.0901320
1647.33, 0.0904030
1647.86, 0.0906060
1648.38, 0.0904700
1648.9, 0.0909440
1649.43, 0.0914180
1649.95, 0.0909440
1650.48, 0.0906730
1651.0, 0.0910120
1651.53, 0.0916210
1652.06, 0.0912820
1652.58, 0.0908760
1653.11, 0.0908760
1653.64, 0.0910120
1654.17, 0.0913500
1654.69, 0.0913500
1655.22, 0.0913500
1655.75, 0.0912820
1656.28, 0.0913500
1656.81, 0.0915530
1657.34, 0.0913500
1657.87, 0.0912820
1658.4, 0.0914180
1658.93, 0.0918910
1659.46, 0.0918910
1659.99, 0.0915530
1660.52, 0.0916210
1661.05, 0.0917560
1661.59, 0.0920270
1662.12, 0.0922970
1662.65, 0.0923650
1663.19, 0.0922970
1663.72, 0.0921620
1664.26, 0.0922970
1664.79, 0.0925000
1665.32, 0.0920940
1665.86, 0.0918240
1666.39, 0.0920270
1666.93, 0.0922970
1667.47, 0.0925000
1668.0, 0.0925000
1668.54, 0.0923650
1669.08, 0.0924330
1669.61, 0.0925680
1670.15, 0.0928390
1670.69, 0.0934480
1671.23, 0.0933800
1671.77, 0.0931770
1672.31, 0.0932450
1672.85, 0.0933120
1673.39, 0.0931090
1673.93, 0.0930420
1674.47, 0.0931090
1675.01, 0.0932450
1675.55, 0.0932450
1676.09, 0.0929740
1676.64, 0.0928390
1677.18, 0.0927710
1677.72, 0.0930420
1678.26, 0.0931770
1678.81, 0.0931090
1679.35, 0.0934480
1679.89, 0.0935830
1680.44, 0.0937180
1680.98, 0.0938540
1681.53, 0.0939210
1682.07, 0.0939210
1682.62, 0.0937180
1683.17, 0.0933800
1683.71, 0.0935150
1684.26, 0.0941240
1684.81, 0.0941240
1685.36, 0.0937860
1685.9, 0.0937180
1686.45, 0.0939210
1687.0, 0.0940570
1687.55, 0.0943270
1688.1, 0.0945980
1688.65, 0.0943950
1689.2, 0.0944630
1689.75, 0.0942600
1690.3, 0.0939210
1690.85, 0.0937180
1691.41, 0.0940570
1691.96, 0.0944630
1692.51, 0.0945980
1693.06, 0.0945300
1693.61, 0.0948010
1694.17, 0.0945980
1694.72, 0.0943950
1695.28, 0.0945300
1695.83, 0.0946660
1696.39, 0.0945980
1696.94, 0.0945980
1697.5, 0.0945300
1698.05, 0.0944630
1698.61, 0.0948010
1699.17, 0.0947330
1699.72, 0.0945980
1700.28, 0.0952070
1700.84, 0.0953420
1701.4, 0.0950720
1701.95, 0.0950720
1702.51, 0.0950040
1703.07, 0.0946660
1703.63, 0.0946660
1704.19, 0.0948010
1704.75, 0.0948010
1705.31, 0.0948010
1705.88, 0.0948010
1706.44, 0.0948690
1707.0, 0.0946660
1707.56, 0.0947330
1708.12, 0.0949360
1708.69, 0.0949360
1709.25, 0.0952070
1709.81, 0.0954100
1710.38, 0.0953420
1710.94, 0.0951390
1711.51, 0.0952070
1712.07, 0.0954780
1712.64, 0.0954100
1713.2, 0.0954100
1713.77, 0.0956130
1714.34, 0.0957480
1714.9, 0.0959510
1715.47, 0.0957480
1716.04, 0.0959510
1716.61, 0.0960870
1717.18, 0.0956810
1717.74, 0.0955450
1718.31, 0.0958160
1718.88, 0.0960190
1719.45, 0.0958160
1720.02, 0.0956130
1720.59, 0.0959510
1721.17, 0.0962900
1721.74, 0.0961540
1722.31, 0.0958840
1722.88, 0.0958840
1723.45, 0.0958840
1724.03, 0.0956130
1724.6, 0.0955450
1725.18, 0.0955450
1725.75, 0.0955450
1726.33, 0.0956130
1726.9, 0.0960190
1727.48, 0.0962220
1728.05, 0.0961540
1728.63, 0.0962900
1729.2, 0.0966280
1729.78, 0.0964250
1730.36, 0.0960870
1730.94, 0.0962220
1731.51, 0.0964250
1732.09, 0.0962900
1732.67, 0.0962220
1733.25, 0.0963570
1733.83, 0.0966280
1734.41, 0.0964250
1734.99, 0.0961540
1735.57, 0.0964930
1736.15, 0.0964250
1736.73, 0.0962220
1737.32, 0.0964250
1737.9, 0.0966280
1738.48, 0.0966960
1739.07, 0.0965600
1739.65, 0.0964250
1740.23, 0.0963570
1740.82, 0.0966280
1741.4, 0.0968310
1741.99, 0.0968990
1742.57, 0.0971690
1743.16, 0.0971020
1743.74, 0.0966280
1744.33, 0.0964930
1744.92, 0.0966960
1745.51, 0.0966280
1746.09, 0.0964930
1746.68, 0.0967630
1747.27, 0.0971020
1747.86, 0.0967630
1748.45, 0.0967630
1749.04, 0.0970340
1749.63, 0.0970340
1750.22, 0.0968310
1750.81, 0.0968990
1751.4, 0.0972370
1751.99, 0.0975080
1752.59, 0.0975750
1753.18, 0.0977110
1753.77, 0.0976430
1754.37, 0.0975080
1754.96, 0.0974400
1755.56, 0.0973050
1756.15, 0.0971690
1756.74, 0.0970340
1757.34, 0.0971020
1757.94, 0.0971020
1758.53, 0.0970340
1759.13, 0.0974400
1759.73, 0.0975750
1760.32, 0.0972370
1760.92, 0.0968990
1761.52, 0.0972370
1762.12, 0.0974400
1762.72, 0.0976430
1763.32, 0.0978460
1763.92, 0.0975750
1764.52, 0.0972370
1765.12, 0.0973050
1765.72, 0.0973720
1766.32, 0.0972370
1766.92, 0.0971690
1767.53, 0.0975080
1768.13, 0.0977110
1768.73, 0.0976430
1769.34, 0.0975750
1769.94, 0.0974400
1770.55, 0.0973050
1771.15, 0.0972370
1771.76, 0.0975080
1772.36, 0.0977110
1772.97, 0.0975750
1773.57, 0.0974400
1774.18, 0.0975750
1774.79, 0.0978460
1775.4, 0.0977110
1776.0, 0.0976430
1776.61, 0.0975080
1777.22, 0.0975750
1777.83, 0.0973050
1778.44, 0.0972370
1779.05, 0.0976430
1779.66, 0.0980490
1780.27, 0.0980490
1780.88, 0.0978460
1781.5, 0.0975080
1782.11, 0.0974400
1782.72, 0.0978460
1783.33, 0.0979810
1783.95, 0.0977110
1784.56, 0.0976430
1785.18, 0.0977780
1785.79, 0.0979140
1786.41, 0.0979140
1787.02, 0.0979810
1787.64, 0.0981170
1788.26, 0.0979140
1788.87, 0.0977110
1789.49, 0.0975750
1790.11, 0.0975750
1790.73, 0.0976430
1791.35, 0.0975080
1791.96, 0.0976430
1792.58, 0.0979140
1793.21, 0.0979140
1793.83, 0.0979140
1794.45, 0.0977780
1795.07, 0.0978460
1795.69, 0.0977110
1796.31, 0.0975750
1796.93, 0.0975750
1797.56, 0.0979810
1798.18, 0.0982520
1798.8, 0.0977780
1799.43, 0.0974400
1800.05, 0.0977110
1800.68, 0.0979140
1801.3, 0.0983200
1801.93, 0.0984550
1802.56, 0.0981840
1803.18, 0.0981840
1803.81, 0.0983870
1804.44, 0.0982520
1805.07, 0.0980490
1805.7, 0.0980490
1806.33, 0.0981170
1806.95, 0.0983200
1807.58, 0.0983200
1808.22, 0.0981840
1808.85, 0.0982520
1809.48, 0.0984550
1810.11, 0.0983870
1810.74, 0.0983870
1811.38, 0.0983200
1812.01, 0.0986580
1812.64, 0.0987260
1813.28, 0.0985900
1813.91, 0.0983870
1814.55, 0.0981840
1815.18, 0.0981840
1815.82, 0.0983200
1816.45, 0.0983870
1817.09, 0.0983200
1817.73, 0.0981840
1818.36, 0.0983200
1819.0, 0.0981170
1819.64, 0.0980490
1820.28, 0.0982520
1820.92, 0.0983870
1821.56, 0.0985230
1822.2, 0.0985900
1822.84, 0.0986580
1823.48, 0.0988610
1824.12, 0.0989960
1824.76, 0.0989290
1825.41, 0.0985900
1826.05, 0.0985900
1826.69, 0.0989290
1827.34, 0.0989290
1827.98, 0.0987930
1828.63, 0.0986580
1829.27, 0.0985230
1829.92, 0.0983200
1830.56, 0.0985900
1831.21, 0.0989290
1831.86, 0.0987930
1832.5, 0.0987260
1833.15, 0.0989290
1833.8, 0.0989960
1834.45, 0.0987260
1835.1, 0.0985900
1835.75, 0.0985900
1836.4, 0.0986580
1837.05, 0.0986580
1837.7, 0.0989960
1838.35, 0.0993350
1839.01, 0.0991320
1839.66, 0.0987260
1840.31, 0.0986580
1840.96, 0.0988610
1841.62, 0.0987930
1842.27, 0.0990640
1842.93, 0.0993350
1843.58, 0.0990640
1844.24, 0.0988610
1844.9, 0.0988610
1845.55, 0.0989290
1846.21, 0.0985900
1846.87, 0.0987260
1847.53, 0.0989960
1848.18, 0.0990640
1848.84, 0.0991990
1849.5, 0.0991990
1850.16, 0.0990640
1850.82, 0.0989290
1851.48, 0.0990640
1852.14, 0.0991320
1852.81, 0.0989960
1853.47, 0.0991990
1854.13, 0.0995380
1854.8, 0.0996050
1855.46, 0.0994020
1856.12, 0.0990640
1856.79, 0.0991320
1857.45, 0.0994700
1858.12, 0.0994020
1858.79, 0.0991320
1859.45, 0.0990640
1860.12, 0.0991990
1860.79, 0.0991990
1861.46, 0.0994020
1862.12, 0.0991320
1862.79, 0.0990640
1863.46, 0.0992670
1864.13, 0.0995380
1864.8, 0.0995380
1865.48, 0.0994020
1866.15, 0.0992670
1866.82, 0.0991320
1867.49, 0.0989960
1868.16, 0.0990640
1868.84, 0.0991320
1869.51, 0.0992670
1870.19, 0.0992670
1870.86, 0.0992670
1871.54, 0.0995380
1872.21, 0.0994700
1872.89, 0.0991320
1873.56, 0.0992670
1874.24, 0.0994020
1874.92, 0.0992670
1875.6, 0.0992670
1876.28, 0.0994020
1876.96, 0.0994700
1877.64, 0.0996730
1878.32, 0.0996730
1879.0, 0.0993350
1879.68, 0.0993350
1880.36, 0.0994700
1881.04, 0.0996050
1881.73, 0.0996730
1882.41, 0.0996050
1883.09, 0.0996730
1883.78, 0.0995380
1884.46, 0.0994020
1885.15, 0.0996730
1885.83, 0.0997410
1886.52, 0.0994700
1887.21, 0.0996730
1887.89, 0.0996050
1888.58, 0.0995380
1889.27, 0.0997410
1889.96, 0.0996730
1890.65, 0.0997410
1891.34, 0.0998080
1892.03, 0.0996050
1892.72, 0.0998080
1893.41, 0.0999440
1894.1, 0.100079
1894.79, 0.100011
1895.49, 0.100011
1896.18, 0.0999440
1896.87, 0.100079
1897.57, 0.100011
1898.26, 0.0998760
1898.96, 0.0998080
1899.65, 0.0996730
1900.35, 0.0997410
1901.05, 0.100011
1901.74, 0.100011
1902.44, 0.0998760
1903.14, 0.100079
1903.84, 0.100350
1904.54, 0.100079
1905.24, 0.100079
1905.94, 0.100079
1906.64, 0.100011
1907.34, 0.100214
1908.04, 0.100214
1908.75, 0.100282
1909.45, 0.100485
1910.15, 0.100553
1910.86, 0.100214
1911.56, 0.0999440
1912.27, 0.100147
1912.97, 0.100350
1913.68, 0.100553
1914.39, 0.100553
1915.09, 0.100282
1915.8, 0.100214
1916.51, 0.100553
1917.22, 0.100688
1917.93, 0.100485
1918.64, 0.100350
1919.35, 0.100282
1920.06, 0.100147
1920.77, 0.100214
1921.48, 0.100553
1922.19, 0.100620
1922.91, 0.100688
1923.62, 0.100553
1924.33, 0.100417
1925.05, 0.100485
1925.76, 0.100485
1926.48, 0.100688
1927.19, 0.100756
1927.91, 0.100823
1928.63, 0.100756
1929.35, 0.100485
1930.07, 0.100417
1930.78, 0.100756
1931.5, 0.100756
1932.22, 0.100553
1932.94, 0.100485
1933.66, 0.100620
1934.39, 0.100891
1935.11, 0.100823
1935.83, 0.100823
1936.55, 0.100891
1937.28, 0.100688
1938.0, 0.100417
1938.73, 0.100620
1939.45, 0.100756
1940.18, 0.100688
1940.9, 0.100756
1941.63, 0.100891
1942.36, 0.100891
1943.09, 0.100891
1943.81, 0.100959
1944.54, 0.100823
1945.27, 0.100756
1946.0, 0.100891
1946.73, 0.100959
1947.47, 0.101162
1948.2, 0.101229
1948.93, 0.101500
1949.66, 0.101432
1950.4, 0.101094
1951.13, 0.100959
1951.86, 0.100688
1952.6, 0.100756
1953.34, 0.101026
1954.07, 0.100891
1954.81, 0.100823
1955.55, 0.100823
1956.29, 0.101094
1957.02, 0.101162
1957.76, 0.101162
1958.5, 0.101026
1959.24, 0.100756
1959.98, 0.100620
1960.72, 0.100688
1961.47, 0.100959
1962.21, 0.101026
1962.95, 0.101162
1963.7, 0.100959
1964.44, 0.100756
1965.18, 0.100891
1965.93, 0.100959
1966.67, 0.100823
1967.42, 0.100756
1968.17, 0.100823
1968.92, 0.100688
1969.66, 0.100756
1970.41, 0.100891
1971.16, 0.101094
1971.91, 0.100891
1972.66, 0.100959
1973.41, 0.101026
1974.16, 0.101026
1974.92, 0.101094
1975.67, 0.101229
1976.42, 0.101229
1977.18, 0.100959
1977.93, 0.100891
1978.69, 0.101229
1979.44, 0.101297
1980.2, 0.101094
1980.95, 0.101094
1981.71, 0.101094
1982.47, 0.101094
1983.23, 0.101162
1983.99, 0.101297
1984.74, 0.101297
1985.51, 0.101229
1986.27, 0.101229
1987.03, 0.101297
1987.79, 0.101500
1988.55, 0.101568
1989.32, 0.101432
1990.08, 0.101568
1990.84, 0.101568
1991.61, 0.101365
1992.37, 0.101297
1993.14, 0.101432
1993.9, 0.101432
1994.67, 0.101365
1995.44, 0.101365
1996.21, 0.101568
1996.98, 0.101568
1997.75, 0.101365
1998.52, 0.101229
1999.29, 0.101297
2000.06, 0.101365
2000.83, 0.101500
2001.6, 0.101568
2002.38, 0.101635
2003.15, 0.101635
2003.93, 0.101703
2004.7, 0.101703
2005.48, 0.101635
2006.25, 0.101635
2007.03, 0.101771
2007.81, 0.101906
2008.58, 0.101838
2009.36, 0.101838
2010.14, 0.101906
2010.92, 0.101703
2011.7, 0.101568
2012.48, 0.101771
2013.26, 0.101974
2014.05, 0.102177
2014.83, 0.101974
2015.61, 0.101771
2016.4, 0.101771
2017.18, 0.101906
2017.97, 0.101974
2018.75, 0.101906
2019.54, 0.101974
2020.32, 0.101974
2021.11, 0.101838
2021.9, 0.101906
2022.69, 0.102177
2023.48, 0.102177
2024.27, 0.102041
2025.06, 0.102109
2025.85, 0.102177
2026.64, 0.101974
2027.44, 0.101906
2028.23, 0.102109
2029.02, 0.102177
2029.82, 0.102041
2030.61, 0.102244
2031.41, 0.102109
2032.2, 0.101974
2033.0, 0.102177
2033.8, 0.102041
2034.6, 0.101771
2035.4, 0.101974
2036.2, 0.102244
2037.0, 0.102177
2037.8, 0.102177
2038.6, 0.102041
2039.4, 0.102109
2040.2, 0.102244
2041.01, 0.101906
2041.81, 0.101703
2042.61, 0.101838
2043.42, 0.101906
2044.22, 0.101838
2045.03, 0.101906
2045.84, 0.102041
2046.65, 0.102109
2047.46, 0.101974
2048.26, 0.101906
2049.07, 0.101838
2049.88, 0.101838
2050.69, 0.101771
2051.51, 0.101838
2052.32, 0.101771
2053.13, 0.101703
2053.94, 0.101974
2054.76, 0.102041
2055.57, 0.101635
2056.39, 0.101635
2057.2, 0.101906
2058.02, 0.102041
2058.84, 0.101906
2059.66, 0.101974
2060.48, 0.102109
2061.29, 0.101974
2062.11, 0.101906
2062.94, 0.101906
2063.76, 0.101906
2064.58, 0.101906
2065.4, 0.101906
2066.22, 0.101906
2067.05, 0.101838
2067.87, 0.101771
2068.7, 0.101838
2069.52, 0.101906
2070.35, 0.102041
2071.18, 0.102041
2072.0, 0.102109
2072.83, 0.102109
2073.66, 0.102177
2074.49, 0.102109
2075.32, 0.102041
2076.15, 0.102109
2076.98, 0.102109
2077.82, 0.102109
2078.65, 0.102109
2079.48, 0.102109
2080.32, 0.102041
2081.15, 0.102109
2081.99, 0.102109
2082.83, 0.101771
2083.66, 0.101635
2084.5, 0.101771
2085.34, 0.101838
2086.18, 0.102041
2087.02, 0.102244
2087.86, 0.102380
2088.7, 0.102380
2089.54, 0.102177
2090.39, 0.102109
2091.23, 0.102041
2092.07, 0.101974
2092.92, 0.101906
2093.76, 0.102041
2094.61, 0.102244
2095.45, 0.102312
2096.3, 0.102312
2097.15, 0.102109
2098.0, 0.102244
2098.85, 0.102380
2099.7, 0.102447
2100.55, 0.102583
2101.4, 0.102583
2102.25, 0.102380
2103.1, 0.102515
2103.96, 0.102515
2104.81, 0.102515
2105.67, 0.102718
2106.52, 0.102650
2107.38, 0.102650
2108.24, 0.102650
2109.09, 0.102583
2109.95, 0.102650
2110.81, 0.102718
2111.67, 0.102786
2112.53, 0.103056
2113.39, 0.102989
2114.25, 0.102786
2115.12, 0.102650
2115.98, 0.102650
2116.84, 0.102718
2117.71, 0.102853
2118.58, 0.102853
2119.44, 0.102853
2120.31, 0.102718
2121.18, 0.102718
2122.04, 0.102718
2122.91, 0.102650
2123.78, 0.102786
2124.65, 0.102853
2125.52, 0.102921
2126.4, 0.102989
2127.27, 0.103124
2128.14, 0.103056
2129.02, 0.102921
2129.89, 0.102853
2130.77, 0.102853
2131.64, 0.102786
2132.52, 0.102718
2133.4, 0.102718
2134.27, 0.102718
2135.15, 0.102718
2136.03, 0.102786
2136.91, 0.102853
2137.79, 0.102921
2138.68, 0.102989
2139.56, 0.103056
2140.44, 0.103056
2141.33, 0.103056
2142.21, 0.103124
2143.1, 0.103259
2143.99, 0.103192
2144.87, 0.102989
2145.76, 0.102650
2146.65, 0.102583
2147.54, 0.102718
2148.43, 0.102718
2149.32, 0.102515
2150.21, 0.102650
2151.1, 0.102786
2151.99, 0.102853
2152.89, 0.102718
2153.78, 0.102786
2154.68, 0.102786
2155.57, 0.102718
2156.47, 0.102583
2157.37, 0.102515
2158.27, 0.102515
2159.16, 0.102583
2160.06, 0.102583
2160.96, 0.102583
2161.86, 0.102718
2162.77, 0.102718
2163.67, 0.102718
2164.57, 0.102650
2165.48, 0.102650
2166.38, 0.102786
2167.29, 0.102650
2168.2, 0.102650
2169.1, 0.102718
2170.01, 0.102718
2170.92, 0.102583
2171.83, 0.102583
2172.74, 0.102650
2173.65, 0.102650
2174.56, 0.102718
2175.47, 0.102650
2176.39, 0.102650
2177.3, 0.102786
2178.22, 0.102786
2179.13, 0.102583
2180.05, 0.102583
2180.96, 0.102650
2181.88, 0.102718
2182.8, 0.102853
2183.72, 0.102786
2184.64, 0.102650
2185.56, 0.102583
2186.48, 0.102515
2187.41, 0.102447
2188.33, 0.102650
2189.25, 0.102718
2190.18, 0.102447
2191.1, 0.102244
2192.03, 0.102312
2192.96, 0.102380
2193.89, 0.102515
2194.82, 0.102583
2195.74, 0.102515
2196.68, 0.102650
2197.61, 0.102921
2198.54, 0.102786
2199.47, 0.102583
2200.4, 0.102380
2201.34, 0.102515
2202.28, 0.102650
2203.21, 0.102718
2204.15, 0.102718
2205.08, 0.102853
2206.02, 0.102921
2206.96, 0.102786
2207.9, 0.102650
2208.84, 0.102718
2209.78, 0.102921
2210.73, 0.102921
2211.67, 0.102718
2212.61, 0.102853
2213.56, 0.102921
2214.5, 0.102718
2215.45, 0.102921
2216.4, 0.103259
2217.35, 0.103259
2218.3, 0.103124
2219.24, 0.102989
2220.2, 0.103124
2221.15, 0.103124
2222.1, 0.103056
2223.05, 0.102921
2224.0, 0.103056
2224.96, 0.103124
2225.91, 0.103056
2226.87, 0.103056
2227.83, 0.103327
2228.79, 0.103395
2229.74, 0.103259
2230.7, 0.103192
2231.66, 0.103259
2232.63, 0.103259
2233.59, 0.103259
2234.55, 0.103327
2235.51, 0.103259
2236.48, 0.103124
2237.44, 0.103259
2238.41, 0.103462
2239.38, 0.103395
2240.34, 0.103327
2241.31, 0.103462
2242.28, 0.103665
2243.25, 0.103598
2244.22, 0.103462
2245.19, 0.103462
2246.17, 0.103530
2247.14, 0.103665
2248.12, 0.103530
2249.09, 0.103462
2250.07, 0.103327
2251.04, 0.103174
2252.02, 0.103022
2253.0, 0.103022
2253.98, 0.102793
2254.96, 0.102946
2255.94, 0.103479
2256.92, 0.103479
2257.91, 0.103708
2258.89, 0.104013
2259.88, 0.103403
2260.86, 0.103556
2261.85, 0.104013
2262.83, 0.103937
2263.82, 0.104013
2264.81, 0.103784
2265.8, 0.103632
2266.79, 0.103556
2267.78, 0.103784
2268.78, 0.103632
2269.77, 0.103632
2270.76, 0.103708
2271.76, 0.103708
2272.75, 0.103022
2273.75, 0.102793
2274.75, 0.103403
2275.75, 0.104166
2276.75, 0.104166
2277.75, 0.103708
2278.75, 0.103251
2279.75, 0.103098
2280.75, 0.103251
2281.76, 0.103556
2282.76, 0.103556
2283.77, 0.103632
2284.77, 0.103556
2285.78, 0.103479
2286.79, 0.103708
2287.8, 0.103861
2288.81, 0.103403
2289.82, 0.103479
2290.83, 0.103556
2291.84, 0.103174
2292.86, 0.103479
2293.87, 0.103937
2294.89, 0.103937
2295.91, 0.104013
2296.92, 0.103937
2297.94, 0.104013
2298.96, 0.104318
2299.98, 0.104547
2301.0, 0.104471
2302.02, 0.104242
2303.04, 0.104166
2304.07, 0.104013
2305.09, 0.104013
2306.12, 0.104013
2307.15, 0.104013
2308.17, 0.104242
2309.2, 0.104242
2310.23, 0.104089
2311.26, 0.104318
2312.29, 0.104166
2313.32, 0.103861
2314.35, 0.104166
2315.39, 0.104471
2316.42, 0.104471
2317.46, 0.104318
2318.5, 0.104089
2319.53, 0.104089
2320.57, 0.104242
2321.61, 0.104242
2322.65, 0.104242
2323.69, 0.104471
2324.73, 0.104852
2325.78, 0.104928
2326.82, 0.104852
2327.86, 0.104776
2328.91, 0.104776
2329.96, 0.104776
2331.01, 0.104623
2332.05, 0.104623
2333.1, 0.105081
2334.15, 0.105462
2335.21, 0.105691
2336.26, 0.105386
2337.31, 0.105081
2338.36, 0.105157
2339.42, 0.105310
2340.48, 0.105462
2341.53, 0.105386
2342.59, 0.105157
2343.65, 0.105081
2344.71, 0.105081
2345.77, 0.104699
2346.83, 0.104623
2347.9, 0.105081
2348.96, 0.105386
2350.02, 0.104928
2351.09, 0.104776
2352.16, 0.104928
2353.23, 0.104699
2354.29, 0.104928
2355.36, 0.105157
2356.43, 0.104852
2357.51, 0.104699
2358.58, 0.104776
2359.65, 0.105310
2360.73, 0.105462
2361.8, 0.105310
2362.88, 0.105386
2363.96, 0.105233
2365.03, 0.104852
2366.11, 0.104776
2367.19, 0.105081
2368.27, 0.105310
2369.36, 0.105157
2370.44, 0.105004
2371.53, 0.105081
2372.61, 0.104928
2373.7, 0.105081
2374.78, 0.105004
2375.87, 0.105157
2376.96, 0.105538
2378.05, 0.105462
2379.14, 0.105538
2380.24, 0.105386
2381.33, 0.105157
2382.42, 0.105233
2383.52, 0.105386
2384.61, 0.105538
2385.71, 0.105538
2386.81, 0.105310
2387.91, 0.105157
2389.01, 0.105310
2390.11, 0.105386
2391.22, 0.105538
2392.32, 0.105843
2393.42, 0.106072
2394.53, 0.105843
2395.64, 0.105691
2396.74, 0.105767
2397.85, 0.105843
2398.96, 0.105920
2400.07, 0.105691
2401.18, 0.105310
2402.3, 0.105386
2403.41, 0.105691
2404.52, 0.105843
2405.64, 0.105920
2406.76, 0.105615
2407.88, 0.105462
2408.99, 0.105538
2410.11, 0.105691
2411.23, 0.105767
2412.36, 0.105843
2413.48, 0.105920
2414.6, 0.105843
2415.73, 0.105386
2416.85, 0.105386
2417.98, 0.105691
2419.11, 0.105996
2420.24, 0.106301
2421.37, 0.106453
2422.5, 0.106530
2423.64, 0.106377
2424.77, 0.106301
2425.9, 0.106453
2427.04, 0.106530
2428.18, 0.106377
2429.31, 0.106148
2430.45, 0.105996
2431.59, 0.105920
2432.73, 0.105996
2433.88, 0.106301
2435.02, 0.106225
2436.16, 0.106072
2437.31, 0.106148
2438.45, 0.106148
2439.6, 0.106225
2440.75, 0.106301
2441.9, 0.106225
2443.05, 0.105996
2444.2, 0.105920
2445.35, 0.106301
2446.51, 0.106453
2447.67, 0.106377
2448.82, 0.106377
2449.98, 0.106377
2451.14, 0.106148
2452.3, 0.106225
2453.46, 0.106377
2454.62, 0.106377
2455.78, 0.106453
2456.94, 0.106301
2458.11, 0.105996
2459.28, 0.105996
2460.44, 0.106301
2461.61, 0.106225
2462.78, 0.106148
2463.95, 0.106301
2465.12, 0.106301
2466.3, 0.106225
2467.47, 0.106225
2468.65, 0.106606
2469.82, 0.106835
2471.0, 0.106530
2472.18, 0.106453
2473.36, 0.106530
2474.54, 0.106606
2475.72, 0.106911
2476.9, 0.106606
2478.08, 0.106453
2479.27, 0.106682
2480.46, 0.107063
2481.64, 0.106987
2482.83, 0.106682
2484.02, 0.107063
2485.21, 0.107445
2486.4, 0.107292
2487.6, 0.107063
2488.79, 0.106758
2489.99, 0.106987
2491.18, 0.107140
2492.38, 0.106911
2493.58, 0.107140
2494.78, 0.107368
2495.98, 0.106987
2497.18, 0.106835
2498.39, 0.106987
2499.59, 0.106835
2500.8, 0.106911
2502.01, 0.106987
2503.21, 0.107292
2504.42, 0.107292
2505.63, 0.107292
2506.84, 0.107140
2508.06, 0.107063
2509.27, 0.107292
2510.49, 0.107445
2511.7, 0.107368
2512.92, 0.107063
2514.14, 0.107063
2515.36, 0.107216
2516.58, 0.107445
2517.8, 0.107292
2519.03, 0.106911
2520.25, 0.107140
2521.48, 0.107368
2522.7, 0.107521
2523.93, 0.107673
2525.16, 0.107521
2526.39, 0.107216
2527.62, 0.107140
2528.86, 0.107063
2530.09, 0.107063
2531.33, 0.107216
2532.56, 0.107216
2533.8, 0.107216
2535.04, 0.107140
2536.28, 0.107216
2537.52, 0.107521
2538.76, 0.107597
2540.01, 0.107445
2541.25, 0.107292
2542.5, 0.107140
2543.75, 0.107216
2544.99, 0.107445
2546.24, 0.107521
2547.49, 0.107368
2548.75, 0.107368
2550.0, 0.107445
2551.26, 0.107368
2552.51, 0.107140
2553.77, 0.107521
2555.03, 0.107597
2556.29, 0.107368
2557.55, 0.107368
2558.81, 0.107445
2560.08, 0.107063
2561.34, 0.106606
2562.61, 0.106682
2563.88, 0.106835
2565.14, 0.107216
2566.41, 0.107597
2567.68, 0.107597
2568.96, 0.107292
2570.23, 0.107368
2571.51, 0.107368
2572.78, 0.106758
2574.06, 0.107216
2575.34, 0.107521
2576.62, 0.107368
2577.9, 0.107521
2579.18, 0.107292
2580.47, 0.106911
2581.75, 0.107140
2583.04, 0.106758
2584.32, 0.106911
2585.61, 0.107521
2586.9, 0.107368
2588.2, 0.107140
2589.49, 0.107140
2590.78, 0.107597
2592.08, 0.107521
2593.37, 0.105843
2594.67, 0.104547
2595.97, 0.105767
2597.27, 0.107216
2598.57, 0.107978
2599.88, 0.107750
2601.18, 0.107368
2602.49, 0.107292
2603.79, 0.106835
2605.1, 0.106377
2606.41, 0.106758
2607.72, 0.107368
2609.03, 0.107673
2610.35, 0.107902
2611.66, 0.107750
2612.98, 0.107673
2614.3, 0.107750
2615.62, 0.107140
2616.94, 0.106911
2618.26, 0.107216
2619.58, 0.106453
2620.91, 0.106911
2622.23, 0.108055
2623.56, 0.108207
2624.89, 0.107673
2626.22, 0.107063
2627.55, 0.107521
2628.88, 0.107368
2630.21, 0.106606
2631.55, 0.107063
2632.89, 0.107368
2634.22, 0.107597
2635.56, 0.108131
2636.9, 0.108436
2638.25, 0.108207
2639.59, 0.108055
2640.93, 0.108283
2642.28, 0.108589
2643.63, 0.108589
2644.98, 0.108055
2646.33, 0.108055
2647.68, 0.108512
2649.03, 0.108817
2650.39, 0.108589
2651.74, 0.108207
2653.1, 0.108131
2654.46, 0.108283
2655.82, 0.108360
2657.18, 0.108512
2658.54, 0.108131
2659.9, 0.108207
2661.27, 0.108436
2662.64, 0.108436
2664.01, 0.107445
2665.38, 0.106453
2666.74, 0.106758
2668.12, 0.107597
2669.49, 0.106682
2670.87, 0.106758
2672.24, 0.108283
2673.62, 0.108589
2675.0, 0.107978
2676.38, 0.107445
2677.76, 0.107673
2679.15, 0.108055
2680.54, 0.108589
2681.92, 0.108665
2683.31, 0.108589
2684.7, 0.108817
2686.09, 0.108741
2687.48, 0.108894
2688.88, 0.109122
2690.27, 0.108894
2691.67, 0.108512
2693.07, 0.107750
2694.47, 0.107673
2695.87, 0.108436
2697.27, 0.108970
2698.67, 0.109122
2700.08, 0.109046
2701.49, 0.109046
2702.9, 0.109199
2704.31, 0.109275
2705.72, 0.109046
2707.13, 0.108817
2708.54, 0.108436
2709.96, 0.107826
2711.38, 0.108131
2712.8, 0.109275
2714.22, 0.109580
2715.64, 0.109351
2717.06, 0.108970
2718.49, 0.108512
2719.91, 0.107445
2721.34, 0.107826
2722.77, 0.107978
2724.2, 0.107597
2725.63, 0.108283
2727.07, 0.109122
2728.5, 0.109427
2729.94, 0.109504
2731.38, 0.109504
2732.82, 0.109046
2734.26, 0.108665
2735.7, 0.108894
2737.15, 0.108817
2738.59, 0.107826
2740.04, 0.107597
2741.49, 0.108360
2742.94, 0.109275
2744.39, 0.109351
2745.84, 0.109046
2747.3, 0.109122
2748.76, 0.109199
2750.21, 0.109046
2751.67, 0.108817
2753.14, 0.108436
2754.6, 0.107445
2756.06, 0.107521
2757.53, 0.108741
2759.0, 0.109275
2760.46, 0.109046
2761.94, 0.108665
2763.41, 0.108512
2764.88, 0.108589
2766.36, 0.108512
2767.83, 0.108436
2769.31, 0.108512
2770.79, 0.108360
2772.27, 0.108512
2773.76, 0.108665
2775.24, 0.108665
2776.73, 0.108665
2778.22, 0.108589
2779.71, 0.108436
2781.2, 0.108360
2782.69, 0.108436
2784.18, 0.108360
2785.68, 0.107978
2787.18, 0.107750
2788.68, 0.107978
2790.18, 0.108131
2791.68, 0.108207
2793.19, 0.108207
2794.69, 0.108131
2796.2, 0.107978
2797.71, 0.108207
2799.22, 0.108207
2800.73, 0.107826
2802.24, 0.107292
2803.76, 0.107368
2805.28, 0.107673
2806.8, 0.107826
2808.32, 0.107826
2809.84, 0.107521
2811.36, 0.107445
2812.89, 0.107750
2814.42, 0.107597
2815.94, 0.107292
2817.48, 0.107292
2819.01, 0.107063
2820.54, 0.107063
2822.08, 0.107368
2823.61, 0.107597
2825.15, 0.107597
2826.69, 0.107521
2828.23, 0.107445
2829.78, 0.107216
2831.32, 0.107216
2832.87, 0.107292
2834.42, 0.107292
2835.97, 0.107445
2837.52, 0.107292
2839.08, 0.107063
2840.63, 0.106911
2842.19, 0.107216
2843.75, 0.107445
2845.31, 0.107292
2846.87, 0.107063
2848.44, 0.107063
2850.0, 0.107140
2851.57, 0.107063
2853.14, 0.106758
2854.71, 0.106606
2856.28, 0.106835
2857.86, 0.106835
2859.43, 0.106911
2861.01, 0.106987
2862.59, 0.106835
2864.17, 0.106835
2865.76, 0.106911
2867.34, 0.106682
2868.93, 0.106453
2870.52, 0.106453
2872.11, 0.106530
2873.7, 0.106530
2875.29, 0.106377
2876.89, 0.106225
2878.49, 0.106148
2880.08, 0.106225
2881.69, 0.106453
2883.29, 0.106453
2884.89, 0.106072
2886.5, 0.105843
2888.11, 0.105691
2889.72, 0.105615
2891.33, 0.105615
2892.94, 0.105615
2894.56, 0.105462
2896.17, 0.105386
2897.79, 0.105310
2899.42, 0.105004
2901.04, 0.104852
2902.66, 0.104852
2904.29, 0.104928
2905.92, 0.105081
2907.55, 0.104928
2909.18, 0.104699
2910.81, 0.104547
2912.45, 0.104471
2914.08, 0.104318
2915.72, 0.104166
2917.36, 0.104089
2919.01, 0.104166
2920.65, 0.104089
2922.3, 0.104013
2923.94, 0.104089
2925.59, 0.103861
2927.25, 0.103632
2928.9, 0.103632
2930.56, 0.103556
2932.21, 0.103327
2933.87, 0.103174
2935.53, 0.103022
2937.2, 0.103098
2938.86, 0.103022
2940.53, 0.102793
2942.2, 0.102641
2943.87, 0.102869
2945.54, 0.102793
2947.22, 0.102641
2948.89, 0.102412
2950.57, 0.102259
2952.25, 0.102107
2953.93, 0.102031
2955.62, 0.102031
2957.3, 0.101878
2958.99, 0.101802
2960.68, 0.101954
2962.37, 0.101954
2964.07, 0.101725
2965.76, 0.101725
2967.46, 0.101802
2969.16, 0.101725
2970.86, 0.101725
2972.56, 0.101497
2974.27, 0.101344
2975.98, 0.101344
2977.69, 0.101268
2979.4, 0.101268
2981.11, 0.101420
2982.83, 0.101344
2984.54, 0.101115
2986.26, 0.101115
2987.98, 0.101268
2989.71, 0.101192
2991.43, 0.101039
2993.16, 0.100887
2994.89, 0.100810
2996.62, 0.100887
2998.35, 0.101115
3000.09, 0.101192
3001.83, 0.101268
3003.57, 0.101344
3005.31, 0.101344
3007.05, 0.101344
3008.79, 0.101192
3010.54, 0.101192
3012.29, 0.101344
3014.04, 0.101344
3015.8, 0.101268
3017.55, 0.101497
3019.31, 0.101573
3021.07, 0.101268
3022.83, 0.101344
3024.59, 0.101573
3026.36, 0.101497
3028.13, 0.101420
3029.9, 0.101497
3031.67, 0.101649
3033.44, 0.101649
3035.22, 0.101649
3037.0, 0.101725
3038.78, 0.101802
3040.56, 0.101725
3042.34, 0.101573
3044.13, 0.101649
3045.92, 0.101802
3047.71, 0.101725
3049.5, 0.101878
3051.3, 0.102031
3053.09, 0.102183
3054.89, 0.102183
3056.69, 0.102183
3058.5, 0.102107
3060.3, 0.102107
3062.11, 0.102107
3063.92, 0.102259
3065.73, 0.102488
3067.55, 0.102412
3069.36, 0.102412
3071.18, 0.102564
3073.0, 0.102488
3074.82, 0.102259
3076.65, 0.102412
3078.48, 0.102488
3080.31, 0.102488
3082.14, 0.102412
3083.97, 0.102488
3085.8, 0.102641
3087.64, 0.102564
3089.48, 0.102641
3091.33, 0.102946
3093.17, 0.102946
3095.02, 0.102869
3096.87, 0.102793
3098.72, 0.102869
3100.57, 0.103098
3102.43, 0.103098
3104.28, 0.103098
3106.14, 0.103098
3108.01, 0.102946
3109.87, 0.102869
3111.74, 0.102869
3113.61, 0.103174
3115.48, 0.103327
3117.35, 0.103327
3119.23, 0.103327
3121.1, 0.103327
3122.98, 0.103327
3124.87, 0.103403
3126.75, 0.103479
3128.64, 0.103556
3130.53, 0.103556
3132.42, 0.103556
3134.31, 0.103632
3136.21, 0.103708
3138.11, 0.103632
3140.01, 0.103556
3141.91, 0.103479
3143.82, 0.103784
3145.73, 0.103937
3147.64, 0.103784
3149.55, 0.103861
3151.46, 0.103937
3153.38, 0.103937
3155.3, 0.104089
3157.22, 0.104166
3159.14, 0.104089
3161.07, 0.104089
3163.0, 0.104166
3164.93, 0.104089
3166.86, 0.103937
3168.8, 0.104089
3170.74, 0.104318
3172.68, 0.104394
3174.62, 0.104394
3176.56, 0.104394
3178.51, 0.104471
3180.46, 0.104623
3182.42, 0.104699
3184.37, 0.104699
3186.33, 0.104776
3188.29, 0.104852
3190.25, 0.104852
3192.21, 0.104852
3194.18, 0.104928
3196.15, 0.105157
3198.12, 0.105081
3200.09, 0.105004
3202.07, 0.105157
3204.05, 0.105157
3206.03, 0.105157
3208.02, 0.105081
3210.0, 0.105157
3211.99, 0.105081
3213.98, 0.105233
3215.98, 0.105462
3217.97, 0.105462
3219.97, 0.105386
3221.97, 0.105386
3223.98, 0.105386
3225.98, 0.105615
3227.99, 0.105691
3230.0, 0.105538
3232.02, 0.105538
3234.03, 0.105615
3236.05, 0.105538
3238.07, 0.105615
3240.1, 0.105615
3242.12, 0.105538
3244.15, 0.105691
3246.18, 0.105920
3248.22, 0.105996
3250.25, 0.106072
3252.29, 0.106072
3254.33, 0.106148
3256.38, 0.106301
3258.43, 0.106301
3260.47, 0.106225
3262.53, 0.106301
3264.58, 0.106453
3266.64, 0.106530
3268.7, 0.106453
3270.76, 0.106453
3272.82, 0.106606
3274.89, 0.106530
3276.96, 0.106453
3279.04, 0.106530
3281.11, 0.106606
3283.19, 0.106758
3285.27, 0.106835
3287.35, 0.106911
3289.44, 0.106835
3291.53, 0.106987
3293.62, 0.107140
3295.71, 0.107216
3297.81, 0.107140
3299.91, 0.107216
3302.01, 0.107292
3304.11, 0.107216
3306.22, 0.107216
3308.33, 0.107368
3310.44, 0.107521
3312.56, 0.107521
3314.68, 0.107521
3316.8, 0.107521
3318.92, 0.107597
3321.05, 0.107673
3323.18, 0.107521
3325.31, 0.107521
3327.44, 0.107673
3329.58, 0.107673
3331.72, 0.107826
3333.86, 0.107902
3336.01, 0.107902
3338.16, 0.107978
3340.31, 0.107902
3342.46, 0.107978
3344.61, 0.107978
3346.77, 0.107978
3348.94, 0.108055
3351.1, 0.108283
3353.27, 0.108283
3355.44, 0.108207
3357.61, 0.108207
3359.79, 0.108360
3361.97, 0.108283
3364.15, 0.108283
3366.33, 0.108512
3368.52, 0.108512
3370.71, 0.108436
3372.9, 0.108512
3375.1, 0.108512
3377.3, 0.108665
3379.5, 0.108817
3381.71, 0.108894
3383.91, 0.108894
3386.12, 0.108741
3388.34, 0.108665
3390.55, 0.108665
3392.77, 0.108741
3394.99, 0.108894
3397.22, 0.108894
3399.45, 0.108741
3401.68, 0.108665
3403.91, 0.108741
3406.15, 0.108741
3408.39, 0.108894
3410.63, 0.109046
3412.87, 0.109122
3415.12, 0.109199
3417.37, 0.109351
3419.63, 0.109351
3421.88, 0.109427
3424.14, 0.109427
3426.41, 0.109427
3428.67, 0.109427
3430.94, 0.109504
3433.21, 0.109580
3435.49, 0.109504
3437.77, 0.109580
3440.05, 0.109809
3442.33, 0.109809
3444.62, 0.109809
3446.91, 0.109885
3449.2, 0.110037
3451.5, 0.110114
3453.8, 0.110037
3456.1, 0.110037
3458.41, 0.109961
3460.72, 0.110037
3463.03, 0.110190
3465.34, 0.110190
3467.66, 0.110266
3469.98, 0.110495
3472.31, 0.110419
3474.63, 0.110419
3476.96, 0.110495
3479.3, 0.110571
3481.64, 0.110495
3483.97, 0.110495
3486.32, 0.110419
3488.66, 0.110342
3491.01, 0.110419
3493.36, 0.110495
3495.72, 0.110495
3498.08, 0.110571
3500.44, 0.110724
3502.81, 0.110800
3505.18, 0.110800
3507.55, 0.110800
3509.92, 0.110800
3512.3, 0.110647
3514.68, 0.110647
3517.06, 0.110724
3519.45, 0.110800
3521.84, 0.110876
3524.24, 0.110876
3526.64, 0.110800
3529.04, 0.110800
3531.44, 0.110800
3533.85, 0.110952
3536.26, 0.111105
3538.67, 0.111181
3541.09, 0.111181
3543.51, 0.111257
3545.93, 0.111105
3548.36, 0.111105
3550.79, 0.111105
3553.22, 0.111181
3555.66, 0.111334
3558.1, 0.111410
3560.54, 0.111257
3562.99, 0.111029
3565.44, 0.111181
3567.9, 0.111181
3570.35, 0.111334
3572.81, 0.111334
3575.28, 0.111334
3577.75, 0.111486
3580.22, 0.111410
3582.69, 0.111334
3585.17, 0.111486
3587.65, 0.111639
3590.14, 0.111562
3592.62, 0.111639
3595.11, 0.111715
3597.61, 0.111868
3600.11, 0.111791
3602.61, 0.111715
3605.11, 0.111791
3607.62, 0.111868
3610.14, 0.111791
3612.65, 0.111715
3615.17, 0.111715
3617.69, 0.111791
3620.22, 0.111944
3622.75, 0.111868
3625.28, 0.111944
3627.82, 0.112020
3630.36, 0.111944
3632.9, 0.112020
3635.45, 0.112096
3638.0, 0.112173
3640.56, 0.112173
3643.12, 0.112096
3645.68, 0.112173
3648.24, 0.112249
3650.81, 0.112173
3653.39, 0.112173
3655.96, 0.112401
3658.54, 0.112325
3661.13, 0.112249
3663.71, 0.112325
3666.3, 0.112325
3668.9, 0.112325
3671.5, 0.112478
3674.1, 0.112554
3676.7, 0.112478
3679.31, 0.112325
3681.93, 0.112401
3684.54, 0.112554
3687.17, 0.112478
3689.79, 0.112630
3692.42, 0.112706
3695.05, 0.112783
3697.69, 0.112706
3700.32, 0.112783
3702.97, 0.112859
3705.61, 0.112783
3708.27, 0.112783
3710.92, 0.112859
3713.58, 0.112859
3716.24, 0.112935
3718.91, 0.113011
3721.58, 0.112935
3724.25, 0.112935
3726.93, 0.113011
3729.61, 0.113088
3732.29, 0.113240
3734.98, 0.113240
3737.67, 0.113240
3740.37, 0.113240
3743.07, 0.113240
3745.78, 0.113316
3748.49, 0.113316
3751.2, 0.113469
3753.91, 0.113545
3756.63, 0.113545
3759.36, 0.113545
3762.09, 0.113545
3764.82, 0.113545
3767.55, 0.113545
3770.29, 0.113621
3773.04, 0.113698
3775.78, 0.113774
3778.54, 0.113698
3781.29, 0.113698
3784.05, 0.113774
3786.82, 0.113774
3789.59, 0.113774
3792.36, 0.113698
3795.13, 0.113621
3797.92, 0.113698
3800.7, 0.113774
3803.49, 0.113850
3806.28, 0.113926
3809.08, 0.113926
3811.88, 0.113850
3814.68, 0.113850
3817.49, 0.113850
3820.31, 0.113698
3823.12, 0.113774
3825.94, 0.113850
3828.77, 0.113850
3831.6, 0.113850
3834.43, 0.113850
3837.27, 0.113850
3840.11, 0.113774
3842.96, 0.113774
3845.81, 0.113774
3848.67, 0.113850
3851.53, 0.113774
3854.39, 0.113774
3857.26, 0.113698
3860.13, 0.113621
3863.01, 0.113774
3865.89, 0.114003
3868.77, 0.113926
3871.66, 0.113698
3874.55, 0.113774
3877.45, 0.113926
3880.35, 0.113926
3883.26, 0.114003
3886.17, 0.113926
3889.09, 0.113850
3892.01, 0.113774
3894.93, 0.113850
3897.86, 0.113774
3900.79, 0.113774
3903.73, 0.113774
3906.67, 0.113850
3909.62, 0.113850
3912.57, 0.113850
3915.52, 0.113926
3918.48, 0.114003
3921.45, 0.114079
3924.42, 0.114231
3927.39, 0.114231
3930.37, 0.114155
3933.35, 0.114079
3936.34, 0.114079
3939.33, 0.114155
3942.32, 0.114155
3945.32, 0.114231
3948.33, 0.114308
3951.34, 0.114231
3954.35, 0.114308
3957.37, 0.114308
3960.39, 0.114231
3963.42, 0.114231
3966.45, 0.114231
3969.49, 0.114231
3972.53, 0.114384
3975.58, 0.114384
3978.63, 0.114460
3981.68, 0.114536
3984.75, 0.114536
3987.81, 0.114536
3990.88, 0.114689
3993.95, 0.114689
3997.03, 0.114613
4000.12, 0.114384
4003.21, 0.114536
4006.3, 0.114689
4009.4, 0.114765
4012.5, 0.114765
4015.61, 0.114765
4018.72, 0.114842
4021.84, 0.114994
4024.96, 0.115070
4028.09, 0.114994
4031.22, 0.114994
4034.36, 0.114994
4037.5, 0.114994
4040.65, 0.114994
4043.8, 0.114994
4046.96, 0.115070
4050.12, 0.115070
4053.29, 0.114994
4056.46, 0.115070
4059.64, 0.115070
4062.82, 0.115070
4066.0, 0.115070
4069.19, 0.115070
4072.39, 0.115147
4075.59, 0.115299
4078.8, 0.115223
4082.01, 0.114994
4085.23, 0.114994
4088.45, 0.115147
4091.68, 0.115223
4094.91, 0.115223
4098.15, 0.115070
4101.39, 0.115147
4104.63, 0.115223
4107.89, 0.115147
4111.14, 0.115070
4114.41, 0.115070
4117.67, 0.115070
4120.95, 0.115147
4124.23, 0.115223
4127.51, 0.115147
4130.8, 0.115299
4134.09, 0.115375
4137.39, 0.115375
4140.7, 0.115452
4144.01, 0.115452
4147.32, 0.115375
4150.64, 0.115299
4153.97, 0.115299
4157.3, 0.115375
4160.64, 0.115452
4163.98, 0.115528
4167.33, 0.115452
4170.68, 0.115375
4174.04, 0.115375
4177.4, 0.115452
4180.77, 0.115452
4184.14, 0.115375
4187.52, 0.115452
4190.91, 0.115528
4194.3, 0.115604
4197.69, 0.115528
4201.1, 0.115375
4204.5, 0.115452
4207.92, 0.115528
4211.34, 0.115680
4214.76, 0.115757
4218.19, 0.115833
4221.62, 0.115985
4225.06, 0.116214
4228.51, 0.116214
4231.96, 0.116062
4235.42, 0.115985
4238.88, 0.116062
4242.35, 0.116062
4245.83, 0.115985
4249.31, 0.115909
4252.79, 0.115833
4256.28, 0.115909
4259.78, 0.115909
4263.29, 0.115833
4266.79, 0.115985
4270.31, 0.116138
4273.83, 0.116062
4277.35, 0.116062
4280.89, 0.116138
4284.42, 0.116138
4287.97, 0.116062
4291.52, 0.116138
4295.07, 0.116138
4298.63, 0.116138
4302.2, 0.116138
4305.78, 0.116138
4309.35, 0.115985
4312.94, 0.115985
4316.53, 0.115985
4320.13, 0.115909
4323.73, 0.115909
4327.34, 0.115833
4330.96, 0.115909
4334.58, 0.115909
4338.21, 0.115909
4341.84, 0.115909
4345.48, 0.115985
4349.12, 0.115985
4352.77, 0.115909
4356.43, 0.115985
4360.1, 0.116214
4363.76, 0.116214
4367.44, 0.116138
4371.12, 0.116138
4374.81, 0.116214
4378.51, 0.116214
4382.21, 0.116138
4385.92, 0.116138
4389.63, 0.116214
4393.35, 0.116062
4397.08, 0.116062
4400.81, 0.116214
4404.55, 0.116290
4408.29, 0.116290
4412.04, 0.116290
4415.8, 0.116290
4419.57, 0.116290
4423.34, 0.116367
4427.12, 0.116367
4430.9, 0.116367
4434.69, 0.116443
4438.49, 0.116367
4442.29, 0.116367
4446.1, 0.116367
4449.92, 0.116367
4453.74, 0.116290
4457.57, 0.116367
4461.41, 0.116367
4465.25, 0.116367
4469.1, 0.116443
4472.95, 0.116443
4476.82, 0.116443
4480.69, 0.116367
4484.56, 0.116443
4488.44, 0.116519
4492.33, 0.116443
4496.23, 0.116443
4500.13, 0.116519
4504.04, 0.116595
4507.96, 0.116595
4511.88, 0.116672
4515.81, 0.116595
4519.75, 0.116672
4523.69, 0.116672
4527.65, 0.116672
4531.6, 0.116748
4535.57, 0.116824
4539.54, 0.116900
4543.52, 0.116900
4547.5, 0.116900
4551.5, 0.116977
4555.5, 0.116977
4559.5, 0.117053
4563.52, 0.117129
4567.54, 0.117129
4571.56, 0.117129
4575.6, 0.117129
4579.64, 0.117129
4583.69, 0.117282
4587.75, 0.117358
4591.81, 0.117358
4595.88, 0.117282
4599.96, 0.117282
4604.04, 0.117205
4608.14, 0.117282
4612.24, 0.117358
4616.34, 0.117358
4620.46, 0.117282
4624.58, 0.117205
4628.71, 0.117205
4632.84, 0.117205
4636.99, 0.117205
4641.14, 0.117205
4645.3, 0.117053
4649.47, 0.117053
4653.64, 0.117129
4657.82, 0.117205
4662.01, 0.117129
4666.21, 0.116900
4670.41, 0.117053
4674.62, 0.117205
4678.84, 0.117205
4683.07, 0.117282
4687.3, 0.117282
4691.54, 0.117358
4695.79, 0.117205
4700.05, 0.117205
4704.31, 0.117205
4708.59, 0.117358
4712.87, 0.117358
4717.15, 0.117434
4721.45, 0.117434
4725.76, 0.117587
4730.07, 0.117434
4734.39, 0.117587
4738.72, 0.117510
4743.05, 0.117434
4747.39, 0.117358
4751.75, 0.117434
4756.1, 0.117434
4760.47, 0.117434
4764.85, 0.117434
4769.23, 0.117358
4773.62, 0.117434
4778.02, 0.117358
4782.43, 0.117358
4786.85, 0.117282
4791.27, 0.117282
4795.7, 0.117358
4800.14, 0.117434
4804.59, 0.117358
4809.05, 0.117282
4813.51, 0.117434
4817.99, 0.117434
4822.47, 0.117510
4826.96, 0.117510
4831.46, 0.117434
4835.96, 0.117434
4840.48, 0.117282
4845.0, 0.117282
4849.54, 0.117358
4854.08, 0.117434
4858.63, 0.117358
4863.18, 0.117510
4867.75, 0.117510
4872.33, 0.117434
4876.91, 0.117358
4881.5, 0.117510
4886.1, 0.117510
4890.71, 0.117434
4895.33, 0.117510
4899.96, 0.117434
4904.59, 0.117434
4909.24, 0.117434
4913.89, 0.117434
4918.55, 0.117510
4923.22, 0.117587
4927.9, 0.117510
4932.59, 0.117510
4937.29, 0.117510
4942.0, 0.117434
4946.71, 0.117434
4951.44, 0.117510
4956.17, 0.117434
4960.91, 0.117587
4965.67, 0.117663
4970.43, 0.117510
4975.2, 0.117510
4979.98, 0.117663
4984.76, 0.117587
4989.56, 0.117587
4994.37, 0.117739
4999.18, 0.117739
5004.01, 0.117663
5008.84, 0.117510
5013.69, 0.117434
5018.54, 0.117434
5023.4, 0.117510
5028.28, 0.117663
5033.16, 0.117815
5038.05, 0.117739
5042.95, 0.117663
5047.86, 0.117739
5052.78, 0.117892
5057.71, 0.117892
5062.65, 0.117892
5067.6, 0.117968
5072.56, 0.117968
5077.53, 0.117892
5082.5, 0.117892
5087.49, 0.117968
5092.49, 0.118044
5097.5, 0.118044
5102.51, 0.117968
5107.54, 0.118044
5112.58, 0.118197
5117.62, 0.118273
5122.68, 0.118197
5127.75, 0.118273
5132.82, 0.118197
5137.91, 0.118197
5143.01, 0.118121
5148.12, 0.118044
5153.23, 0.118273
5158.36, 0.118349
5163.5, 0.118426
5168.65, 0.118578
5173.81, 0.118502
5178.98, 0.118502
5184.15, 0.118426
5189.34, 0.118502
5194.54, 0.118502
5199.75, 0.118426
5204.98, 0.118502
5210.21, 0.118349
5215.45, 0.118349
5220.7, 0.118654
5225.96, 0.118654
5231.23, 0.118654
5236.52, 0.118654
5241.81, 0.118654
5247.12, 0.118731
5252.44, 0.118731
5257.76, 0.118731
5263.1, 0.118807
5268.45, 0.118807
5273.81, 0.118807
5279.18, 0.118883
5284.56, 0.118959
5289.95, 0.118731
5295.36, 0.118807
5300.77, 0.118959
5306.2, 0.119036
5311.63, 0.118959
5317.08, 0.118959
5322.54, 0.119112
5328.01, 0.119112
5333.49, 0.119112
5338.98, 0.119036
5344.49, 0.118807
5350.0, 0.118578
5355.53, 0.118883
5361.07, 0.119188
5366.62, 0.119188
5372.18, 0.119264
5377.75, 0.119264
5383.34, 0.119264
5388.93, 0.119341
5394.54, 0.119417
5400.16, 0.119341
5405.79, 0.119264
5411.44, 0.119188
5417.09, 0.118807
5422.76, 0.118502
5428.43, 0.119188
5434.12, 0.119493
5439.83, 0.119569
5445.54, 0.119646
5451.26, 0.119646
5457.0, 0.119341
5462.75, 0.118959
5468.52, 0.119264
5474.29, 0.119493
5480.08, 0.119493
5485.88, 0.119646
5491.69, 0.119722
5497.51, 0.119646
5503.35, 0.119646
5509.2, 0.119798
5515.06, 0.119798
5520.93, 0.119646
5526.82, 0.119646
5532.71, 0.119798
5538.63, 0.119874
5544.55, 0.119646
5550.49, 0.119341
5556.44, 0.119417
5562.4, 0.119646
5568.37, 0.119798
5574.36, 0.119112
5580.36, 0.118807
5586.37, 0.119493
5592.4, 0.119874
5598.44, 0.119722
5604.49, 0.119722
5610.56, 0.119798
5616.63, 0.119722
5622.73, 0.119951
5628.83, 0.119874
5634.95, 0.119341
5641.08, 0.118654
5647.23, 0.119112
5653.39, 0.119417
5659.56, 0.119646
5665.74, 0.120027
5671.94, 0.119646
5678.15, 0.119798
5684.38, 0.120027
5690.62, 0.119722
5696.87, 0.120027
5703.14, 0.119874
5709.42, 0.119188
5715.72, 0.119417
5722.03, 0.119798
5728.35, 0.120027
5734.69, 0.120027
5741.03, 0.119874
5747.4, 0.119722
5753.78, 0.120103
5760.17, 0.119188
5766.58, 0.118044
5773.0, 0.119264
5779.44, 0.120179
5785.88, 0.120408
5792.35, 0.120561
5798.83, 0.120484
5805.32, 0.120484
5811.83, 0.120027
5818.35, 0.118654
5824.89, 0.118426
5831.45, 0.119417
5838.01, 0.120103
5844.59, 0.120332
5851.19, 0.120179
5857.8, 0.119874
5864.43, 0.119646
5871.07, 0.119646
5877.73, 0.117892
5884.4, 0.118044
5891.09, 0.118578
5897.79, 0.118349
5904.5, 0.119722
5911.23, 0.120179
5917.98, 0.119951
5924.75, 0.119722
5931.53, 0.118197
5938.32, 0.117663
5945.13, 0.119188
5951.96, 0.119874
5958.8, 0.120027
5965.65, 0.119264
5972.53, 0.119417
5979.42, 0.119722
5986.32, 0.119188
5993.24, 0.119569
6000.18, 0.120408
6007.13, 0.120103
6014.1, 0.119646
6021.08, 0.120179
6028.09, 0.120561
6035.1, 0.120103
6042.14, 0.117892
6049.19, 0.116138
6056.25, 0.118578
6063.34, 0.119646
6070.44, 0.118731
6077.55, 0.119112
6084.69, 0.120256
6091.84, 0.120484
6099.0, 0.120256
6106.19, 0.119188
6113.39, 0.118273
6120.61, 0.119493
6127.84, 0.120408
6135.09, 0.120332
6142.36, 0.120103
6149.65, 0.120027
6156.95, 0.119493
6164.27, 0.119569
6171.61, 0.119874
6178.97, 0.119112
6186.34, 0.118654
6193.73, 0.119874
6201.14, 0.120408
6208.57, 0.120408
6216.01, 0.120484
6223.47, 0.120713
6230.95, 0.120942
6238.45, 0.121094
6245.97, 0.121247
6253.5, 0.121400
6261.06, 0.121476
6268.63, 0.121400
6276.21, 0.121400
6283.82, 0.121552
6291.45, 0.121552
6299.1, 0.121628
6306.76, 0.121628
6314.44, 0.121705
6322.14, 0.121857
6329.86, 0.121781
6337.6, 0.120713
6345.35, 0.120179
6353.13, 0.121628
6360.92, 0.121933
6368.74, 0.121171
6376.57, 0.121552
6384.43, 0.122010
6392.3, 0.122086
6400.19, 0.121628
6408.1, 0.119264
6416.03, 0.118578
6423.98, 0.120561
6431.95, 0.121476
6439.94, 0.122086
6447.95, 0.122391
6455.98, 0.122543
6464.03, 0.122391
6472.1, 0.121628
6480.19, 0.120789
6488.31, 0.119493
6496.44, 0.119722
6504.59, 0.121705
6512.76, 0.122162
6520.95, 0.121628
6529.16, 0.122162
6537.4, 0.122315
6545.65, 0.121857
6553.92, 0.121476
6562.22, 0.121094
6570.54, 0.120103
6578.88, 0.120637
6587.23, 0.121247
6595.61, 0.121476
6604.02, 0.122010
6612.44, 0.121857
6620.89, 0.121476
6629.35, 0.119951
6637.84, 0.118959
6646.35, 0.120713
6654.88, 0.122162
6663.44, 0.122086
6672.01, 0.121476
6680.61, 0.121171
6689.23, 0.121933
6697.88, 0.122467
6706.54, 0.121933
6715.23, 0.121781
6723.94, 0.122315
6732.67, 0.122772
6741.42, 0.123077
6750.2, 0.123153
6759.0, 0.123153
6767.82, 0.122925
6776.67, 0.122620
6785.54, 0.121933
6794.44, 0.122238
6803.35, 0.123458
6812.29, 0.123763
6821.26, 0.123230
6830.24, 0.123230
6839.25, 0.123840
6848.29, 0.123382
6857.35, 0.121781
6866.43, 0.121628
6875.54, 0.123306
6884.67, 0.123916
6893.82, 0.123916
6903.0, 0.123687
6912.2, 0.123916
6921.43, 0.124373
6930.69, 0.124450
6939.96, 0.124373
6949.27, 0.123916
6958.59, 0.123001
6967.95, 0.123687
6977.33, 0.124373
6986.73, 0.124221
6996.16, 0.124221
7005.61, 0.124526
7015.09, 0.124526
7024.6, 0.124450
7034.13, 0.124068
7043.69, 0.123306
7053.27, 0.123763
7062.88, 0.124526
7072.52, 0.124755
7082.18, 0.124831
7091.87, 0.124907
7101.58, 0.124984
7111.32, 0.124831
7121.09, 0.124907
7130.88, 0.125060
7140.71, 0.124679
7150.56, 0.124526
7160.43, 0.124602
7170.33, 0.124526
7180.27, 0.125060
7190.23, 0.125212
7200.21, 0.124907
7210.23, 0.124907
7220.27, 0.125365
7230.34, 0.125441
7240.44, 0.125441
7250.56, 0.125517
7260.72, 0.125594
7270.9, 0.125365
7281.12, 0.125441
7291.36, 0.125670
7301.63, 0.125670
7311.93, 0.125670
7322.25, 0.125594
7332.61, 0.125365
7343.0, 0.125365
7353.41, 0.125517
7363.86, 0.125517
7374.33, 0.125517
7384.83, 0.125670
7395.37, 0.125746
7405.93, 0.125746
7416.53, 0.125746
7427.15, 0.125899
7437.81, 0.125975
7448.5, 0.125975
7459.22, 0.125899
7469.96, 0.125899
7480.74, 0.126051
7491.55, 0.126127
7502.39, 0.126204
7513.27, 0.126280
7524.17, 0.126204
7535.11, 0.126127
7546.08, 0.126051
7557.08, 0.126204
7568.11, 0.126127
7579.17, 0.126127
7590.27, 0.126204
7601.4, 0.126356
7612.56, 0.126356
7623.76, 0.126432
7634.98, 0.126509
7646.24, 0.126661
7657.54, 0.126661
7668.87, 0.126737
7680.23, 0.126890
7691.62, 0.126966
7703.05, 0.127119
7714.51, 0.127271
7726.01, 0.127424
7737.54, 0.127424
7749.11, 0.127347
7760.71, 0.127424
7772.35, 0.127500
7784.02, 0.127576
7795.72, 0.127576
7807.46, 0.127729
7819.23, 0.127805
7831.04, 0.127729
7842.89, 0.127805
7854.77, 0.127881
7866.69, 0.127881
7878.65, 0.128034
7890.64, 0.128186
7902.67, 0.128339
7914.74, 0.128263
7926.84, 0.128263
7938.98, 0.128415
7951.16, 0.128415
7963.37, 0.128339
7975.62, 0.128263
7987.91, 0.128186
8000.24, 0.128034
8012.6, 0.127805
8025.01, 0.127424
8037.45, 0.127042
8049.93, 0.126814
8062.45, 0.126509
8075.01, 0.126356
8087.61, 0.126204
8100.24, 0.125975
8112.91, 0.125670
8125.63, 0.125441
8138.39, 0.125212
8151.18, 0.125136
8164.02, 0.124984
8176.9, 0.124679
8189.81, 0.124450
8202.77, 0.124297
8215.77, 0.124145
8228.82, 0.124145
8241.9, 0.123992
8255.02, 0.123992
8268.19, 0.123992
8281.39, 0.123992
8294.65, 0.123992
8307.94, 0.124145
8321.28, 0.124221
8334.66, 0.124145
8348.08, 0.124221
8361.54, 0.124373
8375.05, 0.124373
8388.6, 0.124450
8402.2, 0.124450
8415.84, 0.124373
8429.52, 0.124373
8443.25, 0.124450
8457.02, 0.124602
8470.84, 0.124679
8484.7, 0.124755
8498.61, 0.124831
8512.57, 0.124831
8526.57, 0.124907
8540.62, 0.125136
8554.71, 0.125212
8568.85, 0.125060
8583.04, 0.125289
8597.27, 0.125441
8611.55, 0.125746
8625.88, 0.126051
8640.26, 0.126280
8654.68, 0.126509
8669.16, 0.127042
8683.68, 0.127347
8698.25, 0.127424
8712.87, 0.127347
8727.53, 0.127195
8742.25, 0.126966
8757.02, 0.126814
8771.83, 0.126661
8786.7, 0.126509
8801.62, 0.126127
8816.59, 0.125899
8831.61, 0.125822
8846.68, 0.125746
8861.8, 0.125746
8876.97, 0.125670
8892.2, 0.125365
8907.48, 0.125212
8922.81, 0.125289
8938.2, 0.125212
8953.63, 0.124907
8969.13, 0.124679
8984.67, 0.124450
9000.27, 0.124221
9015.92, 0.123992
9031.63, 0.123763
9047.39, 0.123611
9063.21, 0.123535
9079.08, 0.123458
9095.01, 0.123306
9111.0, 0.123382
9127.04, 0.123535
9143.13, 0.123687
9159.28, 0.123687
9175.49, 0.123687
9191.76, 0.123535
9208.09, 0.123077
9224.47, 0.122848
9240.92, 0.122772
9257.42, 0.122315
9273.98, 0.121857
9290.6, 0.121552
9307.28, 0.121476
9324.02, 0.121476
9340.82, 0.121400
9357.68, 0.121171
9374.6, 0.120713
9391.58, 0.120561
9408.62, 0.120713
9425.73, 0.120789
9442.9, 0.120637
9460.13, 0.120484
9477.42, 0.120332
9494.78, 0.120256
9512.2, 0.120332
9529.69, 0.120484
9547.24, 0.120332
9564.86, 0.120408
9582.54, 0.120484
9600.28, 0.120484
9618.1, 0.120484
9635.97, 0.120408
9653.92, 0.120408
9671.93, 0.120408
9690.01, 0.120713
9708.16, 0.121323
9726.37, 0.121705
9744.65, 0.121857
9763.0, 0.122238
9781.43, 0.122543
9799.92, 0.122620
9818.48, 0.122620
9837.1, 0.122696
9855.8, 0.122620
9874.58, 0.122696
9893.42, 0.123077
9912.34, 0.123382
9931.33, 0.123382
9950.39, 0.123306
9969.52, 0.123001
9988.74, 0.122772
10008.0, 0.122772
10027.4, 0.122848
10046.8, 0.122848
10066.3, 0.122543
10085.9, 0.122238
10105.6, 0.122162
10125.3, 0.122238
10145.1, 0.122315
10165.0, 0.122543
10185.0, 0.122543
10205.0, 0.122543
10225.2, 0.122543
10245.4, 0.122467
10265.7, 0.122467
10286.0, 0.122467
10306.5, 0.122315
10327.0, 0.122238
10347.6, 0.122391
10368.3, 0.122467
10389.1, 0.122620
10409.9, 0.122620
10430.9, 0.122315
10451.9, 0.122238
10473.0, 0.122543
10494.2, 0.122696
10515.5, 0.122696
10536.9, 0.122620
10558.4, 0.122772
10579.9, 0.122772
10601.5, 0.122848
10623.3, 0.123001
10645.1, 0.123077
10667.0, 0.123153
10689.0, 0.123382
10711.1, 0.123535
10733.2, 0.123535
10755.5, 0.123306
10777.9, 0.123458
10800.3, 0.123763
10822.9, 0.123763
10845.5, 0.123687
10868.2, 0.123458
10891.1, 0.123611
10914.0, 0.123916
10937.0, 0.124068
10960.2, 0.123763
10983.4, 0.123611
11006.7, 0.123611
11030.1, 0.123611
11053.6, 0.123763
11077.3, 0.123916
11101.0, 0.123840
11124.8, 0.123916
11148.7, 0.123916
11172.7, 0.123916
11196.9, 0.123687
11221.1, 0.123840
11245.4, 0.123992
11269.9, 0.123840
11294.4, 0.123763
11319.1, 0.123916
11343.9, 0.123687
11368.8, 0.123611
11393.7, 0.123840
11418.8, 0.124145
11444.0, 0.123916
11469.4, 0.123763
11494.8, 0.123992
11520.3, 0.124145
11546.0, 0.124068
11571.8, 0.123840
11597.7, 0.123535
11623.7, 0.123763
11649.8, 0.123840
11676.0, 0.123763
11702.4, 0.123916
11728.9, 0.124145
11755.5, 0.124145
11782.2, 0.124145
11809.0, 0.124068
11836.0, 0.124068
11863.0, 0.123916
11890.3, 0.123916
11917.6, 0.123916
11945.0, 0.123763
11972.6, 0.123763
12000.4, 0.123840
12028.2, 0.123840
12056.2, 0.123763
12084.3, 0.123535
12112.5, 0.123840
12140.9, 0.124145
12169.4, 0.123992
12198.0, 0.123916
12226.8, 0.123763
12255.7, 0.123535
12284.7, 0.123763
12313.9, 0.123916
12343.2, 0.123763
12372.7, 0.123611
12402.3, 0.123687
12432.0, 0.123763
12461.9, 0.123763
12491.9, 0.123840
12522.1, 0.123840
12552.4, 0.123763
12582.9, 0.123687
12613.5, 0.123763
12644.3, 0.123611
12675.2, 0.123458
12706.3, 0.123687
12737.5, 0.123763
12768.9, 0.123687
12800.4, 0.123611
12832.1, 0.123611
12863.9, 0.123458
12895.9, 0.123458
12928.1, 0.123611
12960.4, 0.123458
12992.9, 0.123611
13025.5, 0.123687
13058.3, 0.123687
13091.3, 0.123611
13124.4, 0.123306
13157.8, 0.123382
13191.2, 0.123535
13224.9, 0.123458
13258.7, 0.123153
13292.7, 0.123001
13326.9, 0.123001
13361.2, 0.123001
13395.7, 0.123077
13430.4, 0.122772
13465.3, 0.122772
13500.4, 0.122848
13535.7, 0.123001
13571.1, 0.123382
13606.7, 0.123458
13642.5, 0.123153
13678.5, 0.123153
13714.7, 0.123230
13751.1, 0.123077
13787.6, 0.123001
13824.4, 0.123382
13861.4, 0.123535
13898.5, 0.123306
13935.9, 0.123230
13973.5, 0.123230
14011.2, 0.123001
14049.2, 0.123153
14087.4, 0.123306
14125.8, 0.123077
14164.3, 0.123077
14203.2, 0.123458
14242.2, 0.123687
14281.4, 0.123763
14320.9, 0.123687
14360.5, 0.123382
14400.4, 0.123306
14440.5, 0.123382
14480.9, 0.123230
14521.4, 0.123306
14562.2, 0.123077
14603.3, 0.122848
14644.5, 0.122543
14686.0, 0.122315
14727.7, 0.122772
14769.7, 0.122925
14811.9, 0.122772
14854.3, 0.122620
14897.0, 0.122315
14939.9, 0.122315
14983.1, 0.122238
15026.5, 0.122086
15070.2, 0.122010
15114.2, 0.121552
15158.3, 0.121705
15202.8, 0.122010
15247.5, 0.121552
15292.5, 0.121323
15337.7, 0.121018
15383.2, 0.120942
15429.0, 0.121552
15475.1, 0.121552
15521.4, 0.121323
15568.0, 0.121323
15614.9, 0.121552
15662.1, 0.121247
15709.6, 0.121018
15757.3, 0.121018
15805.4, 0.121247
15853.7, 0.121018
15902.3, 0.120866
15951.2, 0.121323
16000.5, 0.121857
16050.0, 0.121933
16099.8, 0.122162
16150.0, 0.121933
16200.5, 0.121628
16251.3, 0.122010
16302.4, 0.122086
16353.8, 0.121781
16405.5, 0.121781
16457.6, 0.121857
16510.0, 0.121628
16562.8, 0.121400
16615.9, 0.121323
16669.3, 0.121400
16723.1, 0.121705
16777.2, 0.121705
16831.7, 0.121476
16886.5, 0.121400
16941.7, 0.121094
16997.2, 0.120942
17053.1, 0.121323
17109.4, 0.121705
17166.1, 0.122010
17223.1, 0.122010
17280.5, 0.121705
17338.3, 0.121476
17396.5, 0.121781
17455.1, 0.121628
17514.0, 0.121018
17573.4, 0.120789
17633.2, 0.121323
17693.4, 0.121476
17754.0, 0.121323
17815.0, 0.121323
17876.4, 0.121476
17938.3, 0.121247
18000.5, 0.121018
18063.3, 0.121247
18126.4, 0.120866
18190.0, 0.120408
18254.1, 0.120789
18318.6, 0.120789
18383.5, 0.119874
18449.0, 0.119722
18514.9, 0.120103
18581.2, 0.120027
18648.0, 0.120484
18715.4, 0.120637
18783.2, 0.120484
18851.5, 0.119722
18920.3, 0.118959
18989.6, 0.118578
19059.4, 0.119188
19129.7, 0.118578
19200.6, 0.117434
19272.0, 0.117892
19343.9, 0.118731
19416.3, 0.119188
19489.3, 0.119493
19562.8, 0.119951
19637.0, 0.120789
19711.6, 0.121323
19786.8, 0.120637
19862.6, 0.119798
19939.0, 0.119493
20016.0, 0.121094
20093.6, 0.122086
20171.8, 0.120942
20250.6, 0.120408
20330.0, 0.120179
20410.0, 0.119264
20490.7, 0.118883
20572.0, 0.118883
20654.0, 0.118426
20736.6, 0.118044
20819.9, 0.118044
20903.8, 0.118197
20988.5, 0.118121
21073.8, 0.117968
21159.8, 0.116977
21246.5, 0.117358
21334.0, 0.118197
21422.1, 0.118502
21511.0, 0.117739
21600.7, 0.116824
21691.0, 0.116595
21782.1, 0.116672
21874.0, 0.115147
21966.7, 0.113698
22060.2, 0.113088
22154.5, 0.114308
22249.6, 0.113774
22345.5, 0.113164
22442.2, 0.113469
22539.8, 0.112859
22638.2, 0.112325
22737.5, 0.111715
22837.7, 0.111181
22938.7, 0.111410
23040.7, 0.110876
23143.5, 0.109351
23247.3, 0.108665
23352.1, 0.109580
23457.7, 0.108360
23564.4, 0.106835
23672.0, 0.107292
23780.5, 0.107750
23890.1, 0.108665
24000.7, 0.109961
24112.3, 0.108207
24225.0, 0.107445
24338.7, 0.107597
24453.5, 0.107750
24569.4, 0.106758
24686.4, 0.105004
