Database of Origin, USGS Spectral Database
Sample Description, See USGS database for additional info
Date Added,2016-08-10 05:26:58.210283

Data ID,USGS_pro08          
Sample ID, prochlorite_smr14.18451
Mineral Name, prochlorite
Material Class,Phyllosilicate

Wavelength
1369.66, 0.213982
1370.02, 0.214110
1370.38, 0.215010
1370.74, 0.214689
1371.11, 0.214624
1371.47, 0.214881
1371.83, 0.215267
1372.19, 0.215138
1372.56, 0.215395
1372.92, 0.215781
1373.29, 0.215331
1373.65, 0.216038
1374.01, 0.216616
1374.38, 0.216295
1374.74, 0.216552
1375.11, 0.217195
1375.47, 0.216616
1375.84, 0.215974
1376.2, 0.216102
1376.57, 0.216552
1376.93, 0.216231
1377.3, 0.216488
1377.67, 0.217259
1378.03, 0.217323
1378.4, 0.217195
1378.76, 0.217130
1379.13, 0.217195
1379.5, 0.217773
1379.87, 0.217387
1380.23, 0.217130
1380.6, 0.217580
1380.97, 0.218159
1381.34, 0.218030
1381.7, 0.217773
1382.07, 0.217516
1382.44, 0.217130
1382.81, 0.217452
1383.18, 0.217645
1383.55, 0.217773
1383.92, 0.218223
1384.29, 0.218544
1384.66, 0.218416
1385.03, 0.218673
1385.4, 0.218351
1385.77, 0.217773
1386.14, 0.217966
1386.51, 0.218094
1386.88, 0.218223
1387.25, 0.218094
1387.62, 0.217709
1387.99, 0.217645
1388.36, 0.218159
1388.74, 0.218287
1389.11, 0.218223
1389.48, 0.218030
1389.85, 0.217773
1390.23, 0.217130
1390.6, 0.216681
1390.97, 0.217259
1391.35, 0.217130
1391.72, 0.216488
1392.09, 0.215974
1392.47, 0.216424
1392.84, 0.216873
1393.21, 0.217066
1393.59, 0.217002
1393.96, 0.216809
1394.34, 0.216681
1394.71, 0.216616
1395.09, 0.216873
1395.46, 0.216809
1395.84, 0.216552
1396.22, 0.216552
1396.59, 0.216938
1396.97, 0.217002
1397.35, 0.217066
1397.72, 0.217323
1398.1, 0.217580
1398.48, 0.217773
1398.85, 0.217516
1399.23, 0.217130
1399.61, 0.217323
1399.99, 0.217387
1400.37, 0.217516
1400.74, 0.217709
1401.12, 0.217902
1401.5, 0.218223
1401.88, 0.218608
1402.26, 0.218351
1402.64, 0.218351
1403.02, 0.218608
1403.4, 0.218608
1403.78, 0.218480
1404.16, 0.218351
1404.54, 0.218287
1404.92, 0.218351
1405.3, 0.218673
1405.68, 0.219122
1406.06, 0.219251
1406.44, 0.218994
1406.83, 0.218801
1407.21, 0.218737
1407.59, 0.219251
1407.97, 0.219380
1408.35, 0.219315
1408.74, 0.219315
1409.12, 0.219251
1409.5, 0.219251
1409.89, 0.219315
1410.27, 0.219444
1410.65, 0.219701
1411.04, 0.220151
1411.42, 0.220151
1411.81, 0.220343
1412.19, 0.220472
1412.58, 0.220343
1412.96, 0.220472
1413.35, 0.220729
1413.73, 0.220729
1414.12, 0.220472
1414.5, 0.220279
1414.89, 0.220408
1415.28, 0.220536
1415.66, 0.220922
1416.05, 0.221436
1416.44, 0.221436
1416.82, 0.221243
1417.21, 0.221436
1417.6, 0.221757
1417.98, 0.222014
1418.37, 0.221629
1418.76, 0.221757
1419.15, 0.221950
1419.54, 0.221564
1419.93, 0.221757
1420.32, 0.222335
1420.71, 0.222785
1421.09, 0.223042
1421.48, 0.223107
1421.88, 0.222657
1422.27, 0.222592
1422.66, 0.222785
1423.05, 0.222785
1423.44, 0.222850
1423.83, 0.222978
1424.22, 0.223042
1424.61, 0.223107
1425.0, 0.223042
1425.39, 0.223171
1425.78, 0.223364
1426.18, 0.223364
1426.57, 0.223299
1426.96, 0.223556
1427.36, 0.224070
1427.75, 0.223878
1428.14, 0.223685
1428.54, 0.224006
1428.93, 0.224584
1429.32, 0.224070
1429.72, 0.223492
1430.11, 0.223556
1430.51, 0.224006
1430.9, 0.224006
1431.3, 0.223813
1431.69, 0.223813
1432.09, 0.224070
1432.48, 0.224199
1432.88, 0.224135
1433.28, 0.224199
1433.67, 0.224199
1434.07, 0.224392
1434.46, 0.224649
1434.86, 0.224456
1435.26, 0.224520
1435.66, 0.224713
1436.05, 0.225034
1436.45, 0.225099
1436.85, 0.224906
1437.25, 0.224520
1437.65, 0.224649
1438.05, 0.224327
1438.44, 0.224263
1438.84, 0.224456
1439.24, 0.224777
1439.64, 0.225034
1440.04, 0.225034
1440.44, 0.224713
1440.84, 0.224777
1441.24, 0.224777
1441.65, 0.224906
1442.05, 0.225099
1442.45, 0.225034
1442.85, 0.225163
1443.25, 0.225291
1443.65, 0.225420
1444.05, 0.225484
1444.46, 0.225677
1444.86, 0.225548
1445.26, 0.225291
1445.67, 0.225227
1446.07, 0.225548
1446.47, 0.225420
1446.88, 0.225420
1447.28, 0.225805
1447.68, 0.225998
1448.09, 0.226127
1448.49, 0.226191
1448.9, 0.226062
1449.3, 0.225934
1449.71, 0.226384
1450.11, 0.226512
1450.52, 0.226705
1450.93, 0.226512
1451.33, 0.226255
1451.74, 0.226191
1452.14, 0.226127
1452.55, 0.226191
1452.96, 0.226448
1453.36, 0.226705
1453.77, 0.226641
1454.18, 0.226577
1454.59, 0.226834
1455.0, 0.226898
1455.41, 0.226834
1455.81, 0.226834
1456.22, 0.226962
1456.63, 0.227026
1457.04, 0.227219
1457.45, 0.227283
1457.86, 0.227219
1458.27, 0.227219
1458.68, 0.227219
1459.09, 0.227412
1459.5, 0.227348
1459.91, 0.227669
1460.32, 0.227540
1460.74, 0.227412
1461.15, 0.227540
1461.56, 0.227669
1461.97, 0.227862
1462.39, 0.227990
1462.8, 0.228119
1463.21, 0.227990
1463.62, 0.227990
1464.04, 0.227862
1464.45, 0.228054
1464.86, 0.228312
1465.28, 0.228312
1465.69, 0.228119
1466.11, 0.228119
1466.52, 0.228376
1466.94, 0.228504
1467.35, 0.228312
1467.77, 0.228697
1468.18, 0.228890
1468.6, 0.229018
1469.02, 0.229275
1469.43, 0.229083
1469.85, 0.228761
1470.27, 0.228761
1470.68, 0.228761
1471.1, 0.228761
1471.52, 0.228890
1471.94, 0.229147
1472.35, 0.228890
1472.77, 0.228826
1473.19, 0.229532
1473.61, 0.229854
1474.03, 0.229661
1474.45, 0.229661
1474.87, 0.229789
1475.29, 0.229789
1475.71, 0.229789
1476.13, 0.229982
1476.55, 0.229918
1476.97, 0.229661
1477.39, 0.229789
1477.81, 0.230175
1478.23, 0.230496
1478.65, 0.230303
1479.07, 0.229918
1479.5, 0.229854
1479.92, 0.230175
1480.34, 0.230303
1480.76, 0.230368
1481.19, 0.230753
1481.61, 0.231139
1482.03, 0.231075
1482.46, 0.230882
1482.88, 0.230818
1483.31, 0.231139
1483.73, 0.231396
1484.16, 0.231139
1484.58, 0.230946
1485.01, 0.231010
1485.43, 0.231396
1485.86, 0.231396
1486.28, 0.231267
1486.71, 0.231075
1487.14, 0.231396
1487.56, 0.231717
1487.99, 0.231781
1488.42, 0.231846
1488.84, 0.232103
1489.27, 0.232424
1489.7, 0.232745
1490.13, 0.232681
1490.56, 0.232488
1490.98, 0.232296
1491.41, 0.232488
1491.84, 0.232488
1492.27, 0.232617
1492.7, 0.232617
1493.13, 0.232553
1493.56, 0.232681
1493.99, 0.232874
1494.42, 0.232938
1494.85, 0.233259
1495.29, 0.233388
1495.72, 0.233324
1496.15, 0.233324
1496.58, 0.233195
1497.01, 0.232874
1497.44, 0.233195
1497.88, 0.233709
1498.31, 0.233773
1498.74, 0.233773
1499.18, 0.233645
1499.61, 0.233581
1500.04, 0.233902
1500.48, 0.233773
1500.91, 0.233709
1501.35, 0.234031
1501.78, 0.234223
1502.22, 0.234223
1502.65, 0.234416
1503.09, 0.234352
1503.53, 0.234416
1503.96, 0.234737
1504.4, 0.234737
1504.83, 0.234545
1505.27, 0.234545
1505.71, 0.234609
1506.15, 0.234609
1506.58, 0.234994
1507.02, 0.235508
1507.46, 0.235444
1507.9, 0.235251
1508.34, 0.235187
1508.78, 0.235187
1509.21, 0.235187
1509.66, 0.235637
1510.09, 0.236023
1510.53, 0.235958
1510.97, 0.235508
1511.42, 0.235573
1511.86, 0.235766
1512.3, 0.236087
1512.74, 0.236023
1513.18, 0.236023
1513.62, 0.236215
1514.06, 0.235894
1514.51, 0.235958
1514.95, 0.236151
1515.39, 0.236344
1515.83, 0.236537
1516.28, 0.236537
1516.72, 0.236537
1517.16, 0.236408
1517.61, 0.236472
1518.05, 0.236601
1518.5, 0.236858
1518.94, 0.237243
1519.39, 0.237115
1519.83, 0.236922
1520.28, 0.236858
1520.73, 0.236794
1521.17, 0.237243
1521.62, 0.237308
1522.07, 0.237308
1522.51, 0.237501
1522.96, 0.237565
1523.41, 0.237629
1523.85, 0.237629
1524.3, 0.237758
1524.75, 0.237629
1525.2, 0.237501
1525.65, 0.237501
1526.1, 0.237822
1526.55, 0.238143
1527.0, 0.238207
1527.45, 0.238079
1527.9, 0.238079
1528.35, 0.238015
1528.8, 0.238015
1529.25, 0.238015
1529.7, 0.238143
1530.15, 0.238143
1530.6, 0.238207
1531.05, 0.238657
1531.51, 0.238850
1531.96, 0.238786
1532.41, 0.238721
1532.87, 0.239107
1533.32, 0.239107
1533.77, 0.239043
1534.23, 0.239236
1534.68, 0.239236
1535.14, 0.239300
1535.59, 0.239428
1536.05, 0.239685
1536.5, 0.239428
1536.96, 0.239557
1537.41, 0.239685
1537.87, 0.239814
1538.32, 0.239942
1538.78, 0.239814
1539.24, 0.239814
1539.7, 0.240199
1540.15, 0.240392
1540.61, 0.240521
1541.07, 0.240456
1541.53, 0.240328
1541.98, 0.240392
1542.44, 0.240778
1542.9, 0.241035
1543.36, 0.241163
1543.82, 0.240970
1544.28, 0.241035
1544.74, 0.241356
1545.2, 0.241163
1545.66, 0.241099
1546.12, 0.241485
1546.59, 0.241999
1547.05, 0.241999
1547.51, 0.241742
1547.97, 0.241742
1548.43, 0.241999
1548.9, 0.242256
1549.36, 0.242320
1549.82, 0.242256
1550.29, 0.242320
1550.75, 0.242384
1551.21, 0.242962
1551.68, 0.243348
1552.14, 0.242898
1552.61, 0.242705
1553.07, 0.243155
1553.54, 0.243220
1554.0, 0.243284
1554.47, 0.243605
1554.93, 0.243541
1555.4, 0.243541
1555.87, 0.243669
1556.34, 0.243734
1556.8, 0.243862
1557.27, 0.243862
1557.74, 0.243862
1558.21, 0.243798
1558.68, 0.244055
1559.14, 0.244440
1559.61, 0.244633
1560.08, 0.244697
1560.55, 0.244633
1561.02, 0.244569
1561.49, 0.244633
1561.96, 0.244826
1562.43, 0.245019
1562.9, 0.245147
1563.38, 0.245276
1563.85, 0.245340
1564.32, 0.245276
1564.79, 0.245404
1565.26, 0.245597
1565.74, 0.245726
1566.21, 0.245661
1566.68, 0.245918
1567.16, 0.246111
1567.63, 0.246111
1568.1, 0.246047
1568.58, 0.245854
1569.05, 0.246047
1569.53, 0.246304
1570.0, 0.246175
1570.48, 0.246240
1570.96, 0.246304
1571.43, 0.246368
1571.91, 0.246561
1572.39, 0.246818
1572.86, 0.246754
1573.34, 0.247075
1573.82, 0.247525
1574.3, 0.247718
1574.77, 0.247910
1575.25, 0.247846
1575.73, 0.247910
1576.21, 0.247653
1576.69, 0.247653
1577.17, 0.247910
1577.65, 0.247910
1578.13, 0.247910
1578.61, 0.247975
1579.09, 0.247975
1579.57, 0.247975
1580.05, 0.248360
1580.54, 0.248553
1581.02, 0.248617
1581.5, 0.248617
1581.98, 0.248810
1582.47, 0.248874
1582.95, 0.248617
1583.43, 0.248682
1583.92, 0.249003
1584.4, 0.249196
1584.88, 0.249324
1585.37, 0.249388
1585.85, 0.249388
1586.34, 0.249388
1586.82, 0.249645
1587.31, 0.249838
1587.8, 0.249967
1588.28, 0.249902
1588.77, 0.249774
1589.26, 0.249774
1589.74, 0.250095
1590.23, 0.250417
1590.72, 0.250417
1591.21, 0.250095
1591.7, 0.250095
1592.19, 0.250288
1592.67, 0.250352
1593.16, 0.250481
1593.65, 0.250609
1594.14, 0.250866
1594.63, 0.250995
1595.12, 0.250866
1595.61, 0.251059
1596.11, 0.251316
1596.6, 0.251445
1597.09, 0.251380
1597.58, 0.251316
1598.08, 0.251380
1598.57, 0.251573
1599.06, 0.251895
1599.55, 0.251766
1600.05, 0.251895
1600.54, 0.251895
1601.04, 0.251895
1601.53, 0.252023
1602.03, 0.252216
1602.52, 0.252344
1603.02, 0.252730
1603.51, 0.252987
1604.01, 0.252987
1604.5, 0.252987
1605.0, 0.252987
1605.5, 0.252923
1606.0, 0.253244
1606.49, 0.253372
1606.99, 0.253501
1607.49, 0.253565
1607.99, 0.253565
1608.49, 0.253629
1608.99, 0.253758
1609.49, 0.253951
1609.99, 0.254015
1610.49, 0.254015
1610.99, 0.254079
1611.49, 0.254336
1611.99, 0.254529
1612.49, 0.254529
1612.99, 0.254593
1613.49, 0.254850
1614.0, 0.254979
1614.5, 0.255107
1615.0, 0.255236
1615.51, 0.255750
1616.01, 0.255814
1616.51, 0.255814
1617.02, 0.255686
1617.52, 0.255557
1618.03, 0.255686
1618.53, 0.255879
1619.04, 0.255943
1619.54, 0.255943
1620.05, 0.256007
1620.55, 0.256328
1621.06, 0.256778
1621.57, 0.256842
1622.08, 0.256457
1622.58, 0.256457
1623.09, 0.256778
1623.6, 0.257164
1624.11, 0.257099
1624.62, 0.257035
1625.13, 0.257164
1625.64, 0.257356
1626.15, 0.257421
1626.66, 0.257421
1627.17, 0.257549
1627.68, 0.257613
1628.19, 0.257871
1628.7, 0.257935
1629.21, 0.257935
1629.72, 0.257999
1630.24, 0.258256
1630.75, 0.258385
1631.26, 0.258642
1631.78, 0.258577
1632.29, 0.258577
1632.8, 0.258899
1633.32, 0.258899
1633.83, 0.258770
1634.35, 0.258706
1634.86, 0.258577
1635.38, 0.258963
1635.9, 0.259156
1636.41, 0.259091
1636.93, 0.259091
1637.45, 0.259156
1637.96, 0.259284
1638.48, 0.259477
1639.0, 0.259670
1639.52, 0.259927
1640.04, 0.259991
1640.56, 0.259927
1641.08, 0.260120
1641.59, 0.260505
1642.11, 0.260569
1642.63, 0.260569
1643.16, 0.260569
1643.68, 0.260441
1644.2, 0.260634
1644.72, 0.260891
1645.24, 0.260826
1645.76, 0.260698
1646.29, 0.260698
1646.81, 0.260698
1647.33, 0.261019
1647.86, 0.261341
1648.38, 0.261341
1648.9, 0.261469
1649.43, 0.261726
1649.95, 0.261533
1650.48, 0.261405
1651.0, 0.261598
1651.53, 0.261790
1652.06, 0.261855
1652.58, 0.261919
1653.11, 0.262112
1653.64, 0.262176
1654.17, 0.262304
1654.69, 0.262433
1655.22, 0.262240
1655.75, 0.262112
1656.28, 0.262304
1656.81, 0.262561
1657.34, 0.262818
1657.87, 0.262690
1658.4, 0.262433
1658.93, 0.262497
1659.46, 0.262626
1659.99, 0.263204
1660.52, 0.263590
1661.05, 0.263333
1661.59, 0.263140
1662.12, 0.263461
1662.65, 0.263525
1663.19, 0.263333
1663.72, 0.263461
1664.26, 0.263590
1664.79, 0.263718
1665.32, 0.264104
1665.86, 0.264361
1666.39, 0.264168
1666.93, 0.264232
1667.47, 0.264168
1668.0, 0.264296
1668.54, 0.264553
1669.08, 0.264746
1669.61, 0.265132
1670.15, 0.265132
1670.69, 0.265003
1671.23, 0.265068
1671.77, 0.265389
1672.31, 0.265646
1672.85, 0.265774
1673.39, 0.265582
1673.93, 0.265517
1674.47, 0.265710
1675.01, 0.265839
1675.55, 0.265774
1676.09, 0.265774
1676.64, 0.265839
1677.18, 0.265967
1677.72, 0.266031
1678.26, 0.266031
1678.81, 0.266096
1679.35, 0.266353
1679.89, 0.266803
1680.44, 0.266867
1680.98, 0.266995
1681.53, 0.266867
1682.07, 0.266931
1682.62, 0.267317
1683.17, 0.267445
1683.71, 0.267381
1684.26, 0.267317
1684.81, 0.267188
1685.36, 0.267317
1685.9, 0.267381
1686.45, 0.267638
1687.0, 0.267959
1687.55, 0.267831
1688.1, 0.267702
1688.65, 0.268088
1689.2, 0.268345
1689.75, 0.268409
1690.3, 0.268345
1690.85, 0.268280
1691.41, 0.268602
1691.96, 0.268795
1692.51, 0.268730
1693.06, 0.268730
1693.61, 0.268923
1694.17, 0.269180
1694.72, 0.269116
1695.28, 0.269244
1695.83, 0.269501
1696.39, 0.269694
1696.94, 0.269758
1697.5, 0.270015
1698.05, 0.270080
1698.61, 0.269823
1699.17, 0.269694
1699.72, 0.269823
1700.28, 0.270015
1700.84, 0.270080
1701.4, 0.270080
1701.95, 0.270208
1702.51, 0.270208
1703.07, 0.270337
1703.63, 0.270272
1704.19, 0.270465
1704.75, 0.270530
1705.31, 0.270787
1705.88, 0.271044
1706.44, 0.270851
1707.0, 0.270594
1707.56, 0.270722
1708.12, 0.271108
1708.69, 0.271236
1709.25, 0.271172
1709.81, 0.271172
1710.38, 0.271301
1710.94, 0.271558
1711.51, 0.271622
1712.07, 0.271622
1712.64, 0.271750
1713.2, 0.271815
1713.77, 0.271815
1714.34, 0.271750
1714.9, 0.271686
1715.47, 0.271943
1716.04, 0.272200
1716.61, 0.272265
1717.18, 0.272393
1717.74, 0.272457
1718.31, 0.272393
1718.88, 0.272393
1719.45, 0.272393
1720.02, 0.272586
1720.59, 0.272843
1721.17, 0.272843
1721.74, 0.273036
1722.31, 0.273293
1722.88, 0.273164
1723.45, 0.273228
1724.03, 0.273485
1724.6, 0.273421
1725.18, 0.273421
1725.75, 0.273228
1726.33, 0.273421
1726.9, 0.273485
1727.48, 0.273485
1728.05, 0.273485
1728.63, 0.273485
1729.2, 0.273550
1729.78, 0.273678
1730.36, 0.273742
1730.94, 0.273871
1731.51, 0.274192
1732.09, 0.273935
1732.67, 0.273807
1733.25, 0.274064
1733.83, 0.274192
1734.41, 0.274192
1734.99, 0.274449
1735.57, 0.274835
1736.15, 0.274963
1736.73, 0.275028
1737.32, 0.274899
1737.9, 0.274771
1738.48, 0.274578
1739.07, 0.274706
1739.65, 0.274899
1740.23, 0.274963
1740.82, 0.275220
1741.4, 0.275606
1741.99, 0.275734
1742.57, 0.275670
1743.16, 0.275670
1743.74, 0.275734
1744.33, 0.275863
1744.92, 0.275992
1745.51, 0.276184
1746.09, 0.276184
1746.68, 0.276184
1747.27, 0.276313
1747.86, 0.276249
1748.45, 0.276249
1749.04, 0.276506
1749.63, 0.276763
1750.22, 0.276634
1750.81, 0.276441
1751.4, 0.276570
1751.99, 0.276955
1752.59, 0.277148
1753.18, 0.277277
1753.77, 0.277341
1754.37, 0.277084
1754.96, 0.276891
1755.56, 0.277084
1756.15, 0.277341
1756.74, 0.277534
1757.34, 0.277662
1757.94, 0.277598
1758.53, 0.277405
1759.13, 0.277405
1759.73, 0.277662
1760.32, 0.277984
1760.92, 0.278176
1761.52, 0.277919
1762.12, 0.277919
1762.72, 0.278176
1763.32, 0.278562
1763.92, 0.278755
1764.52, 0.278883
1765.12, 0.279140
1765.72, 0.278947
1766.32, 0.279140
1766.92, 0.279076
1767.53, 0.278883
1768.13, 0.279204
1768.73, 0.279269
1769.34, 0.279012
1769.94, 0.279140
1770.55, 0.279462
1771.15, 0.279462
1771.76, 0.279462
1772.36, 0.279783
1772.97, 0.279911
1773.57, 0.279911
1774.18, 0.280168
1774.79, 0.280040
1775.4, 0.280104
1776.0, 0.280104
1776.61, 0.280233
1777.22, 0.280297
1777.83, 0.280361
1778.44, 0.280297
1779.05, 0.280297
1779.66, 0.280554
1780.27, 0.280682
1780.88, 0.280875
1781.5, 0.280747
1782.11, 0.280682
1782.72, 0.280875
1783.33, 0.280939
1783.95, 0.281068
1784.56, 0.281261
1785.18, 0.281261
1785.79, 0.281196
1786.41, 0.281261
1787.02, 0.281389
1787.64, 0.281325
1788.26, 0.281389
1788.87, 0.281454
1789.49, 0.281325
1790.11, 0.281325
1790.73, 0.281389
1791.35, 0.281454
1791.96, 0.281518
1792.58, 0.281903
1793.21, 0.282032
1793.83, 0.282032
1794.45, 0.282096
1795.07, 0.282032
1795.69, 0.282096
1796.31, 0.282417
1796.93, 0.282417
1797.56, 0.282289
1798.18, 0.282160
1798.8, 0.282289
1799.43, 0.282225
1800.05, 0.282289
1800.68, 0.282160
1801.3, 0.282225
1801.93, 0.282353
1802.56, 0.282482
1803.18, 0.282674
1803.81, 0.282931
1804.44, 0.282996
1805.07, 0.282931
1805.7, 0.282867
1806.33, 0.282546
1806.95, 0.282610
1807.58, 0.282931
1808.22, 0.283060
1808.85, 0.283188
1809.48, 0.283317
1810.11, 0.283381
1810.74, 0.283381
1811.38, 0.283381
1812.01, 0.283574
1812.64, 0.283638
1813.28, 0.283446
1813.91, 0.283317
1814.55, 0.283381
1815.18, 0.283381
1815.82, 0.283510
1816.45, 0.283831
1817.09, 0.284088
1817.73, 0.284152
1818.36, 0.283960
1819.0, 0.283831
1819.64, 0.283895
1820.28, 0.283895
1820.92, 0.283960
1821.56, 0.284024
1822.2, 0.284088
1822.84, 0.284409
1823.48, 0.284538
1824.12, 0.284731
1824.76, 0.284795
1825.41, 0.284409
1826.05, 0.284217
1826.69, 0.284538
1827.34, 0.284923
1827.98, 0.284988
1828.63, 0.284988
1829.27, 0.285181
1829.92, 0.284795
1830.56, 0.284602
1831.21, 0.285052
1831.86, 0.285245
1832.5, 0.285245
1833.15, 0.285502
1833.8, 0.285630
1834.45, 0.285502
1835.1, 0.285245
1835.75, 0.284988
1836.4, 0.285181
1837.05, 0.285438
1837.7, 0.285566
1838.35, 0.285823
1839.01, 0.285695
1839.66, 0.285759
1840.31, 0.286080
1840.96, 0.286080
1841.62, 0.285952
1842.27, 0.286209
1842.93, 0.286401
1843.58, 0.286466
1844.24, 0.286723
1844.9, 0.286916
1845.55, 0.286723
1846.21, 0.286466
1846.87, 0.286144
1847.53, 0.286273
1848.18, 0.286337
1848.84, 0.286530
1849.5, 0.286723
1850.16, 0.286916
1850.82, 0.287173
1851.48, 0.287301
1852.14, 0.287108
1852.81, 0.286980
1853.47, 0.286851
1854.13, 0.286980
1854.8, 0.287430
1855.46, 0.287237
1856.12, 0.287108
1856.79, 0.287237
1857.45, 0.287430
1858.12, 0.287622
1858.79, 0.287494
1859.45, 0.287301
1860.12, 0.287430
1860.79, 0.287815
1861.46, 0.288072
1862.12, 0.288136
1862.79, 0.288072
1863.46, 0.288008
1864.13, 0.288008
1864.8, 0.288072
1865.48, 0.288265
1866.15, 0.288393
1866.82, 0.288008
1867.49, 0.287687
1868.16, 0.287944
1868.84, 0.288393
1869.51, 0.288458
1870.19, 0.287944
1870.86, 0.287430
1871.54, 0.287879
1872.21, 0.288072
1872.89, 0.287751
1873.56, 0.288008
1874.24, 0.288458
1874.92, 0.288650
1875.6, 0.288522
1876.28, 0.288393
1876.96, 0.288329
1877.64, 0.288522
1878.32, 0.288779
1879.0, 0.288843
1879.68, 0.289036
1880.36, 0.289036
1881.04, 0.288972
1881.73, 0.288908
1882.41, 0.288972
1883.09, 0.288972
1883.78, 0.288715
1884.46, 0.288972
1885.15, 0.289293
1885.83, 0.289100
1886.52, 0.288972
1887.21, 0.289293
1887.89, 0.289422
1888.58, 0.289357
1889.27, 0.289357
1889.96, 0.289293
1890.65, 0.289486
1891.34, 0.289550
1892.03, 0.289614
1892.72, 0.289679
1893.41, 0.289679
1894.1, 0.289871
1894.79, 0.289936
1895.49, 0.289936
1896.18, 0.290128
1896.87, 0.290257
1897.57, 0.290193
1898.26, 0.290000
1898.96, 0.289871
1899.65, 0.289807
1900.35, 0.290000
1901.05, 0.290578
1901.74, 0.290707
1902.44, 0.290450
1903.14, 0.290514
1903.84, 0.290257
1904.54, 0.289936
1905.24, 0.290064
1905.94, 0.290514
1906.64, 0.290707
1907.34, 0.291028
1908.04, 0.291221
1908.75, 0.291478
1909.45, 0.291414
1910.15, 0.291285
1910.86, 0.291221
1911.56, 0.291221
1912.27, 0.291221
1912.97, 0.291092
1913.68, 0.291157
1914.39, 0.291349
1915.09, 0.291606
1915.8, 0.291606
1916.51, 0.291606
1917.22, 0.291863
1917.93, 0.292056
1918.64, 0.291992
1919.35, 0.291863
1920.06, 0.291606
1920.77, 0.291928
1921.48, 0.292442
1922.19, 0.292570
1922.91, 0.292442
1923.62, 0.292185
1924.33, 0.292313
1925.05, 0.292570
1925.76, 0.292699
1926.48, 0.292956
1927.19, 0.292892
1927.91, 0.292635
1928.63, 0.292635
1929.35, 0.293084
1930.07, 0.293213
1930.78, 0.293149
1931.5, 0.293277
1932.22, 0.293277
1932.94, 0.293277
1933.66, 0.293341
1934.39, 0.293470
1935.11, 0.293406
1935.83, 0.293149
1936.55, 0.293277
1937.28, 0.293598
1938.0, 0.293663
1938.73, 0.293598
1939.45, 0.293663
1940.18, 0.293855
1940.9, 0.293920
1941.63, 0.293855
1942.36, 0.293855
1943.09, 0.293791
1943.81, 0.293663
1944.54, 0.293663
1945.27, 0.293920
1946.0, 0.294048
1946.73, 0.293855
1947.47, 0.293727
1948.2, 0.293727
1948.93, 0.293920
1949.66, 0.294048
1950.4, 0.294370
1951.13, 0.294562
1951.86, 0.294562
1952.6, 0.294370
1953.34, 0.294113
1954.07, 0.294177
1954.81, 0.294113
1955.55, 0.294177
1956.29, 0.294370
1957.02, 0.294562
1957.76, 0.294562
1958.5, 0.294562
1959.24, 0.294434
1959.98, 0.294498
1960.72, 0.294434
1961.47, 0.294370
1962.21, 0.294370
1962.95, 0.294241
1963.7, 0.294177
1964.44, 0.294177
1965.18, 0.294241
1965.93, 0.294370
1966.67, 0.294370
1967.42, 0.294562
1968.17, 0.294627
1968.92, 0.294434
1969.66, 0.294434
1970.41, 0.294562
1971.16, 0.294627
1971.91, 0.294562
1972.66, 0.294691
1973.41, 0.294562
1974.16, 0.294562
1974.92, 0.294755
1975.67, 0.294755
1976.42, 0.294562
1977.18, 0.294434
1977.93, 0.294305
1978.69, 0.294305
1979.44, 0.294562
1980.2, 0.294755
1980.95, 0.294498
1981.71, 0.294370
1982.47, 0.294434
1983.23, 0.294241
1983.99, 0.294241
1984.74, 0.294305
1985.51, 0.294434
1986.27, 0.294627
1987.03, 0.294691
1987.79, 0.294434
1988.55, 0.294241
1989.32, 0.294305
1990.08, 0.294305
1990.84, 0.294434
1991.61, 0.294562
1992.37, 0.294691
1993.14, 0.294755
1993.9, 0.294691
1994.67, 0.294562
1995.44, 0.294370
1996.21, 0.294434
1996.98, 0.294627
1997.75, 0.294691
1998.52, 0.294691
1999.29, 0.294819
2000.06, 0.294884
2000.83, 0.294884
2001.6, 0.294948
2002.38, 0.295076
2003.15, 0.295076
2003.93, 0.295141
2004.7, 0.295205
2005.48, 0.295269
2006.25, 0.295205
2007.03, 0.295269
2007.81, 0.295333
2008.58, 0.295526
2009.36, 0.295912
2010.14, 0.295976
2010.92, 0.295848
2011.7, 0.295719
2012.48, 0.295848
2013.26, 0.295848
2014.05, 0.295976
2014.83, 0.296233
2015.61, 0.296362
2016.4, 0.296554
2017.18, 0.296554
2017.97, 0.296619
2018.75, 0.297004
2019.54, 0.297004
2020.32, 0.296876
2021.11, 0.297068
2021.9, 0.297197
2022.69, 0.297454
2023.48, 0.297518
2024.27, 0.297583
2025.06, 0.297647
2025.85, 0.297647
2026.64, 0.297904
2027.44, 0.298161
2028.23, 0.298225
2029.02, 0.298225
2029.82, 0.298418
2030.61, 0.298739
2031.41, 0.298868
2032.2, 0.298675
2033.0, 0.298675
2033.8, 0.298868
2034.6, 0.298932
2035.4, 0.299060
2036.2, 0.299125
2037.0, 0.299317
2037.8, 0.299446
2038.6, 0.299510
2039.4, 0.299703
2040.2, 0.299832
2041.01, 0.299832
2041.81, 0.299896
2042.61, 0.299960
2043.42, 0.299960
2044.22, 0.300153
2045.03, 0.300217
2045.84, 0.300281
2046.65, 0.300474
2047.46, 0.300538
2048.26, 0.300667
2049.07, 0.300731
2049.88, 0.300667
2050.69, 0.300603
2051.51, 0.300860
2052.32, 0.301117
2053.13, 0.301181
2053.94, 0.301052
2054.76, 0.300860
2055.57, 0.300988
2056.39, 0.301181
2057.2, 0.301374
2058.02, 0.301567
2058.84, 0.301631
2059.66, 0.301502
2060.48, 0.301438
2061.29, 0.301502
2062.11, 0.301631
2062.94, 0.301759
2063.76, 0.301888
2064.58, 0.302081
2065.4, 0.302081
2066.22, 0.301888
2067.05, 0.301824
2067.87, 0.301888
2068.7, 0.302016
2069.52, 0.302081
2070.35, 0.302145
2071.18, 0.302145
2072.0, 0.302016
2072.83, 0.301952
2073.66, 0.302016
2074.49, 0.301888
2075.32, 0.301759
2076.15, 0.301952
2076.98, 0.302145
2077.82, 0.302081
2078.65, 0.302081
2079.48, 0.302016
2080.32, 0.302209
2081.15, 0.302209
2081.99, 0.302209
2082.83, 0.302209
2083.66, 0.302273
2084.5, 0.302145
2085.34, 0.302145
2086.18, 0.302145
2087.02, 0.302209
2087.86, 0.302209
2088.7, 0.302145
2089.54, 0.302209
2090.39, 0.302402
2091.23, 0.302530
2092.07, 0.302595
2092.92, 0.302530
2093.76, 0.302338
2094.61, 0.302402
2095.45, 0.302530
2096.3, 0.302338
2097.15, 0.302273
2098.0, 0.302338
2098.85, 0.302338
2099.7, 0.302338
2100.55, 0.302273
2101.4, 0.302273
2102.25, 0.302209
2103.1, 0.302273
2103.96, 0.302273
2104.81, 0.302145
2105.67, 0.302145
2106.52, 0.302209
2107.38, 0.302338
2108.24, 0.302273
2109.09, 0.302273
2109.95, 0.302402
2110.81, 0.302402
2111.67, 0.302273
2112.53, 0.302338
2113.39, 0.302402
2114.25, 0.302402
2115.12, 0.302466
2115.98, 0.302595
2116.84, 0.302466
2117.71, 0.302402
2118.58, 0.302595
2119.44, 0.302595
2120.31, 0.302402
2121.18, 0.302595
2122.04, 0.302852
2122.91, 0.302852
2123.78, 0.302852
2124.65, 0.303044
2125.52, 0.303173
2126.4, 0.303173
2127.27, 0.303237
2128.14, 0.303366
2129.02, 0.303430
2129.89, 0.303430
2130.77, 0.303366
2131.64, 0.303366
2132.52, 0.303559
2133.4, 0.303430
2134.27, 0.303494
2135.15, 0.303687
2136.03, 0.303751
2136.91, 0.303880
2137.79, 0.303880
2138.68, 0.303944
2139.56, 0.304008
2140.44, 0.304073
2141.33, 0.304073
2142.21, 0.304008
2143.1, 0.304073
2143.99, 0.304330
2144.87, 0.304522
2145.76, 0.304458
2146.65, 0.304265
2147.54, 0.304330
2148.43, 0.304651
2149.32, 0.304779
2150.21, 0.304715
2151.1, 0.304587
2151.99, 0.304587
2152.89, 0.304715
2153.78, 0.304779
2154.68, 0.304651
2155.57, 0.304587
2156.47, 0.304587
2157.37, 0.304651
2158.27, 0.304779
2159.16, 0.304844
2160.06, 0.304844
2160.96, 0.304779
2161.86, 0.304779
2162.77, 0.304908
2163.67, 0.305036
2164.57, 0.304908
2165.48, 0.304715
2166.38, 0.304844
2167.29, 0.304908
2168.2, 0.304908
2169.1, 0.305289
2170.01, 0.305098
2170.92, 0.304908
2171.83, 0.304971
2172.74, 0.305225
2173.65, 0.305225
2174.56, 0.305225
2175.47, 0.304908
2176.39, 0.304971
2177.3, 0.305289
2178.22, 0.305352
2179.13, 0.305606
2180.05, 0.305669
2180.96, 0.305479
2181.88, 0.305225
2182.8, 0.305098
2183.72, 0.305162
2184.64, 0.304845
2185.56, 0.304591
2186.48, 0.304781
2187.41, 0.305225
2188.33, 0.304908
2189.25, 0.304274
2190.18, 0.304971
2191.1, 0.305479
2192.03, 0.305289
2192.96, 0.305098
2193.89, 0.304718
2194.82, 0.304527
2195.74, 0.304591
2196.68, 0.304401
2197.61, 0.304210
2198.54, 0.304464
2199.47, 0.304781
2200.4, 0.304591
2201.34, 0.304401
2202.28, 0.304527
2203.21, 0.304274
2204.15, 0.304337
2205.08, 0.304401
2206.02, 0.304147
2206.96, 0.304337
2207.9, 0.304210
2208.84, 0.304147
2209.78, 0.304147
2210.73, 0.303830
2211.67, 0.303703
2212.61, 0.303830
2213.56, 0.303830
2214.5, 0.303703
2215.45, 0.303386
2216.4, 0.303512
2217.35, 0.303512
2218.3, 0.303703
2219.24, 0.303386
2220.2, 0.302498
2221.15, 0.302244
2222.1, 0.302117
2223.05, 0.302498
2224.0, 0.302624
2224.96, 0.301990
2225.91, 0.301800
2226.87, 0.301610
2227.83, 0.301356
2228.79, 0.301546
2229.74, 0.301483
2230.7, 0.300912
2231.66, 0.299834
2232.63, 0.299263
2233.59, 0.299199
2234.55, 0.299136
2235.51, 0.298502
2236.48, 0.297867
2237.44, 0.297233
2238.41, 0.296535
2239.38, 0.296091
2240.34, 0.295711
2241.31, 0.294949
2242.28, 0.293871
2243.25, 0.292666
2244.22, 0.291778
2245.19, 0.291080
2246.17, 0.290890
2247.14, 0.289685
2248.12, 0.288987
2249.09, 0.288924
2250.07, 0.288924
2251.04, 0.289114
2252.02, 0.288860
2253.0, 0.288733
2253.98, 0.288860
2254.96, 0.289050
2255.94, 0.289241
2256.92, 0.289494
2257.91, 0.289685
2258.89, 0.290065
2259.88, 0.290319
2260.86, 0.290509
2261.85, 0.291271
2262.83, 0.291397
2263.82, 0.291207
2264.81, 0.291334
2265.8, 0.291715
2266.79, 0.291397
2267.78, 0.291144
2268.78, 0.291588
2269.77, 0.292222
2270.76, 0.292476
2271.76, 0.292349
2272.75, 0.292095
2273.75, 0.292603
2274.75, 0.292539
2275.75, 0.292476
2276.75, 0.292476
2277.75, 0.292159
2278.75, 0.291841
2279.75, 0.292285
2280.75, 0.292666
2281.76, 0.291968
2282.76, 0.291334
2283.77, 0.291017
2284.77, 0.290763
2285.78, 0.291080
2286.79, 0.290827
2287.8, 0.290509
2288.81, 0.290129
2289.82, 0.289621
2290.83, 0.289494
2291.84, 0.289431
2292.86, 0.288797
2293.87, 0.288289
2294.89, 0.287845
2295.91, 0.288099
2296.92, 0.288036
2297.94, 0.287465
2298.96, 0.287338
2299.98, 0.287465
2301.0, 0.287274
2302.02, 0.287021
2303.04, 0.286323
2304.07, 0.285752
2305.09, 0.285625
2306.12, 0.285942
2307.15, 0.286196
2308.17, 0.286006
2309.2, 0.285752
2310.23, 0.285689
2311.26, 0.285816
2312.29, 0.285689
2313.32, 0.285181
2314.35, 0.284928
2315.39, 0.284864
2316.42, 0.284801
2317.46, 0.284484
2318.5, 0.284103
2319.53, 0.284039
2320.57, 0.283786
2321.61, 0.282961
2322.65, 0.282707
2323.69, 0.282834
2324.73, 0.282898
2325.78, 0.282771
2326.82, 0.282390
2327.86, 0.281819
2328.91, 0.281693
2329.96, 0.281629
2331.01, 0.281439
2332.05, 0.281058
2333.1, 0.280931
2334.15, 0.280551
2335.21, 0.280107
2336.26, 0.280043
2337.31, 0.280107
2338.36, 0.280107
2339.42, 0.279917
2340.48, 0.279853
2341.53, 0.280170
2342.59, 0.279917
2343.65, 0.279726
2344.71, 0.280043
2345.77, 0.280107
2346.83, 0.280043
2347.9, 0.280297
2348.96, 0.280234
2350.02, 0.280107
2351.09, 0.280551
2352.16, 0.281122
2353.23, 0.281249
2354.29, 0.281693
2355.36, 0.282327
2356.43, 0.282390
2357.51, 0.282073
2358.58, 0.282454
2359.65, 0.283215
2360.73, 0.283342
2361.8, 0.283532
2362.88, 0.283913
2363.96, 0.284420
2365.03, 0.284991
2366.11, 0.285308
2367.19, 0.285942
2368.27, 0.286450
2369.36, 0.286640
2370.44, 0.286830
2371.53, 0.287718
2372.61, 0.288099
2373.7, 0.288289
2374.78, 0.288924
2375.87, 0.289431
2376.96, 0.289621
2378.05, 0.289685
2379.14, 0.289494
2380.24, 0.289812
2381.33, 0.290509
2382.42, 0.290890
2383.52, 0.291080
2384.61, 0.291461
2385.71, 0.291397
2386.81, 0.291461
2387.91, 0.291841
2389.01, 0.291841
2390.11, 0.291715
2391.22, 0.291968
2392.32, 0.292349
2393.42, 0.292222
2394.53, 0.291968
2395.64, 0.292032
2396.74, 0.292159
2397.85, 0.292476
2398.96, 0.292603
2400.07, 0.292729
2401.18, 0.292920
2402.3, 0.293173
2403.41, 0.293173
2404.52, 0.293047
2405.64, 0.293047
2406.76, 0.293237
2407.88, 0.293491
2408.99, 0.293808
2410.11, 0.294188
2411.23, 0.294125
2412.36, 0.293935
2413.48, 0.294061
2414.6, 0.294442
2415.73, 0.294696
2416.85, 0.294696
2417.98, 0.294632
2419.11, 0.294505
2420.24, 0.294379
2421.37, 0.294252
2422.5, 0.294379
2423.64, 0.294315
2424.77, 0.294442
2425.9, 0.294569
2427.04, 0.294696
2428.18, 0.294379
2429.31, 0.294188
2430.45, 0.294188
2431.59, 0.293744
2432.73, 0.293744
2433.88, 0.293871
2435.02, 0.293744
2436.16, 0.293554
2437.31, 0.293491
2438.45, 0.293617
2439.6, 0.293237
2440.75, 0.293173
2441.9, 0.293554
2443.05, 0.293808
2444.2, 0.293427
2445.35, 0.292856
2446.51, 0.292603
2447.67, 0.292539
2448.82, 0.292412
2449.98, 0.292285
2451.14, 0.292412
2452.3, 0.292412
2453.46, 0.292032
2454.62, 0.292032
2455.78, 0.291905
2456.94, 0.291461
2458.11, 0.291397
2459.28, 0.291207
2460.44, 0.291080
2461.61, 0.290953
2462.78, 0.290573
2463.95, 0.290319
2465.12, 0.290065
2466.3, 0.290192
2467.47, 0.290129
2468.65, 0.289812
2469.82, 0.289558
2471.0, 0.289431
2472.18, 0.289114
2473.36, 0.288670
2474.54, 0.288416
2475.72, 0.288353
2476.9, 0.288099
2478.08, 0.287972
2479.27, 0.288036
2480.46, 0.287909
2481.64, 0.287655
2482.83, 0.287338
2484.02, 0.287148
2485.21, 0.287338
2486.4, 0.287528
2487.6, 0.287528
2488.79, 0.287401
2489.99, 0.287211
2491.18, 0.286704
2492.38, 0.286767
2493.58, 0.286830
2494.78, 0.286894
2495.98, 0.286577
2497.18, 0.286450
2498.39, 0.286386
2499.59, 0.286450
2500.8, 0.286323
2502.01, 0.286260
2503.21, 0.286323
2504.42, 0.286260
2505.63, 0.286196
2506.84, 0.286260
2508.06, 0.286450
2509.27, 0.286323
2510.49, 0.286196
2511.7, 0.286260
2512.92, 0.286196
2514.14, 0.286196
2515.36, 0.286133
2516.58, 0.286133
2517.8, 0.286006
2519.03, 0.285879
2520.25, 0.285752
2521.48, 0.285625
2522.7, 0.285498
2523.93, 0.285181
2525.16, 0.285118
2526.39, 0.285372
2527.62, 0.285308
2528.86, 0.285308
2530.09, 0.285372
2531.33, 0.285054
2532.56, 0.284547
2533.8, 0.284547
2535.04, 0.284293
2536.28, 0.284039
2537.52, 0.284357
2538.76, 0.284610
2540.01, 0.284230
2541.25, 0.283913
2542.5, 0.283659
2543.75, 0.283722
2544.99, 0.284039
2546.24, 0.284039
2547.49, 0.283786
2548.75, 0.283976
2550.0, 0.283659
2551.26, 0.283278
2552.51, 0.283215
2553.77, 0.283596
2555.03, 0.283596
2556.29, 0.283659
2557.55, 0.283596
2558.81, 0.282961
2560.08, 0.281819
2561.34, 0.281185
2562.61, 0.280805
2563.88, 0.281185
2565.14, 0.282263
2566.41, 0.283025
2567.68, 0.282644
2568.96, 0.281883
2570.23, 0.281946
2571.51, 0.281883
2572.78, 0.280741
2574.06, 0.280868
2575.34, 0.281058
2576.62, 0.280995
2577.9, 0.281375
2579.18, 0.281629
2580.47, 0.281122
2581.75, 0.280931
2583.04, 0.280170
2584.32, 0.280678
2585.61, 0.281058
2586.9, 0.280234
2588.2, 0.280487
2589.49, 0.281185
2590.78, 0.281629
2592.08, 0.280741
2593.37, 0.278204
2594.67, 0.276682
2595.97, 0.278711
2597.27, 0.280741
2598.57, 0.281693
2599.88, 0.281566
2601.18, 0.281058
2602.49, 0.280678
2603.79, 0.279853
2605.1, 0.279219
2606.41, 0.279853
2607.72, 0.280487
2609.03, 0.280678
2610.35, 0.281122
2611.66, 0.281312
2612.98, 0.281122
2614.3, 0.281058
2615.62, 0.280107
2616.94, 0.279599
2618.26, 0.280234
2619.58, 0.279917
2620.91, 0.280741
2622.23, 0.281819
2623.56, 0.282073
2624.89, 0.281249
2626.22, 0.280297
2627.55, 0.280741
2628.88, 0.279917
2630.21, 0.279282
2631.55, 0.280170
2632.89, 0.280234
2634.22, 0.280361
2635.56, 0.281122
2636.9, 0.281629
2638.25, 0.281566
2639.59, 0.281058
2640.93, 0.280678
2642.28, 0.280614
2643.63, 0.280234
2644.98, 0.279536
2646.33, 0.279599
2647.68, 0.279917
2649.03, 0.280043
2650.39, 0.279663
2651.74, 0.278648
2653.1, 0.278458
2654.46, 0.278458
2655.82, 0.278585
2657.18, 0.278711
2658.54, 0.277887
2659.9, 0.277316
2661.27, 0.277443
2662.64, 0.276935
2664.01, 0.274906
2665.38, 0.273574
2666.74, 0.273700
2668.12, 0.274018
2669.49, 0.272495
2670.87, 0.272812
2672.24, 0.274271
2673.62, 0.274081
2675.0, 0.272495
2676.38, 0.270719
2677.76, 0.270656
2679.15, 0.271100
2680.54, 0.271544
2681.92, 0.270592
2683.31, 0.269577
2684.7, 0.268626
2686.09, 0.267548
2687.48, 0.266533
2688.88, 0.265328
2690.27, 0.263869
2691.67, 0.261522
2693.07, 0.258350
2694.47, 0.255813
2695.87, 0.253720
2697.27, 0.250992
2698.67, 0.247187
2700.08, 0.242747
2701.49, 0.238497
2702.9, 0.235072
2704.31, 0.231900
2705.72, 0.228475
2707.13, 0.223527
2708.54, 0.216106
2709.96, 0.206021
2711.38, 0.194984
2712.8, 0.184264
2714.22, 0.173418
2715.64, 0.162825
2717.06, 0.153691
2718.49, 0.146079
2719.91, 0.139736
2721.34, 0.135677
2722.77, 0.132949
2724.2, 0.130539
2725.63, 0.129651
2727.07, 0.129461
2728.5, 0.129207
2729.94, 0.129080
2731.38, 0.129334
2732.82, 0.129461
2734.26, 0.129334
2735.7, 0.129461
2737.15, 0.129017
2738.59, 0.127875
2740.04, 0.126923
2741.49, 0.126606
2742.94, 0.126353
2744.39, 0.125718
2745.84, 0.124576
2747.3, 0.123244
2748.76, 0.122230
2750.21, 0.121024
2751.67, 0.120073
2753.14, 0.118995
2754.6, 0.117282
2756.06, 0.116140
2757.53, 0.115823
2759.0, 0.115125
2760.46, 0.114047
2761.94, 0.112715
2763.41, 0.112017
2764.88, 0.111066
2766.36, 0.109417
2767.83, 0.107070
2769.31, 0.104533
2770.79, 0.101488
2772.27, 0.0980630
2773.76, 0.0942570
2775.24, 0.0902610
2776.73, 0.0861380
2778.22, 0.0822050
2779.71, 0.0782090
2781.2, 0.0744670
2782.69, 0.0713590
2784.18, 0.0685680
2785.68, 0.0656500
2787.18, 0.0631760
2788.68, 0.0612100
2790.18, 0.0593700
2791.68, 0.0576580
2793.19, 0.0564530
2794.69, 0.0553110
2796.2, 0.0542330
2797.71, 0.0533450
2799.22, 0.0524570
2800.73, 0.0517590
2802.24, 0.0509980
2803.76, 0.0504270
2805.28, 0.0501730
2806.8, 0.0498560
2808.32, 0.0497290
2809.84, 0.0496020
2811.36, 0.0497290
2812.89, 0.0498560
2814.42, 0.0498560
2815.94, 0.0498560
2817.48, 0.0499190
2819.01, 0.0501100
2820.54, 0.0504270
2822.08, 0.0507440
2823.61, 0.0511880
2825.15, 0.0516950
2826.69, 0.0522030
2828.23, 0.0526470
2829.78, 0.0529010
2831.32, 0.0530910
2832.87, 0.0535980
2834.42, 0.0539790
2835.97, 0.0542960
2837.52, 0.0546130
2839.08, 0.0551210
2840.63, 0.0557550
2842.19, 0.0562620
2843.75, 0.0568970
2845.31, 0.0572140
2846.87, 0.0574040
2848.44, 0.0575310
2850.0, 0.0579120
2851.57, 0.0582920
2853.14, 0.0588000
2854.71, 0.0591170
2856.28, 0.0593070
2857.86, 0.0596240
2859.43, 0.0598140
2861.01, 0.0599410
2862.59, 0.0600050
2864.17, 0.0599410
2865.76, 0.0600050
2867.34, 0.0600680
2868.93, 0.0601320
2870.52, 0.0600050
2872.11, 0.0596240
2873.7, 0.0593070
2875.29, 0.0592440
2876.89, 0.0589900
2878.49, 0.0585460
2880.08, 0.0579750
2881.69, 0.0574680
2883.29, 0.0570240
2884.89, 0.0565160
2886.5, 0.0561990
2888.11, 0.0558180
2889.72, 0.0550570
2891.33, 0.0544230
2892.94, 0.0538520
2894.56, 0.0534710
2896.17, 0.0530270
2897.79, 0.0524570
2899.42, 0.0518220
2901.04, 0.0515050
2902.66, 0.0511880
2904.29, 0.0506170
2905.92, 0.0504270
2907.55, 0.0501100
2909.18, 0.0496660
2910.81, 0.0492850
2912.45, 0.0490950
2914.08, 0.0488410
2915.72, 0.0485240
2917.36, 0.0482700
2919.01, 0.0483340
2920.65, 0.0483340
2922.3, 0.0483970
2923.94, 0.0484610
2925.59, 0.0484610
2927.25, 0.0484610
2928.9, 0.0484610
2930.56, 0.0484610
2932.21, 0.0487780
2933.87, 0.0488410
2935.53, 0.0489050
2937.2, 0.0492850
2938.86, 0.0495390
2940.53, 0.0499190
2942.2, 0.0503630
2943.87, 0.0503000
2945.54, 0.0503630
2947.22, 0.0507440
2948.89, 0.0511880
2950.57, 0.0516950
2952.25, 0.0520130
2953.93, 0.0524570
2955.62, 0.0528370
2957.3, 0.0529640
2958.99, 0.0532810
2960.68, 0.0539790
2962.37, 0.0544860
2964.07, 0.0548670
2965.76, 0.0553110
2967.46, 0.0557550
2969.16, 0.0562620
2970.86, 0.0568330
2972.56, 0.0574040
2974.27, 0.0579750
2975.98, 0.0582920
2977.69, 0.0586730
2979.4, 0.0593070
2981.11, 0.0600680
2982.83, 0.0605760
2984.54, 0.0610200
2986.26, 0.0616540
2987.98, 0.0624150
2989.71, 0.0631130
2991.43, 0.0636840
2993.16, 0.0643810
2994.89, 0.0650790
2996.62, 0.0657130
2998.35, 0.0662840
3000.09, 0.0670460
3001.83, 0.0676800
3003.57, 0.0684410
3005.31, 0.0692020
3007.05, 0.0699000
3008.79, 0.0705980
3010.54, 0.0713590
3012.29, 0.0721830
3014.04, 0.0730710
3015.8, 0.0738330
3017.55, 0.0745300
3019.31, 0.0752910
3021.07, 0.0761160
3022.83, 0.0770040
3024.59, 0.0777650
3026.36, 0.0784630
3028.13, 0.0793510
3029.9, 0.0801760
3031.67, 0.0810640
3033.44, 0.0820150
3035.22, 0.0829030
3037.0, 0.0839810
3038.78, 0.0848690
3040.56, 0.0856940
3042.34, 0.0866450
3044.13, 0.0877240
3045.92, 0.0886750
3047.71, 0.0894360
3049.5, 0.0905150
3051.3, 0.0917200
3053.09, 0.0926710
3054.89, 0.0936230
3056.69, 0.0946380
3058.5, 0.0957160
3060.3, 0.0966040
3062.11, 0.0975550
3063.92, 0.0986970
3065.73, 0.0999020
3067.55, 0.100981
3069.36, 0.102059
3071.18, 0.103137
3073.0, 0.104089
3074.82, 0.105230
3076.65, 0.106499
3078.48, 0.107641
3080.31, 0.108782
3082.14, 0.110114
3083.97, 0.111193
3085.8, 0.112208
3087.64, 0.113286
3089.48, 0.114428
3091.33, 0.115569
3093.17, 0.116711
3095.02, 0.117916
3096.87, 0.118995
3098.72, 0.119946
3100.57, 0.121215
3102.43, 0.122610
3104.28, 0.123562
3106.14, 0.124703
3108.01, 0.125845
3109.87, 0.126987
3111.74, 0.128192
3113.61, 0.129270
3115.48, 0.130412
3117.35, 0.131617
3119.23, 0.132759
3121.1, 0.133837
3122.98, 0.134725
3124.87, 0.135740
3126.75, 0.136945
3128.64, 0.138087
3130.53, 0.139102
3132.42, 0.140244
3134.31, 0.141259
3136.21, 0.142337
3138.11, 0.143415
3140.01, 0.144557
3141.91, 0.145572
3143.82, 0.146650
3145.73, 0.147855
3147.64, 0.148870
3149.55, 0.149822
3151.46, 0.150710
3153.38, 0.151725
3155.3, 0.152930
3157.22, 0.154008
3159.14, 0.155086
3161.07, 0.156038
3163.0, 0.156926
3164.93, 0.157941
3166.86, 0.158956
3168.8, 0.160034
3170.74, 0.161112
3172.68, 0.162127
3174.62, 0.163142
3176.56, 0.164093
3178.51, 0.164855
3180.46, 0.165743
3182.42, 0.166694
3184.37, 0.167645
3186.33, 0.168660
3188.29, 0.169675
3190.25, 0.170563
3192.21, 0.171578
3194.18, 0.172530
3196.15, 0.173544
3198.12, 0.174496
3200.09, 0.175447
3202.07, 0.176399
3204.05, 0.177350
3206.03, 0.178175
3208.02, 0.179063
3210.0, 0.180078
3211.99, 0.180966
3213.98, 0.181664
3215.98, 0.182552
3217.97, 0.183503
3219.97, 0.184328
3221.97, 0.185152
3223.98, 0.185913
3225.98, 0.186865
3227.99, 0.187880
3230.0, 0.188831
3232.02, 0.189592
3234.03, 0.190353
3236.05, 0.190988
3238.07, 0.191749
3240.1, 0.192637
3242.12, 0.193461
3244.15, 0.194159
3246.18, 0.194857
3248.22, 0.195491
3250.25, 0.196189
3252.29, 0.196887
3254.33, 0.197584
3256.38, 0.198219
3258.43, 0.198916
3260.47, 0.199614
3262.53, 0.200312
3264.58, 0.201010
3266.64, 0.201581
3268.7, 0.202151
3270.76, 0.202786
3272.82, 0.203483
3274.89, 0.204118
3276.96, 0.204815
3279.04, 0.205386
3281.11, 0.205957
3283.19, 0.206592
3285.27, 0.207099
3287.35, 0.207670
3289.44, 0.208241
3291.53, 0.208938
3293.62, 0.209573
3295.71, 0.210017
3297.81, 0.210588
3299.91, 0.211032
3302.01, 0.211476
3304.11, 0.212173
3306.22, 0.212617
3308.33, 0.212998
3310.44, 0.213696
3312.56, 0.214457
3314.68, 0.214901
3316.8, 0.215155
3318.92, 0.215662
3321.05, 0.216296
3323.18, 0.216804
3325.31, 0.217121
3327.44, 0.217438
3329.58, 0.217819
3331.72, 0.218263
3333.86, 0.218707
3336.01, 0.219151
3338.16, 0.219595
3340.31, 0.220039
3342.46, 0.220356
3344.61, 0.220546
3346.77, 0.220673
3348.94, 0.220927
3351.1, 0.221117
3353.27, 0.221244
3355.44, 0.221180
3357.61, 0.221307
3359.79, 0.221307
3361.97, 0.220990
3364.15, 0.220546
3366.33, 0.219912
3368.52, 0.219341
3370.71, 0.218897
3372.9, 0.218707
3375.1, 0.218643
3377.3, 0.218960
3379.5, 0.219468
3381.71, 0.220039
3383.91, 0.220863
3386.12, 0.221688
3388.34, 0.222259
3390.55, 0.222703
3392.77, 0.222956
3394.99, 0.222766
3397.22, 0.222322
3399.45, 0.221751
3401.68, 0.221117
3403.91, 0.220229
3406.15, 0.219404
3408.39, 0.218833
3410.63, 0.218453
3412.87, 0.218263
3415.12, 0.218326
3417.37, 0.218707
3419.63, 0.219468
3421.88, 0.220863
3424.14, 0.222576
3426.41, 0.224288
3428.67, 0.225811
3430.94, 0.227143
3433.21, 0.228348
3435.49, 0.229490
3437.77, 0.230378
3440.05, 0.231202
3442.33, 0.231963
3444.62, 0.232598
3446.91, 0.233296
3449.2, 0.233930
3451.5, 0.234691
3453.8, 0.235325
3456.1, 0.235960
3458.41, 0.236467
3460.72, 0.236848
3463.03, 0.237228
3465.34, 0.237482
3467.66, 0.237609
3469.98, 0.237609
3472.31, 0.237609
3474.63, 0.237736
3476.96, 0.237862
3479.3, 0.238116
3481.64, 0.238433
3483.97, 0.238750
3486.32, 0.238624
3488.66, 0.238370
3491.01, 0.238370
3493.36, 0.238053
3495.72, 0.237609
3498.08, 0.237418
3500.44, 0.237862
3502.81, 0.238687
3505.18, 0.239702
3507.55, 0.241034
3509.92, 0.242620
3512.3, 0.244015
3514.68, 0.245157
3517.06, 0.246172
3519.45, 0.247060
3521.84, 0.247821
3524.24, 0.248519
3526.64, 0.249090
3529.04, 0.249660
3531.44, 0.250168
3533.85, 0.250485
3536.26, 0.250992
3538.67, 0.251627
3541.09, 0.252071
3543.51, 0.252515
3545.93, 0.252959
3548.36, 0.253339
3550.79, 0.253720
3553.22, 0.253974
3555.66, 0.254291
3558.1, 0.254671
3560.54, 0.255179
3562.99, 0.255623
3565.44, 0.255877
3567.9, 0.256194
3570.35, 0.256638
3572.81, 0.257145
3575.28, 0.257526
3577.75, 0.257843
3580.22, 0.258224
3582.69, 0.258731
3585.17, 0.259048
3587.65, 0.259365
3590.14, 0.259682
3592.62, 0.260126
3595.11, 0.260444
3597.61, 0.260761
3600.11, 0.261141
3602.61, 0.261458
3605.11, 0.261776
3607.62, 0.262156
3610.14, 0.262346
3612.65, 0.262473
3615.17, 0.262854
3617.69, 0.263234
3620.22, 0.263552
3622.75, 0.263742
3625.28, 0.264059
3627.82, 0.264313
3630.36, 0.264503
3632.9, 0.264757
3635.45, 0.264947
3638.0, 0.265137
3640.56, 0.265455
3643.12, 0.265708
3645.68, 0.266025
3648.24, 0.266216
3650.81, 0.266406
3653.39, 0.266596
3655.96, 0.266850
3658.54, 0.267104
3661.13, 0.267484
3663.71, 0.267611
3666.3, 0.267738
3668.9, 0.268055
3671.5, 0.268245
3674.1, 0.268372
3676.7, 0.268626
3679.31, 0.268943
3681.93, 0.269133
3684.54, 0.269197
3687.17, 0.269387
3689.79, 0.269577
3692.42, 0.269704
3695.05, 0.269958
3697.69, 0.270339
3700.32, 0.270529
3702.97, 0.270656
3705.61, 0.270909
3708.27, 0.271163
3710.92, 0.271290
3713.58, 0.271544
3716.24, 0.271734
3718.91, 0.271861
3721.58, 0.271988
3724.25, 0.272368
3726.93, 0.272495
3729.61, 0.272559
3732.29, 0.272749
3734.98, 0.273003
3737.67, 0.273256
3740.37, 0.273383
3743.07, 0.273447
3745.78, 0.273764
3748.49, 0.274018
3751.2, 0.274144
3753.91, 0.274271
3756.63, 0.274398
3759.36, 0.274588
3762.09, 0.274779
3764.82, 0.274969
3767.55, 0.275159
3770.29, 0.275286
3773.04, 0.275413
3775.78, 0.275603
3778.54, 0.275730
3781.29, 0.275857
3784.05, 0.276111
3786.82, 0.276111
3789.59, 0.276111
3792.36, 0.276238
3795.13, 0.276238
3797.92, 0.276428
3800.7, 0.276618
3803.49, 0.276872
3806.28, 0.276935
3809.08, 0.277126
3811.88, 0.277252
3814.68, 0.277189
3817.49, 0.277316
3820.31, 0.277443
3823.12, 0.277570
3825.94, 0.277570
3828.77, 0.277697
3831.6, 0.277823
3834.43, 0.278014
3837.27, 0.278204
3840.11, 0.278394
3842.96, 0.278521
3845.81, 0.278648
3848.67, 0.278838
3851.53, 0.278902
3854.39, 0.278965
3857.26, 0.279092
3860.13, 0.279219
3863.01, 0.279346
3865.89, 0.279346
3868.77, 0.279473
3871.66, 0.279663
3874.55, 0.279853
3877.45, 0.279917
3880.35, 0.279917
3883.26, 0.279980
3886.17, 0.280107
3889.09, 0.280234
3892.01, 0.280361
3894.93, 0.280487
3897.86, 0.280551
3900.79, 0.280614
3903.73, 0.280678
3906.67, 0.280741
3909.62, 0.280868
3912.57, 0.280931
3915.52, 0.280805
3918.48, 0.280931
3921.45, 0.280995
3924.42, 0.281185
3927.39, 0.281312
3930.37, 0.281185
3933.35, 0.281122
3936.34, 0.281249
3939.33, 0.281312
3942.32, 0.281312
3945.32, 0.281375
3948.33, 0.281312
3951.34, 0.281439
3954.35, 0.281566
3957.37, 0.281629
3960.39, 0.281629
3963.42, 0.281693
3966.45, 0.281629
3969.49, 0.281756
3972.53, 0.281883
3975.58, 0.282010
3978.63, 0.282010
3981.68, 0.282010
3984.75, 0.282137
3987.81, 0.282327
3990.88, 0.282390
3993.95, 0.282390
3997.03, 0.282390
4000.12, 0.282390
4003.21, 0.282390
4006.3, 0.282517
4009.4, 0.282454
4012.5, 0.282517
4015.61, 0.282517
4018.72, 0.282581
4021.84, 0.282644
4024.96, 0.282707
4028.09, 0.282707
4031.22, 0.282834
4034.36, 0.282898
4037.5, 0.282898
4040.65, 0.282961
4043.8, 0.283025
4046.96, 0.283025
4050.12, 0.283025
4053.29, 0.283088
4056.46, 0.283088
4059.64, 0.283151
4062.82, 0.283151
4066.0, 0.283088
4069.19, 0.283215
4072.39, 0.283215
4075.59, 0.283215
4078.8, 0.283278
4082.01, 0.283215
4085.23, 0.283215
4088.45, 0.283405
4091.68, 0.283342
4094.91, 0.283278
4098.15, 0.283278
4101.39, 0.283278
4104.63, 0.283215
4107.89, 0.283278
4111.14, 0.283278
4114.41, 0.283278
4117.67, 0.283215
4120.95, 0.283342
4124.23, 0.283405
4127.51, 0.283342
4130.8, 0.283215
4134.09, 0.283151
4137.39, 0.283088
4140.7, 0.283088
4144.01, 0.282961
4147.32, 0.282961
4150.64, 0.283025
4153.97, 0.283151
4157.3, 0.283025
4160.64, 0.283088
4163.98, 0.283025
4167.33, 0.282961
4170.68, 0.282834
4174.04, 0.282771
4177.4, 0.282707
4180.77, 0.282517
4184.14, 0.282517
4187.52, 0.282644
4190.91, 0.282581
4194.3, 0.282263
4197.69, 0.281883
4201.1, 0.281566
4204.5, 0.281058
4207.92, 0.280551
4211.34, 0.279790
4214.76, 0.279029
4218.19, 0.278141
4221.62, 0.277570
4225.06, 0.277126
4228.51, 0.276618
4231.96, 0.276491
4235.42, 0.276428
4238.88, 0.276365
4242.35, 0.276618
4245.83, 0.276999
4249.31, 0.277887
4252.79, 0.278902
4256.28, 0.279346
4259.78, 0.278775
4263.29, 0.277760
4266.79, 0.277062
4270.31, 0.276682
4273.83, 0.276491
4277.35, 0.276428
4280.89, 0.276365
4284.42, 0.276428
4287.97, 0.276428
4291.52, 0.276428
4295.07, 0.276491
4298.63, 0.276618
4302.2, 0.276809
4305.78, 0.277062
4309.35, 0.277189
4312.94, 0.277443
4316.53, 0.277697
4320.13, 0.277823
4323.73, 0.277887
4327.34, 0.278014
4330.96, 0.278077
4334.58, 0.278141
4338.21, 0.278077
4341.84, 0.278014
4345.48, 0.277950
4349.12, 0.277823
4352.77, 0.277697
4356.43, 0.277697
4360.1, 0.277633
4363.76, 0.277506
4367.44, 0.277443
4371.12, 0.277316
4374.81, 0.277252
4378.51, 0.277189
4382.21, 0.276999
4385.92, 0.276872
4389.63, 0.276682
4393.35, 0.276491
4397.08, 0.276365
4400.81, 0.276238
4404.55, 0.275984
4408.29, 0.275857
4412.04, 0.275667
4415.8, 0.275540
4419.57, 0.275413
4423.34, 0.275350
4427.12, 0.275096
4430.9, 0.274779
4434.69, 0.274525
4438.49, 0.274398
4442.29, 0.274144
4446.1, 0.273827
4449.92, 0.273574
4453.74, 0.273383
4457.57, 0.273193
4461.41, 0.273003
4465.25, 0.272559
4469.1, 0.272305
4472.95, 0.272051
4476.82, 0.271798
4480.69, 0.271480
4484.56, 0.271163
4488.44, 0.270973
4492.33, 0.270719
4496.23, 0.270529
4500.13, 0.270275
4504.04, 0.269958
4507.96, 0.269577
4511.88, 0.269197
4515.81, 0.268943
4519.75, 0.268626
4523.69, 0.268309
4527.65, 0.267928
4531.6, 0.267611
4535.57, 0.267167
4539.54, 0.266723
4543.52, 0.266343
4547.5, 0.265962
4551.5, 0.265518
4555.5, 0.265074
4559.5, 0.264567
4563.52, 0.264059
4567.54, 0.263488
4571.56, 0.262981
4575.6, 0.262473
4579.64, 0.261966
4583.69, 0.261332
4587.75, 0.260634
4591.81, 0.260126
4595.88, 0.259556
4599.96, 0.258794
4604.04, 0.258224
4608.14, 0.257780
4612.24, 0.257335
4616.34, 0.256765
4620.46, 0.256257
4624.58, 0.255813
4628.71, 0.255433
4632.84, 0.255052
4636.99, 0.254671
4641.14, 0.254227
4645.3, 0.253720
4649.47, 0.253339
4653.64, 0.252959
4657.82, 0.252451
4662.01, 0.251944
4666.21, 0.251436
4670.41, 0.250866
4674.62, 0.250358
4678.84, 0.249724
4683.07, 0.248963
4687.3, 0.248328
4691.54, 0.247567
4695.79, 0.246806
4700.05, 0.246045
4704.31, 0.245093
4708.59, 0.244269
4712.87, 0.243571
4717.15, 0.242620
4721.45, 0.241668
4725.76, 0.240780
4730.07, 0.239765
4734.39, 0.238750
4738.72, 0.237862
4743.05, 0.236911
4747.39, 0.236086
4751.75, 0.235072
4756.1, 0.234310
4760.47, 0.233549
4764.85, 0.232725
4769.23, 0.231900
4773.62, 0.231202
4778.02, 0.230568
4782.43, 0.229997
4786.85, 0.229299
4791.27, 0.228665
4795.7, 0.228094
4800.14, 0.227587
4804.59, 0.226953
4809.05, 0.226255
4813.51, 0.225747
4817.99, 0.225176
4822.47, 0.224415
4826.96, 0.223654
4831.46, 0.222956
4835.96, 0.222259
4840.48, 0.221498
4845.0, 0.220927
4849.54, 0.220102
4854.08, 0.219277
4858.63, 0.218580
4863.18, 0.217882
4867.75, 0.216994
4872.33, 0.216169
4876.91, 0.215408
4881.5, 0.214584
4886.1, 0.213696
4890.71, 0.212681
4895.33, 0.211666
4899.96, 0.210841
4904.59, 0.210017
4909.24, 0.209129
4913.89, 0.208431
4918.55, 0.207606
4923.22, 0.206718
4927.9, 0.205767
4932.59, 0.204942
4937.29, 0.204245
4942.0, 0.203483
4946.71, 0.202849
4951.44, 0.202215
4956.17, 0.201581
4960.91, 0.201073
4965.67, 0.200629
4970.43, 0.200122
4975.2, 0.199741
4979.98, 0.199360
4984.76, 0.199043
4989.56, 0.198916
4994.37, 0.198726
4999.18, 0.198536
5004.01, 0.198472
5008.84, 0.198472
5013.69, 0.198282
5018.54, 0.198155
5023.4, 0.198282
5028.28, 0.198409
5033.16, 0.198472
5038.05, 0.198599
5042.95, 0.198726
5047.86, 0.198599
5052.78, 0.198536
5057.71, 0.198663
5062.65, 0.198663
5067.6, 0.198663
5072.56, 0.198663
5077.53, 0.198599
5082.5, 0.198599
5087.49, 0.198663
5092.49, 0.198599
5097.5, 0.198536
5102.51, 0.198536
5107.54, 0.198536
5112.58, 0.198472
5117.62, 0.198346
5122.68, 0.198282
5127.75, 0.198155
5132.82, 0.197965
5137.91, 0.197711
5143.01, 0.197394
5148.12, 0.197014
5153.23, 0.197014
5158.36, 0.196823
5163.5, 0.196506
5168.65, 0.196189
5173.81, 0.195872
5178.98, 0.195364
5184.15, 0.194857
5189.34, 0.194413
5194.54, 0.193969
5199.75, 0.193398
5204.98, 0.192954
5210.21, 0.192193
5215.45, 0.191685
5220.7, 0.191432
5225.96, 0.190861
5231.23, 0.190227
5236.52, 0.189465
5241.81, 0.189021
5247.12, 0.188577
5252.44, 0.188070
5257.76, 0.187499
5263.1, 0.186928
5268.45, 0.186548
5273.81, 0.186104
5279.18, 0.185660
5284.56, 0.185279
5289.95, 0.184708
5295.36, 0.184454
5300.77, 0.184518
5306.2, 0.184391
5311.63, 0.184137
5317.08, 0.183884
5322.54, 0.183630
5328.01, 0.183440
5333.49, 0.183313
5338.98, 0.183122
5344.49, 0.182678
5350.0, 0.182234
5355.53, 0.182425
5361.07, 0.182742
5366.62, 0.182742
5372.18, 0.182552
5377.75, 0.182488
5383.34, 0.182361
5388.93, 0.182234
5394.54, 0.182234
5400.16, 0.182171
5405.79, 0.181917
5411.44, 0.181664
5417.09, 0.180902
5422.76, 0.180458
5428.43, 0.180966
5434.12, 0.181093
5439.83, 0.180902
5445.54, 0.180649
5451.26, 0.180395
5457.0, 0.179887
5462.75, 0.179063
5468.52, 0.178936
5474.29, 0.178746
5480.08, 0.178302
5485.88, 0.178238
5491.69, 0.177985
5497.51, 0.177604
5503.35, 0.177223
5509.2, 0.176970
5515.06, 0.176526
5520.93, 0.176018
5526.82, 0.175765
5532.71, 0.175574
5538.63, 0.175257
5544.55, 0.174750
5550.49, 0.174242
5556.44, 0.174115
5562.4, 0.174052
5568.37, 0.173735
5574.36, 0.172847
5580.36, 0.172403
5586.37, 0.172910
5592.4, 0.173037
5598.44, 0.172720
5604.49, 0.172403
5610.56, 0.172276
5616.63, 0.172086
5622.73, 0.172086
5628.83, 0.171768
5634.95, 0.171071
5641.08, 0.170310
5647.23, 0.170627
5653.39, 0.170817
5659.56, 0.171007
5665.74, 0.171007
5671.94, 0.170310
5678.15, 0.169929
5684.38, 0.169866
5690.62, 0.169485
5696.87, 0.169295
5703.14, 0.168533
5709.42, 0.167328
5715.72, 0.166821
5722.03, 0.166567
5728.35, 0.166187
5734.69, 0.165425
5741.03, 0.164474
5747.4, 0.163396
5753.78, 0.162888
5760.17, 0.161176
5766.58, 0.159400
5773.0, 0.159590
5779.44, 0.159400
5785.88, 0.158829
5792.35, 0.158131
5798.83, 0.157306
5805.32, 0.156672
5811.83, 0.155530
5818.35, 0.153818
5824.89, 0.153374
5831.45, 0.153627
5838.01, 0.153818
5844.59, 0.153564
5851.19, 0.152993
5857.8, 0.152232
5864.43, 0.151788
5871.07, 0.151534
5877.73, 0.149948
5884.4, 0.150075
5891.09, 0.150519
5897.79, 0.150519
5904.5, 0.151598
5911.23, 0.151915
5917.98, 0.151788
5924.75, 0.151534
5931.53, 0.150266
5938.32, 0.149568
5945.13, 0.150773
5951.96, 0.151217
5958.8, 0.151027
5965.65, 0.150075
5972.53, 0.149948
5979.42, 0.149885
5986.32, 0.149187
5993.24, 0.149187
6000.18, 0.149631
6007.13, 0.149251
6014.1, 0.148743
6021.08, 0.148807
6028.09, 0.148743
6035.1, 0.148172
6042.14, 0.146206
6049.19, 0.144620
6056.25, 0.146079
6063.34, 0.146206
6070.44, 0.145191
6077.55, 0.145128
6084.69, 0.145635
6091.84, 0.145382
6099.0, 0.144684
6106.19, 0.143352
6113.39, 0.142210
6120.61, 0.142781
6127.84, 0.143035
6135.09, 0.142337
6142.36, 0.141512
6149.65, 0.140941
6156.95, 0.140180
6164.27, 0.139863
6171.61, 0.139800
6178.97, 0.138912
6186.34, 0.138087
6193.73, 0.138404
6201.14, 0.138341
6208.57, 0.137960
6216.01, 0.137707
6223.47, 0.137453
6230.95, 0.137072
6238.45, 0.136882
6245.97, 0.136692
6253.5, 0.136628
6261.06, 0.136438
6268.63, 0.136438
6276.21, 0.136438
6283.82, 0.136565
6291.45, 0.136692
6299.1, 0.136755
6306.76, 0.136818
6314.44, 0.136882
6322.14, 0.137072
6329.86, 0.137263
6337.6, 0.136755
6345.35, 0.136692
6353.13, 0.138024
6360.92, 0.138531
6368.74, 0.138214
6376.57, 0.138848
6384.43, 0.139609
6392.3, 0.140053
6400.19, 0.139927
6408.1, 0.138404
6416.03, 0.138404
6423.98, 0.140371
6431.95, 0.141449
6439.94, 0.142400
6447.95, 0.142908
6455.98, 0.143479
6464.03, 0.143859
6472.1, 0.143606
6480.19, 0.143352
6488.31, 0.142908
6496.44, 0.143542
6504.59, 0.145445
6512.76, 0.145952
6520.95, 0.146016
6529.16, 0.146967
6537.4, 0.147411
6545.65, 0.147348
6553.92, 0.147411
6562.22, 0.147538
6570.54, 0.147094
6578.88, 0.147728
6587.23, 0.148299
6595.61, 0.148616
6604.02, 0.149187
6612.44, 0.149314
6620.89, 0.149187
6629.35, 0.148172
6637.84, 0.147855
6646.35, 0.149631
6654.88, 0.150900
6663.44, 0.150837
6672.01, 0.150329
6680.61, 0.150139
6689.23, 0.150773
6697.88, 0.150963
6706.54, 0.150329
6715.23, 0.149948
6723.94, 0.150266
6732.67, 0.150773
6741.42, 0.150773
6750.2, 0.150519
6759.0, 0.150329
6767.82, 0.149631
6776.67, 0.148743
6785.54, 0.147665
6794.44, 0.147221
6803.35, 0.147411
6812.29, 0.147094
6821.26, 0.146206
6830.24, 0.145952
6839.25, 0.145952
6848.29, 0.145128
6857.35, 0.143732
6866.43, 0.143479
6875.54, 0.144494
6884.67, 0.144747
6893.82, 0.144367
6903.0, 0.143923
6912.2, 0.143923
6921.43, 0.143986
6930.69, 0.144113
6939.96, 0.143986
6949.27, 0.143352
6958.59, 0.142400
6967.95, 0.142844
6977.33, 0.143035
6986.73, 0.142527
6996.16, 0.142147
7005.61, 0.142020
7015.09, 0.141449
7024.6, 0.140878
7034.13, 0.140244
7043.69, 0.139229
7053.27, 0.139102
7062.88, 0.139292
7072.52, 0.138975
7082.18, 0.138721
7091.87, 0.138404
7101.58, 0.137960
7111.32, 0.137516
7121.09, 0.137263
7130.88, 0.137136
7140.71, 0.136501
7150.56, 0.135994
7160.43, 0.135677
7170.33, 0.135296
7180.27, 0.135296
7190.23, 0.135169
7200.21, 0.134598
7210.23, 0.134281
7220.27, 0.134281
7230.34, 0.134091
7240.44, 0.133901
7250.56, 0.133520
7260.72, 0.133140
7270.9, 0.132696
7281.12, 0.132378
7291.36, 0.132252
7301.63, 0.131998
7311.93, 0.131744
7322.25, 0.131364
7332.61, 0.130729
7343.0, 0.130285
7353.41, 0.130095
7363.86, 0.129841
7374.33, 0.129334
7384.83, 0.128826
7395.37, 0.128446
7405.93, 0.127938
7416.53, 0.127558
7427.15, 0.127304
7437.81, 0.126860
7448.5, 0.126353
7459.22, 0.125718
7469.96, 0.125274
7480.74, 0.125021
7491.55, 0.124703
7502.39, 0.124196
7513.27, 0.123625
7524.17, 0.123118
7535.11, 0.122674
7546.08, 0.122039
7557.08, 0.121405
7568.11, 0.120707
7579.17, 0.119883
7590.27, 0.119058
7601.4, 0.118424
7612.56, 0.117536
7623.76, 0.116711
7634.98, 0.115950
7646.24, 0.115252
7657.54, 0.114555
7668.87, 0.114047
7680.23, 0.113476
7691.62, 0.113096
7703.05, 0.112652
7714.51, 0.112335
7726.01, 0.111954
7737.54, 0.111446
7749.11, 0.110749
7760.71, 0.110178
7772.35, 0.109607
7784.02, 0.109163
7795.72, 0.108529
7807.46, 0.107958
7819.23, 0.107324
7831.04, 0.106816
7842.89, 0.106245
7854.77, 0.105484
7866.69, 0.104786
7878.65, 0.104089
7890.64, 0.103327
7902.67, 0.102693
7914.74, 0.101932
7926.84, 0.101298
7938.98, 0.100600
7951.16, 0.0997120
7963.37, 0.0990140
7975.62, 0.0983160
7987.91, 0.0973020
8000.24, 0.0964140
8012.6, 0.0956520
8025.01, 0.0948910
8037.45, 0.0939400
8049.93, 0.0929250
8062.45, 0.0921000
8075.01, 0.0912760
8087.61, 0.0903240
8100.24, 0.0893090
8112.91, 0.0882310
8125.63, 0.0871530
8138.39, 0.0860750
8151.18, 0.0849960
8164.02, 0.0839180
8176.9, 0.0829030
8189.81, 0.0817610
8202.77, 0.0805560
8215.77, 0.0793510
8228.82, 0.0783360
8241.9, 0.0770670
8255.02, 0.0758620
8268.19, 0.0746570
8281.39, 0.0733890
8294.65, 0.0721830
8307.94, 0.0709780
8321.28, 0.0695830
8334.66, 0.0684410
8348.08, 0.0673630
8361.54, 0.0663480
8375.05, 0.0651430
8388.6, 0.0639370
8402.2, 0.0627960
8415.84, 0.0616540
8429.52, 0.0605760
8443.25, 0.0595610
8457.02, 0.0583560
8470.84, 0.0572770
8484.7, 0.0563260
8498.61, 0.0553110
8512.57, 0.0541690
8526.57, 0.0531540
8540.62, 0.0522660
8554.71, 0.0512510
8568.85, 0.0502370
8583.04, 0.0494120
8597.27, 0.0484610
8611.55, 0.0475090
8625.88, 0.0466210
8640.26, 0.0458600
8654.68, 0.0450350
8669.16, 0.0443380
8683.68, 0.0437030
8698.25, 0.0430690
8712.87, 0.0426250
8727.53, 0.0423080
8742.25, 0.0420540
8757.02, 0.0416740
8771.83, 0.0411030
8786.7, 0.0409120
8801.62, 0.0410390
8816.59, 0.0409760
8831.61, 0.0409120
8846.68, 0.0410390
8861.8, 0.0411660
8876.97, 0.0414830
8892.2, 0.0419270
8907.48, 0.0423710
8922.81, 0.0426880
8938.2, 0.0432590
8953.63, 0.0437030
8969.13, 0.0445910
8984.67, 0.0459230
9000.27, 0.0473820
9015.92, 0.0490950
9031.63, 0.0510610
9047.39, 0.0526470
9063.21, 0.0544860
9079.08, 0.0563890
9095.01, 0.0577850
9111.0, 0.0588000
9127.04, 0.0598780
9143.13, 0.0603850
9159.28, 0.0601950
9175.49, 0.0600050
9191.76, 0.0601320
9208.09, 0.0603850
9224.47, 0.0608290
9240.92, 0.0617810
9257.42, 0.0631760
9273.98, 0.0646990
9290.6, 0.0662840
9307.28, 0.0678700
9324.02, 0.0695830
9340.82, 0.0706610
9357.68, 0.0712320
9374.6, 0.0711050
9391.58, 0.0705340
9408.62, 0.0695830
9425.73, 0.0686310
9442.9, 0.0672990
9460.13, 0.0659040
9477.42, 0.0650160
9494.78, 0.0644450
9512.2, 0.0638110
9529.69, 0.0633670
9547.24, 0.0637470
9564.86, 0.0643810
9582.54, 0.0652060
9600.28, 0.0663480
9618.1, 0.0675530
9635.97, 0.0690120
9653.92, 0.0705340
9671.93, 0.0719300
9690.01, 0.0730710
9708.16, 0.0743400
9726.37, 0.0752910
9744.65, 0.0759260
9763.0, 0.0764330
9781.43, 0.0765600
9799.92, 0.0763060
9818.48, 0.0761160
9837.1, 0.0757990
9855.8, 0.0752280
9874.58, 0.0744030
9893.42, 0.0739590
9912.34, 0.0734520
9931.33, 0.0724370
9950.39, 0.0713590
9969.52, 0.0704070
9988.74, 0.0692660
10008.0, 0.0683780
10027.4, 0.0673630
10046.8, 0.0664110
10066.3, 0.0655230
10085.9, 0.0644450
10105.6, 0.0628590
10125.3, 0.0611470
10145.1, 0.0593070
10165.0, 0.0577850
10185.0, 0.0563260
10205.0, 0.0549300
10225.2, 0.0537890
10245.4, 0.0529640
10265.7, 0.0519490
10286.0, 0.0511250
10306.5, 0.0503630
10327.0, 0.0497930
10347.6, 0.0490950
10368.3, 0.0484610
10389.1, 0.0480800
10409.9, 0.0477630
10430.9, 0.0473820
10451.9, 0.0471920
10473.0, 0.0467480
10494.2, 0.0461140
10515.5, 0.0456060
10536.9, 0.0452260
10558.4, 0.0449080
10579.9, 0.0447820
10601.5, 0.0443380
10623.3, 0.0437670
10645.1, 0.0433860
10667.0, 0.0431960
10689.0, 0.0428790
10711.1, 0.0423710
10733.2, 0.0419270
10755.5, 0.0418000
10777.9, 0.0414200
10800.3, 0.0412290
10822.9, 0.0411660
10845.5, 0.0409760
10868.2, 0.0407220
10891.1, 0.0404680
10914.0, 0.0403410
10937.0, 0.0402150
10960.2, 0.0400880
10983.4, 0.0396440
11006.7, 0.0389460
11030.1, 0.0390090
11053.6, 0.0390730
11077.3, 0.0390090
11101.0, 0.0390090
11124.8, 0.0389460
11148.7, 0.0389460
11172.7, 0.0389460
11196.9, 0.0387560
11221.1, 0.0386920
11245.4, 0.0386920
11269.9, 0.0386290
11294.4, 0.0382480
11319.1, 0.0379310
11343.9, 0.0378040
11368.8, 0.0377410
11393.7, 0.0377410
11418.8, 0.0374870
11444.0, 0.0371070
11469.4, 0.0369800
11494.8, 0.0366630
11520.3, 0.0364090
11546.0, 0.0364090
11571.8, 0.0364090
11597.7, 0.0363450
11623.7, 0.0362190
11649.8, 0.0356480
11676.0, 0.0354570
11702.4, 0.0352670
11728.9, 0.0348230
11755.5, 0.0341250
11782.2, 0.0335540
11809.0, 0.0326030
11836.0, 0.0313340
11863.0, 0.0297490
11890.3, 0.0284170
11917.6, 0.0272750
11945.0, 0.0260060
11972.6, 0.0246740
12000.4, 0.0234690
12028.2, 0.0225810
12056.2, 0.0218830
12084.3, 0.0215660
12112.5, 0.0210590
12140.9, 0.0206780
12169.4, 0.0206780
12198.0, 0.0202980
12226.8, 0.0202340
12255.7, 0.0203610
12284.7, 0.0199800
12313.9, 0.0194100
12343.2, 0.0192190
12372.7, 0.0191560
12402.3, 0.0190290
12432.0, 0.0189020
12461.9, 0.0190290
12491.9, 0.0190920
12522.1, 0.0190290
12552.4, 0.0186480
12582.9, 0.0187120
12613.5, 0.0189660
12644.3, 0.0192830
12675.2, 0.0193460
12706.3, 0.0195360
12737.5, 0.0198540
12768.9, 0.0206150
12800.4, 0.0211220
12832.1, 0.0215660
12863.9, 0.0217560
12895.9, 0.0222640
12928.1, 0.0229620
12960.4, 0.0235330
12992.9, 0.0238500
13025.5, 0.0245470
13058.3, 0.0246740
13091.3, 0.0246740
13124.4, 0.0249910
13157.8, 0.0255620
13191.2, 0.0258790
13224.9, 0.0260060
13258.7, 0.0260700
13292.7, 0.0260700
13326.9, 0.0261330
13361.2, 0.0262600
13395.7, 0.0260700
13430.4, 0.0259430
13465.3, 0.0258790
13500.4, 0.0257530
13535.7, 0.0253090
13571.1, 0.0251180
13606.7, 0.0251820
13642.5, 0.0251180
13678.5, 0.0249280
13714.7, 0.0247380
13751.1, 0.0244210
13787.6, 0.0242300
13824.4, 0.0241670
13861.4, 0.0241670
13898.5, 0.0237860
13935.9, 0.0232150
13973.5, 0.0232790
14011.2, 0.0236590
14049.2, 0.0234690
14087.4, 0.0232150
14125.8, 0.0228980
14164.3, 0.0225810
14203.2, 0.0222640
14242.2, 0.0221370
14281.4, 0.0217560
14320.9, 0.0218830
14360.5, 0.0222000
14400.4, 0.0221370
14440.5, 0.0223270
14480.9, 0.0223910
14521.4, 0.0226450
14562.2, 0.0234060
14603.3, 0.0242940
14644.5, 0.0244840
14686.0, 0.0241670
14727.7, 0.0242940
14769.7, 0.0242300
14811.9, 0.0250550
14854.3, 0.0254350
14897.0, 0.0252450
14939.9, 0.0249910
14983.1, 0.0250550
15026.5, 0.0253720
15070.2, 0.0260700
15114.2, 0.0268310
15158.3, 0.0269580
15202.8, 0.0273380
15247.5, 0.0277190
15292.5, 0.0276550
15337.7, 0.0280990
15383.2, 0.0284170
15429.0, 0.0286070
15475.1, 0.0288610
15521.4, 0.0293050
15568.0, 0.0298760
15614.9, 0.0299390
15662.1, 0.0300020
15709.6, 0.0306370
15757.3, 0.0308270
15805.4, 0.0306370
15853.7, 0.0305730
15902.3, 0.0308270
15951.2, 0.0312710
16000.5, 0.0317150
16050.0, 0.0319690
16099.8, 0.0322220
16150.0, 0.0325400
16200.5, 0.0326660
16251.3, 0.0326660
16302.4, 0.0331100
16353.8, 0.0329840
16405.5, 0.0327930
16457.6, 0.0325400
16510.0, 0.0323490
16562.8, 0.0326030
16615.9, 0.0326660
16669.3, 0.0319050
16723.1, 0.0308270
16777.2, 0.0303830
16831.7, 0.0301930
16886.5, 0.0297490
16941.7, 0.0291140
16997.2, 0.0286700
17053.1, 0.0279090
17109.4, 0.0274020
17166.1, 0.0272750
17223.1, 0.0270850
17280.5, 0.0276550
17338.3, 0.0282260
17396.5, 0.0289880
17455.1, 0.0299390
17514.0, 0.0313980
17573.4, 0.0326030
17633.2, 0.0341890
17693.4, 0.0362190
17754.0, 0.0381850
17815.0, 0.0392000
17876.4, 0.0400880
17938.3, 0.0405950
18000.5, 0.0409120
18063.3, 0.0396440
18126.4, 0.0383120
18190.0, 0.0378680
18254.1, 0.0367890
18318.6, 0.0359010
18383.5, 0.0355210
18449.0, 0.0352040
18514.9, 0.0346960
18581.2, 0.0344420
18648.0, 0.0353310
18715.4, 0.0356480
18783.2, 0.0365360
18851.5, 0.0379950
18920.3, 0.0397070
18989.6, 0.0416100
19059.4, 0.0447820
19129.7, 0.0470650
19200.6, 0.0497290
19272.0, 0.0522030
19343.9, 0.0553110
19416.3, 0.0575940
19489.3, 0.0589900
19562.8, 0.0601950
19637.0, 0.0620980
19711.6, 0.0634300
19786.8, 0.0634930
19862.6, 0.0645080
19939.0, 0.0665380
20016.0, 0.0682510
20093.6, 0.0684410
20171.8, 0.0690750
20250.6, 0.0708510
20330.0, 0.0723100
20410.0, 0.0718660
20490.7, 0.0715490
20572.0, 0.0728810
20654.0, 0.0734520
20736.6, 0.0747210
20819.9, 0.0780820
20903.8, 0.0804290
20988.5, 0.0815710
21073.8, 0.0823320
21159.8, 0.0818880
21246.5, 0.0824590
21334.0, 0.0835370
21422.1, 0.0832840
21511.0, 0.0819520
21600.7, 0.0811270
21691.0, 0.0807460
21782.1, 0.0796050
21874.0, 0.0753550
21966.7, 0.0712950
22060.2, 0.0714220
22154.5, 0.0730710
22249.6, 0.0714860
22345.5, 0.0700270
22442.2, 0.0704710
22539.8, 0.0721830
22638.2, 0.0731350
22737.5, 0.0732620
22837.7, 0.0735790
22938.7, 0.0735150
23040.7, 0.0726270
23143.5, 0.0700270
23247.3, 0.0678070
23352.1, 0.0635570
23457.7, 0.0626690
23564.4, 0.0639370
23672.0, 0.0617810
23780.5, 0.0567060
23890.1, 0.0529640
24000.7, 0.0521390
24112.3, 0.0542960
24225.0, 0.0546130
24338.7, 0.0516950
24453.5, 0.0470650
24569.4, 0.0476990
24686.4, 0.0517590
24804.5, 0.0508070
