Database of Origin, USGS Spectral Database
Sample Description, See USGS database for additional info
Date Added,2016-08-10 05:32:15.983126

Data ID,USGS_rec02          
Sample ID, rectorite_ar1.19179
Mineral Name, rectorite
Material Class,Phyllosilicate

Wavelength
1384.66, 0.464459
1385.03, 0.463904
1385.4, 0.464043
1385.77, 0.463280
1386.14, 0.462378
1386.51, 0.461893
1386.88, 0.461823
1387.25, 0.461546
1387.62, 0.459604
1387.99, 0.458356
1388.36, 0.458494
1388.74, 0.458148
1389.11, 0.457385
1389.48, 0.456968
1389.85, 0.455998
1390.23, 0.454888
1390.6, 0.454680
1390.97, 0.453431
1391.35, 0.452599
1391.72, 0.451836
1392.09, 0.449894
1392.47, 0.449270
1392.84, 0.449340
1393.21, 0.448577
1393.59, 0.447675
1393.96, 0.446982
1394.34, 0.446080
1394.71, 0.444346
1395.09, 0.442890
1395.46, 0.442474
1395.84, 0.441364
1396.22, 0.439908
1396.59, 0.439491
1396.97, 0.439075
1397.35, 0.437827
1397.72, 0.437203
1398.1, 0.436579
1398.48, 0.435538
1398.85, 0.434290
1399.23, 0.432834
1399.61, 0.432140
1399.99, 0.431308
1400.37, 0.429851
1400.74, 0.429366
1401.12, 0.428534
1401.5, 0.427701
1401.88, 0.427355
1402.26, 0.427355
1402.64, 0.426939
1403.02, 0.426176
1403.4, 0.425690
1403.78, 0.424719
1404.16, 0.423748
1404.54, 0.423193
1404.92, 0.423193
1405.3, 0.423124
1405.68, 0.422847
1406.06, 0.422916
1406.44, 0.423124
1406.83, 0.423055
1407.21, 0.423124
1407.59, 0.423610
1407.97, 0.423748
1408.35, 0.423679
1408.74, 0.423610
1409.12, 0.423748
1409.5, 0.424234
1409.89, 0.425066
1410.27, 0.425829
1410.65, 0.426106
1411.04, 0.425760
1411.42, 0.425968
1411.81, 0.426453
1412.19, 0.426939
1412.58, 0.427008
1412.96, 0.426592
1413.35, 0.426245
1413.73, 0.425551
1414.12, 0.425482
1414.5, 0.426522
1414.89, 0.428048
1415.28, 0.428811
1415.66, 0.429227
1416.05, 0.429782
1416.44, 0.429990
1416.82, 0.430059
1417.21, 0.430406
1417.6, 0.431169
1417.98, 0.431863
1418.37, 0.431516
1418.76, 0.431446
1419.15, 0.432140
1419.54, 0.432834
1419.93, 0.432834
1420.32, 0.432487
1420.71, 0.432487
1421.09, 0.432695
1421.48, 0.432348
1421.88, 0.432348
1422.27, 0.432903
1422.66, 0.433180
1423.05, 0.432903
1423.44, 0.433111
1423.83, 0.433250
1424.22, 0.433458
1424.61, 0.433250
1425.0, 0.433527
1425.39, 0.433874
1425.78, 0.433527
1426.18, 0.433250
1426.57, 0.432972
1426.96, 0.433042
1427.36, 0.433388
1427.75, 0.433319
1428.14, 0.433250
1428.54, 0.433388
1428.93, 0.433388
1429.32, 0.433388
1429.72, 0.433180
1430.11, 0.433527
1430.51, 0.433596
1430.9, 0.433319
1431.3, 0.433388
1431.69, 0.433250
1432.09, 0.433180
1432.48, 0.432834
1432.88, 0.432972
1433.28, 0.433042
1433.67, 0.432695
1434.07, 0.432348
1434.46, 0.432487
1434.86, 0.432556
1435.26, 0.432556
1435.66, 0.432417
1436.05, 0.432556
1436.45, 0.432417
1436.85, 0.432279
1437.25, 0.432209
1437.65, 0.432348
1438.05, 0.432417
1438.44, 0.431863
1438.84, 0.432001
1439.24, 0.432209
1439.64, 0.432209
1440.04, 0.432417
1440.44, 0.432348
1440.84, 0.431724
1441.24, 0.431724
1441.65, 0.431585
1442.05, 0.431446
1442.45, 0.431724
1442.85, 0.431793
1443.25, 0.431724
1443.65, 0.431516
1444.05, 0.431308
1444.46, 0.431377
1444.86, 0.431585
1445.26, 0.431516
1445.67, 0.431238
1446.07, 0.431238
1446.47, 0.431238
1446.88, 0.431030
1447.28, 0.430961
1447.68, 0.431169
1448.09, 0.431169
1448.49, 0.431308
1448.9, 0.431100
1449.3, 0.430753
1449.71, 0.430337
1450.11, 0.430267
1450.52, 0.430198
1450.93, 0.429990
1451.33, 0.429851
1451.74, 0.430129
1452.14, 0.429782
1452.55, 0.429435
1452.96, 0.429851
1453.36, 0.430129
1453.77, 0.429851
1454.18, 0.429851
1454.59, 0.429782
1455.0, 0.429297
1455.41, 0.429366
1455.81, 0.429366
1456.22, 0.429366
1456.63, 0.429227
1457.04, 0.428811
1457.45, 0.428880
1457.86, 0.428742
1458.27, 0.428880
1458.68, 0.429297
1459.09, 0.429158
1459.5, 0.428534
1459.91, 0.427979
1460.32, 0.428048
1460.74, 0.428118
1461.15, 0.427979
1461.56, 0.428395
1461.97, 0.428256
1462.39, 0.428048
1462.8, 0.428118
1463.21, 0.427979
1463.62, 0.427840
1464.04, 0.427701
1464.45, 0.427840
1464.86, 0.427840
1465.28, 0.427632
1465.69, 0.427909
1466.11, 0.427909
1466.52, 0.427840
1466.94, 0.427909
1467.35, 0.427632
1467.77, 0.427077
1468.18, 0.427147
1468.6, 0.427355
1469.02, 0.427632
1469.43, 0.427424
1469.85, 0.427077
1470.27, 0.427147
1470.68, 0.427216
1471.1, 0.426869
1471.52, 0.426730
1471.94, 0.426661
1472.35, 0.427216
1472.77, 0.427355
1473.19, 0.427147
1473.61, 0.426869
1474.03, 0.426939
1474.45, 0.427632
1474.87, 0.427355
1475.29, 0.427424
1475.71, 0.427771
1476.13, 0.428048
1476.55, 0.428187
1476.97, 0.427840
1477.39, 0.427563
1477.81, 0.427563
1478.23, 0.427771
1478.65, 0.427771
1479.07, 0.427632
1479.5, 0.427632
1479.92, 0.427563
1480.34, 0.427701
1480.76, 0.427979
1481.19, 0.428118
1481.61, 0.428603
1482.03, 0.428534
1482.46, 0.427979
1482.88, 0.428256
1483.31, 0.428672
1483.73, 0.428395
1484.16, 0.428326
1484.58, 0.428534
1485.01, 0.428742
1485.43, 0.429089
1485.86, 0.429158
1486.28, 0.428950
1486.71, 0.428811
1487.14, 0.428811
1487.56, 0.429158
1487.99, 0.429227
1488.42, 0.429366
1488.84, 0.429505
1489.27, 0.429643
1489.7, 0.429435
1490.13, 0.429227
1490.56, 0.429435
1490.98, 0.429297
1491.41, 0.429297
1491.84, 0.429643
1492.27, 0.429851
1492.7, 0.429921
1493.13, 0.429851
1493.56, 0.429851
1493.99, 0.430059
1494.42, 0.430198
1494.85, 0.429782
1495.29, 0.429782
1495.72, 0.429990
1496.15, 0.430267
1496.58, 0.430129
1497.01, 0.430476
1497.44, 0.430614
1497.88, 0.430614
1498.31, 0.431030
1498.74, 0.431169
1499.18, 0.431030
1499.61, 0.430892
1500.04, 0.430753
1500.48, 0.430892
1500.91, 0.431308
1501.35, 0.431446
1501.78, 0.431238
1502.22, 0.431238
1502.65, 0.431793
1503.09, 0.431793
1503.53, 0.431585
1503.96, 0.431446
1504.4, 0.431169
1504.83, 0.431169
1505.27, 0.431585
1505.71, 0.431793
1506.15, 0.431724
1506.58, 0.431655
1507.02, 0.431863
1507.46, 0.432140
1507.9, 0.432001
1508.34, 0.432140
1508.78, 0.432487
1509.21, 0.432071
1509.66, 0.432001
1510.09, 0.432487
1510.53, 0.432972
1510.97, 0.433458
1511.42, 0.433388
1511.86, 0.433180
1512.3, 0.433250
1512.74, 0.433111
1513.18, 0.432834
1513.62, 0.433042
1514.06, 0.433180
1514.51, 0.433666
1514.95, 0.433666
1515.39, 0.433666
1515.83, 0.433943
1516.28, 0.434151
1516.72, 0.434359
1517.16, 0.434221
1517.61, 0.434429
1518.05, 0.434637
1518.5, 0.434429
1518.94, 0.434359
1519.39, 0.434359
1519.83, 0.434567
1520.28, 0.434429
1520.73, 0.434359
1521.17, 0.434567
1521.62, 0.434845
1522.07, 0.434775
1522.51, 0.434845
1522.96, 0.434984
1523.41, 0.435330
1523.85, 0.435261
1524.3, 0.434914
1524.75, 0.435469
1525.2, 0.435954
1525.65, 0.435677
1526.1, 0.435400
1526.55, 0.435330
1527.0, 0.435746
1527.45, 0.436093
1527.9, 0.435746
1528.35, 0.435816
1528.8, 0.436093
1529.25, 0.436163
1529.7, 0.436301
1530.15, 0.436371
1530.6, 0.436371
1531.05, 0.436371
1531.51, 0.436440
1531.96, 0.436371
1532.41, 0.436717
1532.87, 0.436856
1533.32, 0.437133
1533.77, 0.437342
1534.23, 0.437411
1534.68, 0.437272
1535.14, 0.437203
1535.59, 0.437619
1536.05, 0.437827
1536.5, 0.437966
1536.96, 0.438035
1537.41, 0.438174
1537.87, 0.438312
1538.32, 0.438382
1538.78, 0.438312
1539.24, 0.438590
1539.7, 0.438798
1540.15, 0.438867
1540.61, 0.439145
1541.07, 0.438937
1541.53, 0.438867
1541.98, 0.439630
1542.44, 0.439700
1542.9, 0.439422
1543.36, 0.439630
1543.82, 0.439838
1544.28, 0.439908
1544.74, 0.439630
1545.2, 0.439769
1545.66, 0.440532
1546.12, 0.440809
1546.59, 0.440809
1547.05, 0.440393
1547.51, 0.440601
1547.97, 0.441017
1548.43, 0.441017
1548.9, 0.441156
1549.36, 0.441572
1549.82, 0.441433
1550.29, 0.441017
1550.75, 0.441225
1551.21, 0.441433
1551.68, 0.441503
1552.14, 0.441503
1552.61, 0.441849
1553.07, 0.442335
1553.54, 0.442404
1554.0, 0.442682
1554.47, 0.442890
1554.93, 0.442820
1555.4, 0.442751
1555.87, 0.443167
1556.34, 0.443237
1556.8, 0.443514
1557.27, 0.443653
1557.74, 0.443653
1558.21, 0.443583
1558.68, 0.443930
1559.14, 0.444277
1559.61, 0.444346
1560.08, 0.444485
1560.55, 0.444624
1561.02, 0.444624
1561.49, 0.444970
1561.96, 0.445109
1562.43, 0.445109
1562.9, 0.445248
1563.38, 0.445178
1563.85, 0.445178
1564.32, 0.445456
1564.79, 0.445733
1565.26, 0.446080
1565.74, 0.445872
1566.21, 0.445803
1566.68, 0.446219
1567.16, 0.446704
1567.63, 0.446357
1568.1, 0.446149
1568.58, 0.446427
1569.05, 0.446566
1569.53, 0.446635
1570.0, 0.446774
1570.48, 0.446912
1570.96, 0.446912
1571.43, 0.447051
1571.91, 0.446843
1572.39, 0.447190
1572.86, 0.447675
1573.34, 0.448022
1573.82, 0.448022
1574.3, 0.447953
1574.77, 0.448230
1575.25, 0.448161
1575.73, 0.448230
1576.21, 0.448646
1576.69, 0.448924
1577.17, 0.449132
1577.65, 0.448993
1578.13, 0.448646
1578.61, 0.448715
1579.09, 0.448993
1579.57, 0.449132
1580.05, 0.449132
1580.54, 0.449201
1581.02, 0.449409
1581.5, 0.449686
1581.98, 0.450172
1582.47, 0.449964
1582.95, 0.449964
1583.43, 0.450103
1583.92, 0.450241
1584.4, 0.450519
1584.88, 0.450588
1585.37, 0.450519
1585.85, 0.450796
1586.34, 0.451143
1586.82, 0.451282
1587.31, 0.451143
1587.8, 0.451143
1588.28, 0.451351
1588.77, 0.451490
1589.26, 0.451559
1589.74, 0.451628
1590.23, 0.451559
1590.72, 0.451767
1591.21, 0.452044
1591.7, 0.452391
1592.19, 0.452391
1592.67, 0.452322
1593.16, 0.452322
1593.65, 0.452669
1594.14, 0.452877
1594.63, 0.452877
1595.12, 0.453085
1595.61, 0.453362
1596.11, 0.453501
1596.6, 0.453431
1597.09, 0.453570
1597.58, 0.453778
1598.08, 0.454056
1598.57, 0.454264
1599.06, 0.454264
1599.55, 0.454541
1600.05, 0.454749
1600.54, 0.454888
1601.04, 0.455027
1601.53, 0.455096
1602.03, 0.455027
1602.52, 0.455165
1603.02, 0.455373
1603.51, 0.455998
1604.01, 0.456275
1604.5, 0.456136
1605.0, 0.456206
1605.5, 0.456414
1606.0, 0.456067
1606.49, 0.456344
1606.99, 0.456760
1607.49, 0.456899
1607.99, 0.457177
1608.49, 0.457315
1608.99, 0.457177
1609.49, 0.457315
1609.99, 0.457523
1610.49, 0.457731
1610.99, 0.458009
1611.49, 0.458148
1611.99, 0.458286
1612.49, 0.458148
1612.99, 0.458286
1613.49, 0.458633
1614.0, 0.458841
1614.5, 0.458980
1615.0, 0.459396
1615.51, 0.459535
1616.01, 0.459465
1616.51, 0.459673
1617.02, 0.460159
1617.52, 0.460436
1618.03, 0.460367
1618.53, 0.460228
1619.04, 0.460228
1619.54, 0.460228
1620.05, 0.460506
1620.55, 0.460852
1621.06, 0.460991
1621.57, 0.461199
1622.08, 0.461268
1622.58, 0.461754
1623.09, 0.461823
1623.6, 0.461546
1624.11, 0.461893
1624.62, 0.462378
1625.13, 0.462378
1625.64, 0.462447
1626.15, 0.462378
1626.66, 0.462309
1627.17, 0.462447
1627.68, 0.462864
1628.19, 0.462933
1628.7, 0.463210
1629.21, 0.463418
1629.72, 0.463488
1630.24, 0.463765
1630.75, 0.463973
1631.26, 0.464043
1631.78, 0.464320
1632.29, 0.464112
1632.8, 0.464181
1633.32, 0.464251
1633.83, 0.464528
1634.35, 0.464667
1634.86, 0.464944
1635.38, 0.465013
1635.9, 0.464805
1636.41, 0.464875
1636.93, 0.465222
1637.45, 0.465430
1637.96, 0.465638
1638.48, 0.465568
1639.0, 0.465776
1639.52, 0.466054
1640.04, 0.466401
1640.56, 0.466470
1641.08, 0.466609
1641.59, 0.466678
1642.11, 0.466401
1642.63, 0.466401
1643.16, 0.466609
1643.68, 0.466817
1644.2, 0.466817
1644.72, 0.467094
1645.24, 0.467302
1645.76, 0.467233
1646.29, 0.467163
1646.81, 0.467233
1647.33, 0.467580
1647.86, 0.467718
1648.38, 0.467788
1648.9, 0.467718
1649.43, 0.467926
1649.95, 0.468204
1650.48, 0.468412
1651.0, 0.468481
1651.53, 0.468273
1652.06, 0.468342
1652.58, 0.468620
1653.11, 0.468828
1653.64, 0.468897
1654.17, 0.469244
1654.69, 0.469383
1655.22, 0.469452
1655.75, 0.469521
1656.28, 0.469799
1656.81, 0.469868
1657.34, 0.469868
1657.87, 0.469660
1658.4, 0.470007
1658.93, 0.470354
1659.46, 0.470284
1659.99, 0.470284
1660.52, 0.470076
1661.05, 0.470215
1661.59, 0.470562
1662.12, 0.470562
1662.65, 0.470700
1663.19, 0.471117
1663.72, 0.471117
1664.26, 0.470839
1664.79, 0.471186
1665.32, 0.471602
1665.86, 0.471879
1666.39, 0.472157
1666.93, 0.472088
1667.47, 0.471879
1668.0, 0.472157
1668.54, 0.472504
1669.08, 0.472434
1669.61, 0.472573
1670.15, 0.472781
1670.69, 0.472781
1671.23, 0.473058
1671.77, 0.473197
1672.31, 0.473128
1672.85, 0.473405
1673.39, 0.473613
1673.93, 0.473544
1674.47, 0.473475
1675.01, 0.473821
1675.55, 0.474168
1676.09, 0.474376
1676.64, 0.474376
1677.18, 0.474862
1677.72, 0.475139
1678.26, 0.475208
1678.81, 0.475208
1679.35, 0.475347
1679.89, 0.475416
1680.44, 0.475625
1680.98, 0.475625
1681.53, 0.475555
1682.07, 0.475694
1682.62, 0.475902
1683.17, 0.475971
1683.71, 0.476110
1684.26, 0.476387
1684.81, 0.476387
1685.36, 0.476318
1685.9, 0.476595
1686.45, 0.477012
1687.0, 0.477150
1687.55, 0.477012
1688.1, 0.477081
1688.65, 0.477358
1689.2, 0.477428
1689.75, 0.477566
1690.3, 0.477844
1690.85, 0.478121
1691.41, 0.477983
1691.96, 0.477983
1692.51, 0.478329
1693.06, 0.478537
1693.61, 0.478468
1694.17, 0.478468
1694.72, 0.478537
1695.28, 0.478745
1695.83, 0.479162
1696.39, 0.479439
1696.94, 0.479370
1697.5, 0.479300
1698.05, 0.479162
1698.61, 0.479092
1699.17, 0.479231
1699.72, 0.479370
1700.28, 0.479647
1700.84, 0.480132
1701.4, 0.480341
1701.95, 0.480271
1702.51, 0.480132
1703.07, 0.480341
1703.63, 0.480271
1704.19, 0.480202
1704.75, 0.480341
1705.31, 0.480549
1705.88, 0.480757
1706.44, 0.480757
1707.0, 0.480757
1707.56, 0.480895
1708.12, 0.480895
1708.69, 0.480826
1709.25, 0.481103
1709.81, 0.481520
1710.38, 0.481381
1710.94, 0.481381
1711.51, 0.481520
1712.07, 0.481450
1712.64, 0.481589
1713.2, 0.481866
1713.77, 0.482005
1714.34, 0.482074
1714.9, 0.481936
1715.47, 0.482074
1716.04, 0.481866
1716.61, 0.481866
1717.18, 0.482490
1717.74, 0.482768
1718.31, 0.482699
1718.88, 0.482560
1719.45, 0.482837
1720.02, 0.482907
1720.59, 0.482837
1721.17, 0.482907
1721.74, 0.482837
1722.31, 0.482907
1722.88, 0.482907
1723.45, 0.482907
1724.03, 0.482768
1724.6, 0.482768
1725.18, 0.483115
1725.75, 0.483669
1726.33, 0.483808
1726.9, 0.483600
1727.48, 0.483600
1728.05, 0.483531
1728.63, 0.483531
1729.2, 0.483878
1729.78, 0.484016
1730.36, 0.483878
1730.94, 0.483878
1731.51, 0.483878
1732.09, 0.483947
1732.67, 0.484016
1733.25, 0.484294
1733.83, 0.484640
1734.41, 0.484710
1734.99, 0.484779
1735.57, 0.484710
1736.15, 0.484571
1736.73, 0.484571
1737.32, 0.484640
1737.9, 0.484710
1738.48, 0.485057
1739.07, 0.485611
1739.65, 0.485819
1740.23, 0.485542
1740.82, 0.485265
1741.4, 0.485403
1741.99, 0.485542
1742.57, 0.485542
1743.16, 0.485750
1743.74, 0.486374
1744.33, 0.486444
1744.92, 0.486305
1745.51, 0.486305
1746.09, 0.486513
1746.68, 0.486652
1747.27, 0.486721
1747.86, 0.486860
1748.45, 0.486929
1749.04, 0.486929
1749.63, 0.487068
1750.22, 0.487345
1750.81, 0.487345
1751.4, 0.487276
1751.99, 0.487206
1752.59, 0.487345
1753.18, 0.487761
1753.77, 0.487831
1754.37, 0.487692
1754.96, 0.487831
1755.56, 0.488039
1756.15, 0.488039
1756.74, 0.488039
1757.34, 0.487900
1757.94, 0.487969
1758.53, 0.488039
1759.13, 0.488663
1759.73, 0.489010
1760.32, 0.488940
1760.92, 0.489079
1761.52, 0.489148
1762.12, 0.488940
1762.72, 0.489079
1763.32, 0.489218
1763.92, 0.489079
1764.52, 0.489079
1765.12, 0.489426
1765.72, 0.489634
1766.32, 0.489495
1766.92, 0.489564
1767.53, 0.489773
1768.13, 0.489842
1768.73, 0.489911
1769.34, 0.489981
1769.94, 0.490327
1770.55, 0.490327
1771.15, 0.490327
1771.76, 0.490327
1772.36, 0.490327
1772.97, 0.490397
1773.57, 0.490535
1774.18, 0.490535
1774.79, 0.490535
1775.4, 0.490674
1776.0, 0.490743
1776.61, 0.491090
1777.22, 0.491229
1777.83, 0.491090
1778.44, 0.491090
1779.05, 0.491298
1779.66, 0.491229
1780.27, 0.490952
1780.88, 0.491090
1781.5, 0.491368
1782.11, 0.491160
1782.72, 0.491021
1783.33, 0.491160
1783.95, 0.491090
1784.56, 0.491160
1785.18, 0.491437
1785.79, 0.491437
1786.41, 0.491437
1787.02, 0.491368
1787.64, 0.491506
1788.26, 0.491645
1788.87, 0.491645
1789.49, 0.491576
1790.11, 0.491506
1790.73, 0.491298
1791.35, 0.491229
1791.96, 0.491298
1792.58, 0.491506
1793.21, 0.491437
1793.83, 0.491506
1794.45, 0.491645
1795.07, 0.491645
1795.69, 0.491784
1796.31, 0.491576
1796.93, 0.491784
1797.56, 0.491992
1798.18, 0.491992
1798.8, 0.491645
1799.43, 0.491715
1800.05, 0.491715
1800.68, 0.491506
1801.3, 0.491645
1801.93, 0.491922
1802.56, 0.491853
1803.18, 0.492131
1803.81, 0.492339
1804.44, 0.492061
1805.07, 0.491784
1805.7, 0.491715
1806.33, 0.491645
1806.95, 0.491645
1807.58, 0.491853
1808.22, 0.492200
1808.85, 0.492061
1809.48, 0.491992
1810.11, 0.492061
1810.74, 0.491922
1811.38, 0.491853
1812.01, 0.491992
1812.64, 0.491922
1813.28, 0.491922
1813.91, 0.491922
1814.55, 0.491992
1815.18, 0.491853
1815.82, 0.492061
1816.45, 0.492200
1817.09, 0.492408
1817.73, 0.492547
1818.36, 0.492616
1819.0, 0.492477
1819.64, 0.491853
1820.28, 0.491368
1820.92, 0.491784
1821.56, 0.491576
1822.2, 0.492061
1822.84, 0.492755
1823.48, 0.493032
1824.12, 0.492894
1824.76, 0.492894
1825.41, 0.492477
1826.05, 0.491576
1826.69, 0.492408
1827.34, 0.493171
1827.98, 0.493102
1828.63, 0.493102
1829.27, 0.493102
1829.92, 0.493102
1830.56, 0.492547
1831.21, 0.492547
1831.86, 0.493032
1832.5, 0.493102
1833.15, 0.493518
1833.8, 0.493795
1834.45, 0.493310
1835.1, 0.492894
1835.75, 0.492339
1836.4, 0.492755
1837.05, 0.492963
1837.7, 0.492547
1838.35, 0.493518
1839.01, 0.493379
1839.66, 0.492547
1840.31, 0.493379
1840.96, 0.493240
1841.62, 0.492131
1842.27, 0.493032
1842.93, 0.494350
1843.58, 0.494766
1844.24, 0.494905
1844.9, 0.494835
1845.55, 0.494835
1846.21, 0.493448
1846.87, 0.492408
1847.53, 0.493240
1848.18, 0.493726
1848.84, 0.494974
1849.5, 0.495460
1850.16, 0.495182
1850.82, 0.495321
1851.48, 0.495529
1852.14, 0.495252
1852.81, 0.494766
1853.47, 0.493934
1854.13, 0.494558
1854.8, 0.495460
1855.46, 0.495390
1856.12, 0.494558
1856.79, 0.494558
1857.45, 0.495460
1858.12, 0.495806
1858.79, 0.495182
1859.45, 0.494003
1860.12, 0.494281
1860.79, 0.495321
1861.46, 0.495737
1862.12, 0.495598
1862.79, 0.495529
1863.46, 0.495182
1864.13, 0.495043
1864.8, 0.495460
1865.48, 0.495529
1866.15, 0.495390
1866.82, 0.494350
1867.49, 0.493171
1868.16, 0.493934
1868.84, 0.494489
1869.51, 0.493934
1870.19, 0.492755
1870.86, 0.491853
1871.54, 0.493310
1872.21, 0.492963
1872.89, 0.491784
1873.56, 0.492547
1874.24, 0.493448
1874.92, 0.493171
1875.6, 0.492894
1876.28, 0.492061
1876.96, 0.491645
1877.64, 0.492477
1878.32, 0.492616
1879.0, 0.492408
1879.68, 0.491992
1880.36, 0.491368
1881.04, 0.491021
1881.73, 0.490605
1882.41, 0.490119
1883.09, 0.489218
1883.78, 0.488178
1884.46, 0.488108
1885.15, 0.487692
1885.83, 0.486860
1886.52, 0.486027
1887.21, 0.485334
1887.89, 0.484779
1888.58, 0.483739
1889.27, 0.482005
1889.96, 0.480341
1890.65, 0.479855
1891.34, 0.478884
1892.03, 0.477566
1892.72, 0.476595
1893.41, 0.475278
1894.1, 0.474307
1894.79, 0.473336
1895.49, 0.472434
1896.18, 0.471394
1896.87, 0.470146
1897.57, 0.469036
1898.26, 0.468065
1898.96, 0.466262
1899.65, 0.465222
1900.35, 0.465430
1901.05, 0.465499
1901.74, 0.464875
1902.44, 0.463834
1903.14, 0.463626
1903.84, 0.464181
1904.54, 0.463418
1905.24, 0.463002
1905.94, 0.463349
1906.64, 0.463418
1907.34, 0.464251
1908.04, 0.465152
1908.75, 0.465499
1909.45, 0.465984
1910.15, 0.466401
1910.86, 0.466539
1911.56, 0.467302
1912.27, 0.468065
1912.97, 0.467580
1913.68, 0.467788
1914.39, 0.469105
1915.09, 0.470146
1915.8, 0.470700
1916.51, 0.471325
1917.22, 0.472018
1917.93, 0.472642
1918.64, 0.473058
1919.35, 0.472920
1920.06, 0.472781
1920.77, 0.473683
1921.48, 0.475278
1922.19, 0.476041
1922.91, 0.476526
1923.62, 0.476804
1924.33, 0.477220
1925.05, 0.477983
1925.76, 0.478607
1926.48, 0.479023
1927.19, 0.479578
1927.91, 0.479786
1928.63, 0.480271
1929.35, 0.480757
1930.07, 0.481034
1930.78, 0.481450
1931.5, 0.481866
1932.22, 0.482213
1932.94, 0.482421
1933.66, 0.482907
1934.39, 0.483600
1935.11, 0.483947
1935.83, 0.483947
1936.55, 0.484294
1937.28, 0.484640
1938.0, 0.484710
1938.73, 0.484640
1939.45, 0.485057
1940.18, 0.485473
1940.9, 0.485889
1941.63, 0.486513
1942.36, 0.486582
1943.09, 0.486374
1943.81, 0.486582
1944.54, 0.486860
1945.27, 0.487137
1946.0, 0.487484
1946.73, 0.487692
1947.47, 0.487900
1948.2, 0.488178
1948.93, 0.488247
1949.66, 0.488247
1950.4, 0.488524
1951.13, 0.488663
1951.86, 0.488663
1952.6, 0.488663
1953.34, 0.488940
1954.07, 0.489079
1954.81, 0.489287
1955.55, 0.489634
1956.29, 0.489703
1957.02, 0.489634
1957.76, 0.489634
1958.5, 0.489703
1959.24, 0.489773
1959.98, 0.490050
1960.72, 0.490050
1961.47, 0.489981
1962.21, 0.490119
1962.95, 0.490119
1963.7, 0.490189
1964.44, 0.490535
1965.18, 0.490397
1965.93, 0.490397
1966.67, 0.490605
1967.42, 0.490674
1968.17, 0.490535
1968.92, 0.490466
1969.66, 0.490535
1970.41, 0.490605
1971.16, 0.490674
1971.91, 0.490952
1972.66, 0.491021
1973.41, 0.490952
1974.16, 0.490882
1974.92, 0.490882
1975.67, 0.490813
1976.42, 0.490674
1977.18, 0.490743
1977.93, 0.491021
1978.69, 0.491021
1979.44, 0.490882
1980.2, 0.490813
1980.95, 0.491021
1981.71, 0.491160
1982.47, 0.490952
1983.23, 0.491021
1983.99, 0.491160
1984.74, 0.491298
1985.51, 0.491229
1986.27, 0.491298
1987.03, 0.491437
1987.79, 0.491368
1988.55, 0.491090
1989.32, 0.491021
1990.08, 0.491229
1990.84, 0.491229
1991.61, 0.491368
1992.37, 0.491368
1993.14, 0.491160
1993.9, 0.491160
1994.67, 0.491090
1995.44, 0.491229
1996.21, 0.491368
1996.98, 0.491368
1997.75, 0.491437
1998.52, 0.491645
1999.29, 0.491645
2000.06, 0.491715
2000.83, 0.491992
2001.6, 0.491922
2002.38, 0.491715
2003.15, 0.491853
2003.93, 0.492200
2004.7, 0.492339
2005.48, 0.492339
2006.25, 0.492200
2007.03, 0.492269
2007.81, 0.492547
2008.58, 0.492685
2009.36, 0.492547
2010.14, 0.492339
2010.92, 0.492616
2011.7, 0.492685
2012.48, 0.492685
2013.26, 0.492963
2014.05, 0.493171
2014.83, 0.493240
2015.61, 0.493379
2016.4, 0.493310
2017.18, 0.493102
2017.97, 0.493171
2018.75, 0.493518
2019.54, 0.493795
2020.32, 0.494072
2021.11, 0.494211
2021.9, 0.494281
2022.69, 0.494211
2023.48, 0.494142
2024.27, 0.494072
2025.06, 0.494142
2025.85, 0.494281
2026.64, 0.494281
2027.44, 0.494350
2028.23, 0.494489
2029.02, 0.494627
2029.82, 0.494905
2030.61, 0.495113
2031.41, 0.495113
2032.2, 0.495113
2033.0, 0.494974
2033.8, 0.495043
2034.6, 0.495252
2035.4, 0.495529
2036.2, 0.495390
2037.0, 0.495252
2037.8, 0.495668
2038.6, 0.495945
2039.4, 0.495668
2040.2, 0.495598
2041.01, 0.495806
2041.81, 0.495945
2042.61, 0.496153
2043.42, 0.496431
2044.22, 0.496569
2045.03, 0.496361
2045.84, 0.496292
2046.65, 0.496292
2047.46, 0.496361
2048.26, 0.496500
2049.07, 0.496431
2049.88, 0.496500
2050.69, 0.496431
2051.51, 0.496500
2052.32, 0.496569
2053.13, 0.496500
2053.94, 0.496569
2054.76, 0.496777
2055.57, 0.496777
2056.39, 0.496777
2057.2, 0.496708
2058.02, 0.496427
2058.84, 0.496427
2059.66, 0.496497
2060.48, 0.497271
2061.29, 0.497482
2062.11, 0.496849
2062.94, 0.495442
2063.76, 0.496215
2064.58, 0.496919
2065.4, 0.496356
2066.22, 0.496989
2067.05, 0.497552
2067.87, 0.497200
2068.7, 0.496919
2069.52, 0.496849
2070.35, 0.496497
2071.18, 0.496356
2072.0, 0.496215
2072.83, 0.496145
2073.66, 0.496567
2074.49, 0.496989
2075.32, 0.497060
2076.15, 0.496778
2076.98, 0.496145
2077.82, 0.495653
2078.65, 0.496075
2079.48, 0.495723
2080.32, 0.496356
2081.15, 0.496356
2081.99, 0.495582
2082.83, 0.495582
2083.66, 0.495512
2084.5, 0.495230
2085.34, 0.495371
2086.18, 0.495090
2087.02, 0.495230
2087.86, 0.495230
2088.7, 0.495512
2089.54, 0.494949
2090.39, 0.494879
2091.23, 0.494597
2092.07, 0.493753
2092.92, 0.493472
2093.76, 0.494175
2094.61, 0.494175
2095.45, 0.493753
2096.3, 0.493823
2097.15, 0.494527
2098.0, 0.493964
2098.85, 0.493331
2099.7, 0.493331
2100.55, 0.493401
2101.4, 0.493190
2102.25, 0.492838
2103.1, 0.492838
2103.96, 0.492909
2104.81, 0.492768
2105.67, 0.492557
2106.52, 0.492557
2107.38, 0.492909
2108.24, 0.492557
2109.09, 0.492346
2109.95, 0.492487
2110.81, 0.492346
2111.67, 0.492064
2112.53, 0.492205
2113.39, 0.492487
2114.25, 0.492838
2115.12, 0.492346
2115.98, 0.491361
2116.84, 0.491009
2117.71, 0.491291
2118.58, 0.491291
2119.44, 0.490728
2120.31, 0.490728
2121.18, 0.491009
2122.04, 0.490446
2122.91, 0.490587
2123.78, 0.490657
2124.65, 0.490728
2125.52, 0.491431
2126.4, 0.490728
2127.27, 0.490306
2128.14, 0.490376
2129.02, 0.490095
2129.89, 0.489602
2130.77, 0.490024
2131.64, 0.490024
2132.52, 0.489321
2133.4, 0.489602
2134.27, 0.489391
2135.15, 0.488547
2136.03, 0.488336
2136.91, 0.488899
2137.79, 0.488899
2138.68, 0.488758
2139.56, 0.488547
2140.44, 0.487984
2141.33, 0.488054
2142.21, 0.488195
2143.1, 0.487491
2143.99, 0.487210
2144.87, 0.486929
2145.76, 0.487210
2146.65, 0.486647
2147.54, 0.485662
2148.43, 0.485310
2149.32, 0.484818
2150.21, 0.484396
2151.1, 0.483974
2151.99, 0.483481
2152.89, 0.482778
2153.78, 0.481863
2154.68, 0.481441
2155.57, 0.480385
2156.47, 0.479119
2157.37, 0.477923
2158.27, 0.476797
2159.16, 0.475601
2160.06, 0.474616
2160.96, 0.473491
2161.86, 0.471591
2162.77, 0.469832
2163.67, 0.468355
2164.57, 0.466807
2165.48, 0.465400
2166.38, 0.463289
2167.29, 0.461179
2168.2, 0.459560
2169.1, 0.457661
2170.01, 0.456394
2170.92, 0.454987
2171.83, 0.453369
2172.74, 0.452666
2173.65, 0.451540
2174.56, 0.450133
2175.47, 0.449218
2176.39, 0.448585
2177.3, 0.447459
2178.22, 0.446052
2179.13, 0.445278
2180.05, 0.445067
2180.96, 0.444997
2181.88, 0.444715
2182.8, 0.444082
2183.72, 0.444223
2184.64, 0.443941
2185.56, 0.443379
2186.48, 0.442816
2187.41, 0.443168
2188.33, 0.443168
2189.25, 0.444012
2190.18, 0.444434
2191.1, 0.444223
2192.03, 0.444856
2192.96, 0.446263
2193.89, 0.447459
2194.82, 0.448303
2195.74, 0.449359
2196.68, 0.450907
2197.61, 0.451962
2198.54, 0.453510
2199.47, 0.455128
2200.4, 0.456324
2201.34, 0.457520
2202.28, 0.458786
2203.21, 0.459842
2204.15, 0.460827
2205.08, 0.461460
2206.02, 0.461952
2206.96, 0.462656
2207.9, 0.463289
2208.84, 0.463922
2209.78, 0.464837
2210.73, 0.465189
2211.67, 0.465118
2212.61, 0.465822
2213.56, 0.466314
2214.5, 0.466737
2215.45, 0.467651
2216.4, 0.468073
2217.35, 0.468636
2218.3, 0.468847
2219.24, 0.469129
2220.2, 0.469621
2221.15, 0.470184
2222.1, 0.470888
2223.05, 0.471521
2224.0, 0.471873
2224.96, 0.472224
2225.91, 0.472224
2226.87, 0.472506
2227.83, 0.473069
2228.79, 0.473280
2229.74, 0.473209
2230.7, 0.473280
2231.66, 0.473561
2232.63, 0.473561
2233.59, 0.473631
2234.55, 0.473843
2235.51, 0.473561
2236.48, 0.473631
2237.44, 0.473631
2238.41, 0.473491
2239.38, 0.473702
2240.34, 0.473631
2241.31, 0.473702
2242.28, 0.473772
2243.25, 0.473561
2244.22, 0.473561
2245.19, 0.473843
2246.17, 0.473772
2247.14, 0.473631
2248.12, 0.473772
2249.09, 0.473350
2250.07, 0.473139
2251.04, 0.473491
2252.02, 0.473420
2253.0, 0.473209
2253.98, 0.473420
2254.96, 0.473561
2255.94, 0.473631
2256.92, 0.473491
2257.91, 0.473420
2258.89, 0.473139
2259.88, 0.472787
2260.86, 0.472506
2261.85, 0.472787
2262.83, 0.473561
2263.82, 0.473631
2264.81, 0.473139
2265.8, 0.472928
2266.79, 0.473069
2267.78, 0.472998
2268.78, 0.472858
2269.77, 0.473209
2270.76, 0.473139
2271.76, 0.472928
2272.75, 0.472717
2273.75, 0.472717
2274.75, 0.472787
2275.75, 0.472787
2276.75, 0.472646
2277.75, 0.472646
2278.75, 0.472787
2279.75, 0.472646
2280.75, 0.472646
2281.76, 0.472646
2282.76, 0.471873
2283.77, 0.471661
2284.77, 0.471873
2285.78, 0.471943
2286.79, 0.471873
2287.8, 0.471380
2288.81, 0.470536
2289.82, 0.470254
2290.83, 0.469621
2291.84, 0.469410
2292.86, 0.469691
2293.87, 0.468988
2294.89, 0.467933
2295.91, 0.467862
2296.92, 0.467511
2297.94, 0.467299
2298.96, 0.466877
2299.98, 0.466455
2301.0, 0.465611
2302.02, 0.465189
2303.04, 0.465118
2304.07, 0.464837
2305.09, 0.464274
2306.12, 0.463571
2307.15, 0.463149
2308.17, 0.462937
2309.2, 0.462234
2310.23, 0.461390
2311.26, 0.461038
2312.29, 0.460545
2313.32, 0.460123
2314.35, 0.459771
2315.39, 0.459560
2316.42, 0.459209
2317.46, 0.458224
2318.5, 0.457590
2319.53, 0.457028
2320.57, 0.456746
2321.61, 0.455972
2322.65, 0.455269
2323.69, 0.454706
2324.73, 0.454002
2325.78, 0.453228
2326.82, 0.452806
2327.86, 0.452455
2328.91, 0.452103
2329.96, 0.451681
2331.01, 0.451399
2332.05, 0.450907
2333.1, 0.450625
2334.15, 0.450555
2335.21, 0.449781
2336.26, 0.449288
2337.31, 0.449218
2338.36, 0.448655
2339.42, 0.448022
2340.48, 0.447670
2341.53, 0.447741
2342.59, 0.447600
2343.65, 0.447319
2344.71, 0.446685
2345.77, 0.446334
2346.83, 0.446123
2347.9, 0.445560
2348.96, 0.444645
2350.02, 0.444012
2351.09, 0.444012
2352.16, 0.444082
2353.23, 0.443449
2354.29, 0.442816
2355.36, 0.442464
2356.43, 0.442253
2357.51, 0.441831
2358.58, 0.441972
2359.65, 0.441620
2360.73, 0.441690
2361.8, 0.441620
2362.88, 0.441127
2363.96, 0.440564
2365.03, 0.440705
2366.11, 0.441268
2367.19, 0.441409
2368.27, 0.441409
2369.36, 0.441549
2370.44, 0.441690
2371.53, 0.441972
2372.61, 0.441831
2373.7, 0.442042
2374.78, 0.442394
2375.87, 0.442253
2376.96, 0.442183
2378.05, 0.443027
2379.14, 0.443238
2380.24, 0.443027
2381.33, 0.443660
2382.42, 0.443941
2383.52, 0.443590
2384.61, 0.443801
2385.71, 0.444012
2386.81, 0.444153
2387.91, 0.444082
2389.01, 0.443941
2390.11, 0.444153
2391.22, 0.444293
2392.32, 0.444082
2393.42, 0.443871
2394.53, 0.443519
2395.64, 0.443168
2396.74, 0.442957
2397.85, 0.443379
2398.96, 0.443097
2400.07, 0.442957
2401.18, 0.442464
2402.3, 0.442042
2403.41, 0.441831
2404.52, 0.441409
2405.64, 0.440705
2406.76, 0.440283
2407.88, 0.440072
2408.99, 0.440072
2410.11, 0.439931
2411.23, 0.439439
2412.36, 0.438806
2413.48, 0.438383
2414.6, 0.438032
2415.73, 0.437750
2416.85, 0.436765
2417.98, 0.435921
2419.11, 0.435006
2420.24, 0.434373
2421.37, 0.433670
2422.5, 0.432755
2423.64, 0.432051
2424.77, 0.431700
2425.9, 0.431066
2427.04, 0.430293
2428.18, 0.429589
2429.31, 0.428885
2430.45, 0.428252
2431.59, 0.427619
2432.73, 0.426916
2433.88, 0.426353
2435.02, 0.426142
2436.16, 0.425649
2437.31, 0.425016
2438.45, 0.425016
2439.6, 0.424735
2440.75, 0.424594
2441.9, 0.424594
2443.05, 0.424664
2444.2, 0.424875
2445.35, 0.425368
2446.51, 0.425508
2447.67, 0.425649
2448.82, 0.425579
2449.98, 0.425579
2451.14, 0.425368
2452.3, 0.425297
2453.46, 0.425297
2454.62, 0.425227
2455.78, 0.425227
2456.94, 0.425508
2458.11, 0.425579
2459.28, 0.425438
2460.44, 0.425227
2461.61, 0.425016
2462.78, 0.424875
2463.95, 0.425157
2465.12, 0.425086
2466.3, 0.424664
2467.47, 0.424383
2468.65, 0.424172
2469.82, 0.423820
2471.0, 0.423468
2472.18, 0.423679
2473.36, 0.423468
2474.54, 0.422483
2475.72, 0.421850
2476.9, 0.421850
2478.08, 0.421991
2479.27, 0.421498
2480.46, 0.421076
2481.64, 0.420584
2482.83, 0.420161
2484.02, 0.419810
2485.21, 0.419669
2486.4, 0.419458
2487.6, 0.419036
2488.79, 0.418965
2489.99, 0.419036
2491.18, 0.418825
2492.38, 0.418895
2493.58, 0.418543
2494.78, 0.418262
2495.98, 0.417980
2497.18, 0.417699
2498.39, 0.417980
2499.59, 0.418332
2500.8, 0.418332
2502.01, 0.418332
2503.21, 0.418191
2504.42, 0.417910
2505.63, 0.417840
2506.84, 0.417910
2508.06, 0.418051
2509.27, 0.418191
2510.49, 0.418191
2511.7, 0.417980
2512.92, 0.417910
2514.14, 0.417699
2515.36, 0.417699
2516.58, 0.417910
2517.8, 0.418121
2519.03, 0.418121
2520.25, 0.417840
2521.48, 0.417910
2522.7, 0.417629
2523.93, 0.417418
2525.16, 0.417769
2526.39, 0.417629
2527.62, 0.417418
2528.86, 0.417418
2530.09, 0.417277
2531.33, 0.416503
2532.56, 0.415799
2533.8, 0.415940
2535.04, 0.415448
2536.28, 0.414955
2537.52, 0.414885
2538.76, 0.414744
2540.01, 0.414603
2541.25, 0.414181
2542.5, 0.412844
2543.75, 0.412493
2544.99, 0.412704
2546.24, 0.412352
2547.49, 0.411578
2548.75, 0.411789
2550.0, 0.411508
2551.26, 0.410804
2552.51, 0.409960
2553.77, 0.410523
2555.03, 0.410663
2556.29, 0.410241
2557.55, 0.409749
2558.81, 0.408764
2560.08, 0.406512
2561.34, 0.404894
2562.61, 0.404472
2563.88, 0.404543
2565.14, 0.405668
2566.41, 0.406724
2567.68, 0.405950
2568.96, 0.404050
2570.23, 0.404191
2571.51, 0.404402
2572.78, 0.401939
2574.06, 0.402432
2575.34, 0.402362
2576.62, 0.401095
2577.9, 0.401658
2579.18, 0.402010
2580.47, 0.400462
2581.75, 0.399336
2583.04, 0.397085
2584.32, 0.396733
2585.61, 0.397015
2586.9, 0.395607
2588.2, 0.395819
2589.49, 0.396381
2590.78, 0.396241
2592.08, 0.394482
2593.37, 0.388431
2594.67, 0.384280
2595.97, 0.388079
2597.27, 0.391808
2598.57, 0.392371
2599.88, 0.390964
2601.18, 0.389205
2602.49, 0.388150
2603.79, 0.385898
2605.1, 0.383858
2606.41, 0.384632
2607.72, 0.385336
2609.03, 0.385265
2610.35, 0.385617
2611.66, 0.385687
2612.98, 0.385054
2614.3, 0.384491
2615.62, 0.381607
2616.94, 0.380481
2618.26, 0.381607
2619.58, 0.379989
2620.91, 0.380974
2622.23, 0.383084
2623.56, 0.383014
2624.89, 0.381677
2626.22, 0.379778
2627.55, 0.380270
2628.88, 0.379004
2630.21, 0.376963
2631.55, 0.378652
2632.89, 0.379074
2634.22, 0.379074
2635.56, 0.379778
2636.9, 0.379848
2638.25, 0.379355
2639.59, 0.378652
2640.93, 0.377667
2642.28, 0.376893
2643.63, 0.375908
2644.98, 0.374290
2646.33, 0.373868
2647.68, 0.373868
2649.03, 0.372812
2650.39, 0.370913
2651.74, 0.368521
2653.1, 0.367606
2654.46, 0.366480
2655.82, 0.365214
2657.18, 0.364510
2658.54, 0.362118
2659.9, 0.359797
2661.27, 0.358038
2662.64, 0.355997
2664.01, 0.351213
2665.38, 0.346851
2666.74, 0.344811
2668.12, 0.344178
2669.49, 0.339042
2670.87, 0.336439
2672.24, 0.337564
2673.62, 0.335806
2675.0, 0.331373
2676.38, 0.326589
2677.76, 0.323704
2679.15, 0.320538
2680.54, 0.318217
2681.92, 0.313925
2683.31, 0.308719
2684.7, 0.303372
2686.09, 0.297462
2687.48, 0.291482
2688.88, 0.285009
2690.27, 0.277200
2691.67, 0.267983
2693.07, 0.257148
2694.47, 0.247580
2695.87, 0.239137
2697.27, 0.230906
2698.67, 0.222111
2700.08, 0.212121
2701.49, 0.202131
2702.9, 0.193055
2704.31, 0.182924
2705.72, 0.172652
2707.13, 0.162169
2708.54, 0.151404
2709.96, 0.140992
2711.38, 0.132690
2712.8, 0.126288
2714.22, 0.119745
2715.64, 0.113272
2717.06, 0.107784
2718.49, 0.102859
2719.91, 0.0978640
2721.34, 0.0944170
2722.77, 0.0916730
2724.2, 0.0883660
2725.63, 0.0863960
2727.07, 0.0847780
2728.5, 0.0830900
2729.94, 0.0814010
2731.38, 0.0795720
2732.82, 0.0773910
2734.26, 0.0753500
2735.7, 0.0740840
2737.15, 0.0731690
2738.59, 0.0722550
2740.04, 0.0719730
2741.49, 0.0721840
2742.94, 0.0729580
2744.39, 0.0737320
2745.84, 0.0742950
2747.3, 0.0749990
2748.76, 0.0761240
2750.21, 0.0771800
2751.67, 0.0778130
2753.14, 0.0781650
2754.6, 0.0785160
2756.06, 0.0802050
2757.53, 0.0818230
2759.0, 0.0830900
2760.46, 0.0849190
2761.94, 0.0873110
2763.41, 0.0903360
2764.88, 0.0935020
2766.36, 0.0961760
2767.83, 0.0992010
2769.31, 0.102367
2770.79, 0.105603
2772.27, 0.109402
2773.76, 0.113342
2775.24, 0.117001
2776.73, 0.120448
2778.22, 0.123544
2779.71, 0.126288
2781.2, 0.128891
2782.69, 0.131635
2784.18, 0.134027
2785.68, 0.135293
2787.18, 0.136560
2788.68, 0.138178
2790.18, 0.139937
2791.68, 0.141203
2793.19, 0.141977
2794.69, 0.142821
2796.2, 0.143454
2797.71, 0.144017
2799.22, 0.144510
2800.73, 0.144580
2802.24, 0.144510
2803.76, 0.145002
2805.28, 0.145424
2806.8, 0.145846
2808.32, 0.146128
2809.84, 0.145987
2811.36, 0.145987
2812.89, 0.145917
2814.42, 0.145776
2815.94, 0.146057
2817.48, 0.146269
2819.01, 0.146057
2820.54, 0.145846
2822.08, 0.145917
2823.61, 0.146057
2825.15, 0.145917
2826.69, 0.145424
2828.23, 0.145284
2829.78, 0.145495
2831.32, 0.145354
2832.87, 0.145143
2834.42, 0.144721
2835.97, 0.144439
2837.52, 0.144369
2839.08, 0.144369
2840.63, 0.144228
2842.19, 0.143947
2843.75, 0.144017
2845.31, 0.144158
2846.87, 0.144158
2848.44, 0.144158
2850.0, 0.144017
2851.57, 0.144017
2853.14, 0.143947
2854.71, 0.143665
2856.28, 0.143454
2857.86, 0.143384
2859.43, 0.143314
2861.01, 0.143173
2862.59, 0.142962
2864.17, 0.143032
2865.76, 0.143173
2867.34, 0.143173
2868.93, 0.142962
2870.52, 0.142680
2872.11, 0.142540
2873.7, 0.142399
2875.29, 0.142399
2876.89, 0.142469
2878.49, 0.142540
2880.08, 0.142469
2881.69, 0.142258
2883.29, 0.142047
2884.89, 0.142258
2886.5, 0.142540
2888.11, 0.142399
2889.72, 0.142258
2891.33, 0.142469
2892.94, 0.142540
2894.56, 0.142469
2896.17, 0.142540
2897.79, 0.142610
2899.42, 0.142469
2901.04, 0.142258
2902.66, 0.142399
2904.29, 0.142540
2905.92, 0.142540
2907.55, 0.142540
2909.18, 0.142329
2910.81, 0.142188
2912.45, 0.142329
2914.08, 0.142469
2915.72, 0.142399
2917.36, 0.142258
2919.01, 0.142047
2920.65, 0.141766
2922.3, 0.141484
2923.94, 0.141414
2925.59, 0.141133
2927.25, 0.140359
2928.9, 0.139937
2930.56, 0.139725
2932.21, 0.139585
2933.87, 0.139514
2935.53, 0.139374
2937.2, 0.139444
2938.86, 0.139514
2940.53, 0.139444
2942.2, 0.139585
2943.87, 0.139444
2945.54, 0.139303
2947.22, 0.139374
2948.89, 0.139444
2950.57, 0.139514
2952.25, 0.139655
2953.93, 0.139585
2955.62, 0.139655
2957.3, 0.139655
2958.99, 0.139655
2960.68, 0.140148
2962.37, 0.140288
2964.07, 0.140077
2965.76, 0.139725
2967.46, 0.139655
2969.16, 0.139796
2970.86, 0.139937
2972.56, 0.140148
2974.27, 0.140218
2975.98, 0.140288
2977.69, 0.140288
2979.4, 0.140218
2981.11, 0.140288
2982.83, 0.140148
2984.54, 0.140007
2986.26, 0.140077
2987.98, 0.140288
2989.71, 0.140218
2991.43, 0.140288
2993.16, 0.140359
2994.89, 0.140499
2996.62, 0.140570
2998.35, 0.140640
3000.09, 0.140781
3001.83, 0.140992
3003.57, 0.141133
3005.31, 0.141203
3007.05, 0.141133
3008.79, 0.141414
3010.54, 0.141695
3012.29, 0.141836
3014.04, 0.142118
3015.8, 0.142469
3017.55, 0.142540
3019.31, 0.142540
3021.07, 0.142751
3022.83, 0.143103
3024.59, 0.143314
3026.36, 0.143665
3028.13, 0.143736
3029.9, 0.143806
3031.67, 0.144088
3033.44, 0.144228
3035.22, 0.144299
3037.0, 0.144439
3038.78, 0.144791
3040.56, 0.145002
3042.34, 0.145213
3044.13, 0.145495
3045.92, 0.145495
3047.71, 0.145565
3049.5, 0.145917
3051.3, 0.146128
3053.09, 0.146198
3054.89, 0.146480
3056.69, 0.146620
3058.5, 0.146620
3060.3, 0.146761
3062.11, 0.147042
3063.92, 0.147394
3065.73, 0.147605
3067.55, 0.147535
3069.36, 0.147746
3071.18, 0.147887
3073.0, 0.148098
3074.82, 0.148309
3076.65, 0.148450
3078.48, 0.148661
3080.31, 0.148872
3082.14, 0.148942
3083.97, 0.149083
3085.8, 0.149364
3087.64, 0.149575
3089.48, 0.149857
3091.33, 0.149997
3093.17, 0.150138
3095.02, 0.150419
3096.87, 0.150631
3098.72, 0.150912
3100.57, 0.151334
3102.43, 0.151616
3104.28, 0.152038
3106.14, 0.152319
3108.01, 0.152319
3109.87, 0.152741
3111.74, 0.153093
3113.61, 0.153304
3115.48, 0.153656
3117.35, 0.153937
3119.23, 0.154219
3121.1, 0.154359
3122.98, 0.154570
3124.87, 0.155133
3126.75, 0.155555
3128.64, 0.155766
3130.53, 0.155907
3132.42, 0.156189
3134.31, 0.156400
3136.21, 0.156751
3138.11, 0.157244
3140.01, 0.157736
3141.91, 0.157877
3143.82, 0.158088
3145.73, 0.158510
3147.64, 0.159003
3149.55, 0.159355
3151.46, 0.159636
3153.38, 0.159847
3155.3, 0.160129
3157.22, 0.160410
3159.14, 0.160832
3161.07, 0.161325
3163.0, 0.161536
3164.93, 0.161817
3166.86, 0.162380
3168.8, 0.162802
3170.74, 0.163083
3172.68, 0.163506
3174.62, 0.163998
3176.56, 0.164209
3178.51, 0.164631
3180.46, 0.164983
3182.42, 0.165194
3184.37, 0.165476
3186.33, 0.165898
3188.29, 0.166531
3190.25, 0.166812
3192.21, 0.167164
3194.18, 0.167586
3196.15, 0.168149
3198.12, 0.168501
3200.09, 0.168712
3202.07, 0.169064
3204.05, 0.169486
3206.03, 0.169908
3208.02, 0.170189
3210.0, 0.170611
3211.99, 0.171104
3213.98, 0.171456
3215.98, 0.171948
3217.97, 0.172441
3219.97, 0.172792
3221.97, 0.173215
3223.98, 0.173777
3225.98, 0.174200
3227.99, 0.174551
3230.0, 0.174903
3232.02, 0.175255
3234.03, 0.175818
3236.05, 0.176240
3238.07, 0.176451
3240.1, 0.176803
3242.12, 0.177366
3244.15, 0.177788
3246.18, 0.178069
3248.22, 0.178421
3250.25, 0.178632
3252.29, 0.178913
3254.33, 0.179265
3256.38, 0.179617
3258.43, 0.179898
3260.47, 0.180320
3262.53, 0.180743
3264.58, 0.181165
3266.64, 0.181516
3268.7, 0.181868
3270.76, 0.182220
3272.82, 0.182713
3274.89, 0.182994
3276.96, 0.183275
3279.04, 0.183697
3281.11, 0.184049
3283.19, 0.184401
3285.27, 0.184823
3287.35, 0.185456
3289.44, 0.185879
3291.53, 0.186160
3293.62, 0.186441
3295.71, 0.186934
3297.81, 0.187356
3299.91, 0.187708
3302.01, 0.188060
3304.11, 0.188482
3306.22, 0.188833
3308.33, 0.189115
3310.44, 0.189537
3312.56, 0.190100
3314.68, 0.190522
3316.8, 0.191014
3318.92, 0.191577
3321.05, 0.191859
3323.18, 0.192210
3325.31, 0.192633
3327.44, 0.193055
3329.58, 0.193688
3331.72, 0.194321
3333.86, 0.194743
3336.01, 0.195025
3338.16, 0.195517
3340.31, 0.196010
3342.46, 0.196150
3344.61, 0.196643
3346.77, 0.197135
3348.94, 0.197417
3351.1, 0.197769
3353.27, 0.198191
3355.44, 0.198613
3357.61, 0.199035
3359.79, 0.199316
3361.97, 0.199809
3364.15, 0.200372
3366.33, 0.200653
3368.52, 0.200935
3370.71, 0.201286
3372.9, 0.201779
3375.1, 0.202412
3377.3, 0.202693
3379.5, 0.202904
3381.71, 0.203327
3383.91, 0.203889
3386.12, 0.204382
3388.34, 0.204734
3390.55, 0.205015
3392.77, 0.205508
3394.99, 0.206000
3397.22, 0.206422
3399.45, 0.206915
3401.68, 0.207337
3403.91, 0.207900
3406.15, 0.208251
3408.39, 0.208603
3410.63, 0.209025
3412.87, 0.209377
3415.12, 0.209799
3417.37, 0.210221
3419.63, 0.210855
3421.88, 0.211347
3424.14, 0.211980
3426.41, 0.212614
3428.67, 0.213176
3430.94, 0.213739
3433.21, 0.214232
3435.49, 0.214724
3437.77, 0.215357
3440.05, 0.215850
3442.33, 0.216131
3444.62, 0.216624
3446.91, 0.217187
3449.2, 0.217609
3451.5, 0.218031
3453.8, 0.218594
3456.1, 0.219157
3458.41, 0.219579
3460.72, 0.220001
3463.03, 0.220423
3465.34, 0.220845
3467.66, 0.221197
3469.98, 0.221689
3472.31, 0.222111
3474.63, 0.222323
3476.96, 0.222674
3479.3, 0.223167
3481.64, 0.223589
3483.97, 0.223941
3486.32, 0.224363
3488.66, 0.224715
3491.01, 0.224926
3493.36, 0.225207
3495.72, 0.225559
3498.08, 0.225911
3500.44, 0.226333
3502.81, 0.226825
3505.18, 0.227107
3507.55, 0.227529
3509.92, 0.228092
3512.3, 0.228514
3514.68, 0.228866
3517.06, 0.229428
3519.45, 0.229851
3521.84, 0.230273
3524.24, 0.230624
3526.64, 0.231047
3529.04, 0.231609
3531.44, 0.231961
3533.85, 0.232172
3536.26, 0.232524
3538.67, 0.233017
3541.09, 0.233509
3543.51, 0.234072
3545.93, 0.234705
3548.36, 0.235057
3550.79, 0.235409
3553.22, 0.235831
3555.66, 0.236112
3558.1, 0.236534
3560.54, 0.237238
3562.99, 0.237801
3565.44, 0.238293
3567.9, 0.238715
3570.35, 0.239278
3572.81, 0.239630
3575.28, 0.240122
3577.75, 0.240685
3580.22, 0.241037
3582.69, 0.241530
3585.17, 0.241952
3587.65, 0.242444
3590.14, 0.243007
3592.62, 0.243499
3595.11, 0.243992
3597.61, 0.244484
3600.11, 0.244836
3602.61, 0.245188
3605.11, 0.245610
3607.62, 0.246173
3610.14, 0.246736
3612.65, 0.247158
3615.17, 0.247650
3617.69, 0.248143
3620.22, 0.248495
3622.75, 0.248776
3625.28, 0.249269
3627.82, 0.249620
3630.36, 0.250042
3632.9, 0.250465
3635.45, 0.250887
3638.0, 0.251379
3640.56, 0.251590
3643.12, 0.251942
3645.68, 0.252505
3648.24, 0.252927
3650.81, 0.253138
3653.39, 0.253631
3655.96, 0.254053
3658.54, 0.254334
3661.13, 0.254616
3663.71, 0.255108
3666.3, 0.255671
3668.9, 0.256093
3671.5, 0.256445
3674.1, 0.256867
3676.7, 0.257430
3679.31, 0.257852
3681.93, 0.258274
3684.54, 0.258555
3687.17, 0.258978
3689.79, 0.259611
3692.42, 0.259822
3695.05, 0.260174
3697.69, 0.260736
3700.32, 0.261018
3702.97, 0.261370
3705.61, 0.261933
3708.27, 0.262284
3710.92, 0.262706
3713.58, 0.263199
3716.24, 0.263621
3718.91, 0.263973
3721.58, 0.264325
3724.25, 0.264676
3726.93, 0.265099
3729.61, 0.265591
3732.29, 0.266013
3734.98, 0.266435
3737.67, 0.266998
3740.37, 0.267491
3743.07, 0.267772
3745.78, 0.268053
3748.49, 0.268405
3751.2, 0.268827
3753.91, 0.269179
3756.63, 0.269531
3759.36, 0.269883
3762.09, 0.270375
3764.82, 0.270657
3767.55, 0.270938
3770.29, 0.271290
3773.04, 0.271571
3775.78, 0.271853
3778.54, 0.272064
3781.29, 0.272415
3784.05, 0.272697
3786.82, 0.272908
3789.59, 0.273260
3792.36, 0.273611
3795.13, 0.273893
3797.92, 0.274034
3800.7, 0.274174
3803.49, 0.274385
3806.28, 0.274667
3809.08, 0.274948
3811.88, 0.275019
3814.68, 0.275089
3817.49, 0.275159
3820.31, 0.275159
3823.12, 0.275370
3825.94, 0.275581
3828.77, 0.275722
3831.6, 0.275863
3834.43, 0.275933
3837.27, 0.276004
3840.11, 0.276144
3842.96, 0.276144
3845.81, 0.276285
3848.67, 0.276426
3851.53, 0.276566
3854.39, 0.276566
3857.26, 0.276777
3860.13, 0.276918
3863.01, 0.276989
3865.89, 0.276989
3868.77, 0.277059
3871.66, 0.277200
3874.55, 0.277411
3877.45, 0.277411
3880.35, 0.277411
3883.26, 0.277481
3886.17, 0.277481
3889.09, 0.277411
3892.01, 0.277481
3894.93, 0.277622
3897.86, 0.277692
3900.79, 0.277692
3903.73, 0.277622
3906.67, 0.277551
3909.62, 0.277622
3912.57, 0.277622
3915.52, 0.277762
3918.48, 0.277833
3921.45, 0.277762
3924.42, 0.277692
3927.39, 0.277622
3930.37, 0.277481
3933.35, 0.277622
3936.34, 0.277622
3939.33, 0.277481
3942.32, 0.277411
3945.32, 0.277481
3948.33, 0.277481
3951.34, 0.277551
3954.35, 0.277411
3957.37, 0.277411
3960.39, 0.277411
3963.42, 0.277411
3966.45, 0.277340
3969.49, 0.277340
3972.53, 0.277411
3975.58, 0.277481
3978.63, 0.277340
3981.68, 0.277340
3984.75, 0.277411
3987.81, 0.277551
3990.88, 0.277692
3993.95, 0.277762
3997.03, 0.277762
4000.12, 0.277833
4003.21, 0.277833
4006.3, 0.277762
4009.4, 0.277833
4012.5, 0.278044
4015.61, 0.277974
4018.72, 0.277903
4021.84, 0.278044
4024.96, 0.278185
4028.09, 0.278255
4031.22, 0.278396
4034.36, 0.278536
4037.5, 0.278607
4040.65, 0.278747
4043.8, 0.278888
4046.96, 0.278888
4050.12, 0.278888
4053.29, 0.278958
4056.46, 0.279099
4059.64, 0.279240
4062.82, 0.279381
4066.0, 0.279381
4069.19, 0.279451
4072.39, 0.279592
4075.59, 0.279592
4078.8, 0.279873
4082.01, 0.280084
4085.23, 0.280155
4088.45, 0.280155
4091.68, 0.280155
4094.91, 0.280295
4098.15, 0.280366
4101.39, 0.280506
4104.63, 0.280647
4107.89, 0.280858
4111.14, 0.280999
4114.41, 0.281140
4117.67, 0.281351
4120.95, 0.281562
4124.23, 0.281562
4127.51, 0.281562
4130.8, 0.281773
4134.09, 0.281984
4137.39, 0.282124
4140.7, 0.282265
4144.01, 0.282265
4147.32, 0.282406
4150.64, 0.282617
4153.97, 0.282758
4157.3, 0.282828
4160.64, 0.282969
4163.98, 0.283109
4167.33, 0.283250
4170.68, 0.283391
4174.04, 0.283532
4177.4, 0.283602
4180.77, 0.283672
4184.14, 0.283743
4187.52, 0.283883
4190.91, 0.284024
4194.3, 0.284165
4197.69, 0.284306
4201.1, 0.284517
4204.5, 0.284517
4207.92, 0.284517
4211.34, 0.284587
4214.76, 0.284798
4218.19, 0.284939
4221.62, 0.284868
4225.06, 0.284798
4228.51, 0.284868
4231.96, 0.285079
4235.42, 0.285220
4238.88, 0.285361
4242.35, 0.285642
4245.83, 0.285924
4249.31, 0.286205
4252.79, 0.286486
4256.28, 0.286768
4259.78, 0.286627
4263.29, 0.286416
4266.79, 0.286275
4270.31, 0.286135
4273.83, 0.286205
4277.35, 0.286346
4280.89, 0.286346
4284.42, 0.286416
4287.97, 0.286557
4291.52, 0.286768
4295.07, 0.286979
4298.63, 0.287120
4302.2, 0.287260
4305.78, 0.287471
4309.35, 0.287542
4312.94, 0.287753
4316.53, 0.287964
4320.13, 0.288034
4323.73, 0.288175
4327.34, 0.288245
4330.96, 0.288245
4334.58, 0.288386
4338.21, 0.288456
4341.84, 0.288386
4345.48, 0.288105
4349.12, 0.287894
4352.77, 0.287823
4356.43, 0.287683
4360.1, 0.287331
4363.76, 0.286979
4367.44, 0.286768
4371.12, 0.286346
4374.81, 0.285924
4378.51, 0.285572
4382.21, 0.284939
4385.92, 0.284446
4389.63, 0.284024
4393.35, 0.283532
4397.08, 0.282828
4400.81, 0.282195
4404.55, 0.281773
4408.29, 0.281210
4412.04, 0.280647
4415.8, 0.280084
4419.57, 0.279521
4423.34, 0.278958
4427.12, 0.278466
4430.9, 0.278114
4434.69, 0.277762
4438.49, 0.277481
4442.29, 0.277059
4446.1, 0.276637
4449.92, 0.276074
4453.74, 0.275441
4457.57, 0.274808
4461.41, 0.274315
4465.25, 0.273963
4469.1, 0.273682
4472.95, 0.273541
4476.82, 0.273400
4480.69, 0.273471
4484.56, 0.273682
4488.44, 0.273682
4492.33, 0.273682
4496.23, 0.273752
4500.13, 0.273893
4504.04, 0.274385
4507.96, 0.274948
4511.88, 0.275441
4515.81, 0.275863
4519.75, 0.276285
4523.69, 0.276707
4527.65, 0.276989
4531.6, 0.277129
4535.57, 0.277270
4539.54, 0.277481
4543.52, 0.277551
4547.5, 0.277551
4551.5, 0.277411
4555.5, 0.277200
4559.5, 0.277059
4563.52, 0.276848
4567.54, 0.276496
4571.56, 0.276285
4575.6, 0.275863
4579.64, 0.275511
4583.69, 0.275089
4587.75, 0.274667
4591.81, 0.274245
4595.88, 0.273893
4599.96, 0.273400
4604.04, 0.272978
4608.14, 0.272345
4612.24, 0.271712
4616.34, 0.271149
4620.46, 0.270586
4624.58, 0.269953
4628.71, 0.269249
4632.84, 0.268616
4636.99, 0.267913
4641.14, 0.267209
4645.3, 0.266435
4649.47, 0.265591
4653.64, 0.264747
4657.82, 0.263902
4662.01, 0.262777
4666.21, 0.261792
4670.41, 0.261018
4674.62, 0.260103
4678.84, 0.259329
4683.07, 0.258696
4687.3, 0.258344
4691.54, 0.258344
4695.79, 0.258485
4700.05, 0.258485
4704.31, 0.258485
4708.59, 0.258485
4712.87, 0.258415
4717.15, 0.258063
4721.45, 0.257641
4725.76, 0.257359
4730.07, 0.256937
4734.39, 0.256304
4738.72, 0.255882
4743.05, 0.255319
4747.39, 0.254827
4751.75, 0.254264
4756.1, 0.253631
4760.47, 0.253068
4764.85, 0.252575
4769.23, 0.252012
4773.62, 0.251450
4778.02, 0.250887
4782.43, 0.250183
4786.85, 0.249480
4791.27, 0.248776
4795.7, 0.248213
4800.14, 0.247580
4804.59, 0.246947
4809.05, 0.246173
4813.51, 0.245399
4817.99, 0.244625
4822.47, 0.243781
4826.96, 0.242937
4831.46, 0.242092
4835.96, 0.241107
4840.48, 0.240122
4845.0, 0.239067
4849.54, 0.238012
4854.08, 0.236816
4858.63, 0.235549
4863.18, 0.234072
4867.75, 0.232454
4872.33, 0.230624
4876.91, 0.228584
4881.5, 0.226333
4886.1, 0.223941
4890.71, 0.221126
4895.33, 0.217890
4899.96, 0.214443
4904.59, 0.210784
4909.24, 0.207126
4913.89, 0.203749
4918.55, 0.200723
4923.22, 0.198120
4927.9, 0.196010
4932.59, 0.194180
4937.29, 0.192633
4942.0, 0.191226
4946.71, 0.189818
4951.44, 0.188200
4956.17, 0.186230
4960.91, 0.183909
4965.67, 0.181376
4970.43, 0.178632
4975.2, 0.175958
4979.98, 0.173637
4984.76, 0.171385
4989.56, 0.169486
4994.37, 0.168079
4999.18, 0.166883
5004.01, 0.165898
5008.84, 0.165053
5013.69, 0.164139
5018.54, 0.163435
5023.4, 0.163294
5028.28, 0.163154
5033.16, 0.162872
5038.05, 0.162521
5042.95, 0.162239
5047.86, 0.161958
5052.78, 0.161606
5057.71, 0.161395
5062.65, 0.161254
5067.6, 0.161113
5072.56, 0.161254
5077.53, 0.161606
5082.5, 0.162098
5087.49, 0.162872
5092.49, 0.163506
5097.5, 0.164068
5102.51, 0.164631
5107.54, 0.164842
5112.58, 0.164702
5117.62, 0.164420
5122.68, 0.164068
5127.75, 0.163857
5132.82, 0.163787
5137.91, 0.163646
5143.01, 0.163365
5148.12, 0.163154
5153.23, 0.163224
5158.36, 0.163154
5163.5, 0.163154
5168.65, 0.162943
5173.81, 0.162872
5178.98, 0.162661
5184.15, 0.162380
5189.34, 0.162098
5194.54, 0.161606
5199.75, 0.160762
5204.98, 0.159706
5210.21, 0.157877
5215.45, 0.155837
5220.7, 0.153656
5225.96, 0.150982
5231.23, 0.147957
5236.52, 0.144721
5241.81, 0.141414
5247.12, 0.138178
5252.44, 0.135223
5257.76, 0.132338
5263.1, 0.129805
5268.45, 0.127273
5273.81, 0.124810
5279.18, 0.122559
5284.56, 0.120589
5289.95, 0.118760
5295.36, 0.117212
5300.77, 0.115805
5306.2, 0.114538
5311.63, 0.113413
5317.08, 0.112287
5322.54, 0.111302
5328.01, 0.110458
5333.49, 0.109684
5338.98, 0.109121
5344.49, 0.108277
5350.0, 0.107573
5355.53, 0.107784
5361.07, 0.108417
5366.62, 0.109332
5372.18, 0.110528
5377.75, 0.112217
5383.34, 0.114327
5388.93, 0.116860
5394.54, 0.119604
5400.16, 0.122559
5405.79, 0.125373
5411.44, 0.128117
5417.09, 0.130087
5422.76, 0.131916
5428.43, 0.134449
5434.12, 0.136419
5439.83, 0.137756
5445.54, 0.138670
5451.26, 0.139303
5457.0, 0.139303
5462.75, 0.138600
5468.52, 0.138389
5474.29, 0.138037
5480.08, 0.137333
5485.88, 0.136771
5491.69, 0.135997
5497.51, 0.135152
5503.35, 0.134167
5509.2, 0.133042
5515.06, 0.131846
5520.93, 0.130579
5526.82, 0.129524
5532.71, 0.128539
5538.63, 0.127413
5544.55, 0.126217
5550.49, 0.125092
5556.44, 0.124388
5562.4, 0.123825
5568.37, 0.123262
5574.36, 0.122348
5580.36, 0.121855
5586.37, 0.122277
5592.4, 0.122700
5598.44, 0.122770
5604.49, 0.123122
5610.56, 0.123614
5616.63, 0.124247
5622.73, 0.125232
5628.83, 0.126147
5634.95, 0.126850
5641.08, 0.127624
5647.23, 0.129735
5653.39, 0.131846
5659.56, 0.133886
5665.74, 0.135575
5671.94, 0.136419
5678.15, 0.137404
5684.38, 0.138318
5690.62, 0.138529
5696.87, 0.138881
5703.14, 0.138529
5709.42, 0.137474
5715.72, 0.137052
5722.03, 0.136841
5728.35, 0.136348
5734.69, 0.135504
5741.03, 0.134378
5747.4, 0.132971
5753.78, 0.132409
5760.17, 0.130509
5766.58, 0.128328
5773.0, 0.128469
5779.44, 0.128187
5785.88, 0.127343
5792.35, 0.126217
5798.83, 0.124951
5805.32, 0.123684
5811.83, 0.121926
5818.35, 0.119393
5824.89, 0.117845
5831.45, 0.117282
5838.01, 0.116438
5844.59, 0.115101
5851.19, 0.113413
5857.8, 0.111443
5864.43, 0.109473
5871.07, 0.107643
5877.73, 0.104337
5884.4, 0.102297
5891.09, 0.101030
5897.79, 0.0989190
5904.5, 0.0980750
5911.23, 0.0965270
5917.98, 0.0945570
5924.75, 0.0926580
5931.53, 0.0902660
5938.32, 0.0885770
5945.13, 0.0888590
5951.96, 0.0887880
5958.8, 0.0884370
5965.65, 0.0877330
5972.53, 0.0876630
5979.42, 0.0877330
5986.32, 0.0872400
5993.24, 0.0873110
6000.18, 0.0877330
6007.13, 0.0873810
6014.1, 0.0867480
6021.08, 0.0866070
6028.09, 0.0862560
6035.1, 0.0855520
6042.14, 0.0837230
6049.19, 0.0820340
6056.25, 0.0828080
6063.34, 0.0827380
6070.44, 0.0815420
6077.55, 0.0810490
6084.69, 0.0809090
6091.84, 0.0802050
6099.0, 0.0791500
6106.19, 0.0776020
6113.39, 0.0760540
6120.61, 0.0755620
6127.84, 0.0751390
6135.09, 0.0738730
6142.36, 0.0724660
6149.65, 0.0713400
6156.95, 0.0700030
6164.27, 0.0690890
6171.61, 0.0684560
6178.97, 0.0674000
6186.34, 0.0665560
6193.73, 0.0670490
6201.14, 0.0677520
6208.57, 0.0684560
6216.01, 0.0694410
6223.47, 0.0707770
6230.95, 0.0725360
6238.45, 0.0745060
6245.97, 0.0763350
6253.5, 0.0784460
6261.06, 0.0805570
6268.63, 0.0827380
6276.21, 0.0848480
6283.82, 0.0868180
6291.45, 0.0886480
6299.1, 0.0906180
6306.76, 0.0925170
6314.44, 0.0944170
6322.14, 0.0963160
6329.86, 0.0979340
6337.6, 0.0986380
6345.35, 0.0996230
6353.13, 0.101874
6360.92, 0.103493
6368.74, 0.104196
6376.57, 0.105885
6384.43, 0.107714
6392.3, 0.108980
6400.19, 0.109473
6408.1, 0.108136
6416.03, 0.107995
6423.98, 0.109965
6431.95, 0.110669
6439.94, 0.111021
6447.95, 0.110950
6455.98, 0.110528
6464.03, 0.109613
6472.1, 0.107855
6480.19, 0.105955
6488.31, 0.103422
6496.44, 0.101804
6504.59, 0.101452
6512.76, 0.0998340
6520.95, 0.0973010
6529.16, 0.0958240
6537.4, 0.0943460
6545.65, 0.0927990
6553.92, 0.0918140
6562.22, 0.0912510
6570.54, 0.0905470
6578.88, 0.0909690
6587.23, 0.0915320
6595.61, 0.0918140
6604.02, 0.0920950
6612.44, 0.0920250
6620.89, 0.0916730
6629.35, 0.0906180
6637.84, 0.0896330
6646.35, 0.0904060
6654.88, 0.0906880
6663.44, 0.0897030
6672.01, 0.0883660
6680.61, 0.0871700
6689.23, 0.0866070
6697.88, 0.0861150
6706.54, 0.0850590
6715.23, 0.0843560
6723.94, 0.0842150
6732.67, 0.0841450
6741.42, 0.0837930
6750.2, 0.0833710
6759.0, 0.0830900
6767.82, 0.0825270
6776.67, 0.0818930
6785.54, 0.0810490
6794.44, 0.0808380
6803.35, 0.0811900
6812.29, 0.0809090
6821.26, 0.0800640
6830.24, 0.0794310
6839.25, 0.0792900
6848.29, 0.0784460
6857.35, 0.0768980
6866.43, 0.0760540
6875.54, 0.0763350
6884.67, 0.0759130
6893.82, 0.0751390
6903.0, 0.0740840
6912.2, 0.0732400
6921.43, 0.0723960
6930.69, 0.0714810
6939.96, 0.0704960
6949.27, 0.0691590
6958.59, 0.0675410
6967.95, 0.0667670
6977.33, 0.0661340
6986.73, 0.0652900
6996.16, 0.0644450
7005.61, 0.0638120
7015.09, 0.0631090
7024.6, 0.0623350
7034.13, 0.0615610
7043.69, 0.0605760
7053.27, 0.0602240
7062.88, 0.0602240
7072.52, 0.0599430
7082.18, 0.0595210
7091.87, 0.0591690
7101.58, 0.0587470
7111.32, 0.0582540
7121.09, 0.0578320
7130.88, 0.0574100
7140.71, 0.0567770
7150.56, 0.0560730
7160.43, 0.0555810
7170.33, 0.0551580
7180.27, 0.0550880
7190.23, 0.0548770
7200.21, 0.0542440
7210.23, 0.0536110
7220.27, 0.0531890
7230.34, 0.0524850
7240.44, 0.0516410
7250.56, 0.0507260
7260.72, 0.0498820
7270.9, 0.0491080
7281.12, 0.0484040
7291.36, 0.0477710
7301.63, 0.0471380
7311.93, 0.0464340
7322.25, 0.0458720
7332.61, 0.0451680
7343.0, 0.0445350
7353.41, 0.0440420
7363.86, 0.0436200
7374.33, 0.0431280
7384.83, 0.0424950
7395.37, 0.0420720
7405.93, 0.0415800
7416.53, 0.0409470
7427.15, 0.0405250
7437.81, 0.0401020
7448.5, 0.0396100
7459.22, 0.0389770
7469.96, 0.0386250
7480.74, 0.0383440
7491.55, 0.0380620
7502.39, 0.0378510
7513.27, 0.0377100
7524.17, 0.0374290
7535.11, 0.0371480
7546.08, 0.0369360
7557.08, 0.0367250
7568.11, 0.0364440
7579.17, 0.0362330
7590.27, 0.0361630
7601.4, 0.0362330
7612.56, 0.0363030
7623.76, 0.0365140
7634.98, 0.0368660
7646.24, 0.0372180
7657.54, 0.0377810
7668.87, 0.0384840
7680.23, 0.0389060
7691.62, 0.0393290
7703.05, 0.0398210
7714.51, 0.0405950
7726.01, 0.0414390
7737.54, 0.0422830
7749.11, 0.0430570
7760.71, 0.0437610
7772.35, 0.0444650
7784.02, 0.0451680
7795.72, 0.0458720
7807.46, 0.0467160
7819.23, 0.0477010
7831.04, 0.0489670
7842.89, 0.0505150
7854.77, 0.0523440
7866.69, 0.0543140
7878.65, 0.0565660
7890.64, 0.0593090
7902.67, 0.0621240
7914.74, 0.0652190
7926.84, 0.0685960
7938.98, 0.0723250
7951.16, 0.0761950
7963.37, 0.0799940
7975.62, 0.0837930
7987.91, 0.0874520
8000.24, 0.0908290
8012.6, 0.0943460
8025.01, 0.0980750
8037.45, 0.101734
8049.93, 0.105674
8062.45, 0.110106
8075.01, 0.114679
8087.61, 0.119604
8100.24, 0.124810
8112.91, 0.130016
8125.63, 0.135293
8138.39, 0.140570
8151.18, 0.145495
8164.02, 0.149927
8176.9, 0.153234
8189.81, 0.155274
8202.77, 0.156400
8215.77, 0.156963
8228.82, 0.157103
8241.9, 0.156822
8255.02, 0.156329
8268.19, 0.155626
8281.39, 0.154993
8294.65, 0.154500
8307.94, 0.154148
8321.28, 0.153937
8334.66, 0.154008
8348.08, 0.154148
8361.54, 0.154570
8375.05, 0.155415
8388.6, 0.156118
8402.2, 0.157103
8415.84, 0.158229
8429.52, 0.159355
8443.25, 0.160480
8457.02, 0.161887
8470.84, 0.162943
8484.7, 0.163928
8498.61, 0.164772
8512.57, 0.165335
8526.57, 0.165546
8540.62, 0.164983
8554.71, 0.163435
8568.85, 0.160129
8583.04, 0.154289
8597.27, 0.145917
8611.55, 0.137474
8625.88, 0.134449
8640.26, 0.140007
8654.68, 0.150842
8669.16, 0.161465
8683.68, 0.169556
8698.25, 0.175185
8712.87, 0.179617
8727.53, 0.183064
8742.25, 0.185879
8757.02, 0.188060
8771.83, 0.189889
8786.7, 0.191577
8801.62, 0.192633
8816.59, 0.192914
8831.61, 0.192281
8846.68, 0.191155
8861.8, 0.189537
8876.97, 0.187637
8892.2, 0.185597
8907.48, 0.183557
8922.81, 0.182079
8938.2, 0.181305
8953.63, 0.181235
8969.13, 0.181868
8984.67, 0.183135
9000.27, 0.184964
9015.92, 0.187075
9031.63, 0.188974
9047.39, 0.190592
9063.21, 0.192281
9079.08, 0.193688
9095.01, 0.194673
9111.0, 0.195728
9127.04, 0.196573
9143.13, 0.197135
9159.28, 0.197487
9175.49, 0.197909
9191.76, 0.198472
9208.09, 0.199176
9224.47, 0.199739
9240.92, 0.200653
9257.42, 0.201427
9273.98, 0.201708
9290.6, 0.201497
9307.28, 0.200161
9324.02, 0.196995
9340.82, 0.191718
9357.68, 0.184894
9374.6, 0.177295
9391.58, 0.168853
9408.62, 0.159847
9425.73, 0.151334
9442.9, 0.143665
9460.13, 0.136982
9477.42, 0.131001
9494.78, 0.125514
9512.2, 0.120237
9529.69, 0.115383
9547.24, 0.111372
9564.86, 0.107925
9582.54, 0.104900
9600.28, 0.102719
9618.1, 0.101452
9635.97, 0.100186
9653.92, 0.0989900
9671.93, 0.0977230
9690.01, 0.0966680
9708.16, 0.0955420
9726.37, 0.0944870
9744.65, 0.0936430
9763.0, 0.0927280
9781.43, 0.0916030
9799.92, 0.0904060
9818.48, 0.0891400
9837.1, 0.0878740
9855.8, 0.0866780
9874.58, 0.0854820
9893.42, 0.0840040
9912.34, 0.0824560
9931.33, 0.0809790
9950.39, 0.0796420
9969.52, 0.0786570
9988.74, 0.0777430
10008.0, 0.0768980
10027.4, 0.0763350
10046.8, 0.0762650
10066.3, 0.0762650
10085.9, 0.0761240
10105.6, 0.0759840
10125.3, 0.0756320
10145.1, 0.0749280
10165.0, 0.0745060
10185.0, 0.0742950
10205.0, 0.0739430
10225.2, 0.0736620
10245.4, 0.0734510
10265.7, 0.0730990
10286.0, 0.0726070
10306.5, 0.0721840
10327.0, 0.0719030
10347.6, 0.0716920
10368.3, 0.0713400
10389.1, 0.0710590
10409.9, 0.0709180
10430.9, 0.0707070
10451.9, 0.0706370
10473.0, 0.0707070
10494.2, 0.0710590
10515.5, 0.0713400
10536.9, 0.0711990
10558.4, 0.0708480
10579.9, 0.0707070
10601.5, 0.0708480
10623.3, 0.0709180
10645.1, 0.0709180
10667.0, 0.0709880
10689.0, 0.0709880
10711.1, 0.0710590
10733.2, 0.0709880
10755.5, 0.0704960
10777.9, 0.0703550
10800.3, 0.0704260
10822.9, 0.0704960
10845.5, 0.0705660
10868.2, 0.0707070
10891.1, 0.0709880
10914.0, 0.0713400
10937.0, 0.0721140
10960.2, 0.0730990
10983.4, 0.0742950
11006.7, 0.0756320
11030.1, 0.0766170
11053.6, 0.0776020
11077.3, 0.0786570
11101.0, 0.0790790
11124.8, 0.0790090
11148.7, 0.0789390
11172.7, 0.0791500
11196.9, 0.0789390
11221.1, 0.0785160
11245.4, 0.0780940
11269.9, 0.0776020
11294.4, 0.0770390
11319.1, 0.0763350
11343.9, 0.0759130
11368.8, 0.0755620
11393.7, 0.0745060
11418.8, 0.0735920
11444.0, 0.0733810
11469.4, 0.0735210
11494.8, 0.0738030
11520.3, 0.0742250
11546.0, 0.0747880
11571.8, 0.0757730
11597.7, 0.0766870
11623.7, 0.0773200
11649.8, 0.0777430
11676.0, 0.0775310
11702.4, 0.0768280
11728.9, 0.0757730
11755.5, 0.0740840
11782.2, 0.0723250
11809.0, 0.0707770
11836.0, 0.0686670
11863.0, 0.0659230
11890.3, 0.0631790
11917.6, 0.0603650
11945.0, 0.0574800
11972.6, 0.0548770
12000.4, 0.0521330
12028.2, 0.0493190
12056.2, 0.0462940
12084.3, 0.0428460
12112.5, 0.0403840
12140.9, 0.0379210
12169.4, 0.0353180
12198.0, 0.0328560
12226.8, 0.0307450
12255.7, 0.0290570
12284.7, 0.0280720
12313.9, 0.0284240
12343.2, 0.0313080
12372.7, 0.0370770
12402.3, 0.0443940
12432.0, 0.0512890
12461.9, 0.0558620
12491.9, 0.0578320
12522.1, 0.0583950
12552.4, 0.0576210
12582.9, 0.0553700
12613.5, 0.0532590
12644.3, 0.0526960
12675.2, 0.0545250
12706.3, 0.0577620
12737.5, 0.0615610
12768.9, 0.0649380
12800.4, 0.0664860
12832.1, 0.0659930
12863.9, 0.0638830
12895.9, 0.0607170
12928.1, 0.0577620
12960.4, 0.0555810
12992.9, 0.0542440
13025.5, 0.0531890
13058.3, 0.0522040
13091.3, 0.0522740
13124.4, 0.0522040
13157.8, 0.0518520
13191.2, 0.0520630
13224.9, 0.0523440
13258.7, 0.0521330
13292.7, 0.0516410
13326.9, 0.0517110
13361.2, 0.0520630
13395.7, 0.0519220
13430.4, 0.0512890
13465.3, 0.0511480
13500.4, 0.0510780
13535.7, 0.0512190
13571.1, 0.0515700
13606.7, 0.0515000
13642.5, 0.0514300
13678.5, 0.0517810
13714.7, 0.0519220
13751.1, 0.0517110
13787.6, 0.0519930
13824.4, 0.0519220
13861.4, 0.0512890
13898.5, 0.0504450
13935.9, 0.0493890
13973.5, 0.0484040
14011.2, 0.0477010
14049.2, 0.0461530
14087.4, 0.0443240
14125.8, 0.0427060
14164.3, 0.0408760
14203.2, 0.0386250
14242.2, 0.0360920
14281.4, 0.0341220
14320.9, 0.0333480
14360.5, 0.0345440
14400.4, 0.0371480
14440.5, 0.0398210
14480.9, 0.0415800
14521.4, 0.0428460
14562.2, 0.0443940
14603.3, 0.0458720
14644.5, 0.0465050
14686.0, 0.0472790
14727.7, 0.0482640
14769.7, 0.0488270
14811.9, 0.0491780
14854.3, 0.0496710
14897.0, 0.0495300
14939.9, 0.0493890
14983.1, 0.0493190
15026.5, 0.0491080
15070.2, 0.0486860
15114.2, 0.0484750
15158.3, 0.0482640
15202.8, 0.0478420
15247.5, 0.0479820
15292.5, 0.0480530
15337.7, 0.0477010
15383.2, 0.0473490
15429.0, 0.0471380
15475.1, 0.0465750
15521.4, 0.0464340
15568.0, 0.0459420
15614.9, 0.0454490
15662.1, 0.0453090
15709.6, 0.0453790
15757.3, 0.0453090
15805.4, 0.0453090
15853.7, 0.0453790
15902.3, 0.0457310
15951.2, 0.0461530
16000.5, 0.0469270
16050.0, 0.0477010
16099.8, 0.0488970
16150.0, 0.0510080
16200.5, 0.0534700
16251.3, 0.0562140
16302.4, 0.0589580
16353.8, 0.0620530
16405.5, 0.0655010
16457.6, 0.0683150
16510.0, 0.0707070
16562.8, 0.0738030
16615.9, 0.0773910
16669.3, 0.0803460
16723.1, 0.0832300
16777.2, 0.0851300
16831.7, 0.0859040
16886.5, 0.0861150
16941.7, 0.0861850
16997.2, 0.0860440
17053.1, 0.0855520
17109.4, 0.0844970
17166.1, 0.0837230
17223.1, 0.0843560
17280.5, 0.0858330
17338.3, 0.0874520
17396.5, 0.0900550
17455.1, 0.0932910
17514.0, 0.0964570
17573.4, 0.0995530
17633.2, 0.102859
17693.4, 0.105251
17754.0, 0.107221
17815.0, 0.108417
17876.4, 0.110317
17938.3, 0.112920
18000.5, 0.115453
18063.3, 0.117704
18126.4, 0.119322
18190.0, 0.120519
18254.1, 0.121152
18318.6, 0.119534
18383.5, 0.117282
18449.0, 0.115383
18514.9, 0.113342
18581.2, 0.110739
18648.0, 0.107362
18715.4, 0.104126
18783.2, 0.100256
18851.5, 0.0961760
18920.3, 0.0925870
18989.6, 0.0897730
19059.4, 0.0878030
19129.7, 0.0855520
19200.6, 0.0829490
19272.0, 0.0815420
19343.9, 0.0811200
19416.3, 0.0824560
19489.3, 0.0856220
19562.8, 0.0909690
19637.0, 0.0987790
19711.6, 0.111161
19786.8, 0.122488
19862.6, 0.129876
19939.0, 0.136982
20016.0, 0.144650
20093.6, 0.151686
20171.8, 0.158229
20250.6, 0.163013
20330.0, 0.166320
20410.0, 0.168360
20490.7, 0.169486
20572.0, 0.169204
20654.0, 0.168360
20736.6, 0.166460
20819.9, 0.165476
20903.8, 0.163576
20988.5, 0.161606
21073.8, 0.159777
21159.8, 0.155978
21246.5, 0.153937
21334.0, 0.152600
21422.1, 0.150490
21511.0, 0.149153
21600.7, 0.146972
21691.0, 0.142821
21782.1, 0.140359
21874.0, 0.139233
21966.7, 0.137967
22060.2, 0.134308
22154.5, 0.130579
22249.6, 0.125795
22345.5, 0.117986
22442.2, 0.110528
22539.8, 0.104829
22638.2, 0.100608
22737.5, 0.0963870
22837.7, 0.0913910
22938.7, 0.0906880
23040.7, 0.0922360
23143.5, 0.0917430
23247.3, 0.0911100
23352.1, 0.0904770
23457.7, 0.0899140
23564.4, 0.0894920
23672.0, 0.0847080
23780.5, 0.0807680
23890.1, 0.0783050
24000.7, 0.0823860
24112.3, 0.0841450
24225.0, 0.0800640
24338.7, 0.0770390
24453.5, 0.0746470
24569.4, 0.0709880
24686.4, 0.0666260
24804.5, 0.0700030
