Database of Origin, USGS Spectral Database
Sample Description, See USGS database for additional info
Date Added,2016-08-03 20:52:15.001579

Data ID,USGS_all02          
Sample ID, allanite_hs293.3b.581
Mineral Name, allanite
Material Class,Sorosilicate

Wavelength
1592.67, 0.0624510
1593.16, 0.0625130
1593.65, 0.0625130
1594.14, 0.0622660
1594.63, 0.0623280
1595.12, 0.0622660
1595.61, 0.0622660
1596.11, 0.0622050
1596.6, 0.0623280
1597.09, 0.0622660
1597.58, 0.0621430
1598.08, 0.0623280
1598.57, 0.0628210
1599.06, 0.0630680
1599.55, 0.0629440
1600.05, 0.0626980
1600.54, 0.0625130
1601.04, 0.0626980
1601.53, 0.0630060
1602.03, 0.0629440
1602.52, 0.0629440
1603.02, 0.0630680
1603.51, 0.0630060
1604.01, 0.0629440
1604.5, 0.0630060
1605.0, 0.0629440
1605.5, 0.0631290
1606.0, 0.0631910
1606.49, 0.0629440
1606.99, 0.0628210
1607.49, 0.0628830
1607.99, 0.0628830
1608.49, 0.0631290
1608.99, 0.0634370
1609.49, 0.0633760
1609.99, 0.0630060
1610.49, 0.0627590
1610.99, 0.0629440
1611.49, 0.0631910
1611.99, 0.0631910
1612.49, 0.0633760
1612.99, 0.0634990
1613.49, 0.0631290
1614.0, 0.0630680
1614.5, 0.0633140
1615.0, 0.0633140
1615.51, 0.0633760
1616.01, 0.0634370
1616.51, 0.0634370
1617.02, 0.0633760
1617.52, 0.0634370
1618.03, 0.0634990
1618.53, 0.0636220
1619.04, 0.0635610
1619.54, 0.0636220
1620.05, 0.0636840
1620.55, 0.0634990
1621.06, 0.0632530
1621.57, 0.0633140
1622.08, 0.0634990
1622.58, 0.0634990
1623.09, 0.0636840
1623.6, 0.0638070
1624.11, 0.0636840
1624.62, 0.0635610
1625.13, 0.0637460
1625.64, 0.0638070
1626.15, 0.0637460
1626.66, 0.0637460
1627.17, 0.0638070
1627.68, 0.0639310
1628.19, 0.0638690
1628.7, 0.0639310
1629.21, 0.0641770
1629.72, 0.0640540
1630.24, 0.0638690
1630.75, 0.0638690
1631.26, 0.0641770
1631.78, 0.0643010
1632.29, 0.0639920
1632.8, 0.0640540
1633.32, 0.0641770
1633.83, 0.0641160
1634.35, 0.0641770
1634.86, 0.0642390
1635.38, 0.0641160
1635.9, 0.0641160
1636.41, 0.0641160
1636.93, 0.0641770
1637.45, 0.0641160
1637.96, 0.0642390
1638.48, 0.0641770
1639.0, 0.0640540
1639.52, 0.0639920
1640.04, 0.0644240
1640.56, 0.0644860
1641.08, 0.0644240
1641.59, 0.0644860
1642.11, 0.0646090
1642.63, 0.0645470
1643.16, 0.0646700
1643.68, 0.0646090
1644.2, 0.0643620
1644.72, 0.0644240
1645.24, 0.0644240
1645.76, 0.0644860
1646.29, 0.0645470
1646.81, 0.0646090
1647.33, 0.0645470
1647.86, 0.0643010
1648.38, 0.0642390
1648.9, 0.0645470
1649.43, 0.0645470
1649.95, 0.0643620
1650.48, 0.0643010
1651.0, 0.0641770
1651.53, 0.0643010
1652.06, 0.0644860
1652.58, 0.0646700
1653.11, 0.0647940
1653.64, 0.0650400
1654.17, 0.0649170
1654.69, 0.0645470
1655.22, 0.0644860
1655.75, 0.0647320
1656.28, 0.0648550
1656.81, 0.0648550
1657.34, 0.0647940
1657.87, 0.0647320
1658.4, 0.0644860
1658.93, 0.0644240
1659.46, 0.0643010
1659.99, 0.0643620
1660.52, 0.0647940
1661.05, 0.0649170
1661.59, 0.0648550
1662.12, 0.0647320
1662.65, 0.0646700
1663.19, 0.0648550
1663.72, 0.0647940
1664.26, 0.0646090
1664.79, 0.0647320
1665.32, 0.0649790
1665.86, 0.0649170
1666.39, 0.0648550
1666.93, 0.0648550
1667.47, 0.0651020
1668.0, 0.0651640
1668.54, 0.0650400
1669.08, 0.0651020
1669.61, 0.0651640
1670.15, 0.0652250
1670.69, 0.0653490
1671.23, 0.0652250
1671.77, 0.0651020
1672.31, 0.0651020
1672.85, 0.0652250
1673.39, 0.0652250
1673.93, 0.0649790
1674.47, 0.0649170
1675.01, 0.0652870
1675.55, 0.0652250
1676.09, 0.0649790
1676.64, 0.0651640
1677.18, 0.0652250
1677.72, 0.0651640
1678.26, 0.0651020
1678.81, 0.0651640
1679.35, 0.0654100
1679.89, 0.0653490
1680.44, 0.0651020
1680.98, 0.0651640
1681.53, 0.0652870
1682.07, 0.0654100
1682.62, 0.0655950
1683.17, 0.0655340
1683.71, 0.0652870
1684.26, 0.0653490
1684.81, 0.0652870
1685.36, 0.0655340
1685.9, 0.0655950
1686.45, 0.0654100
1687.0, 0.0654100
1687.55, 0.0652250
1688.1, 0.0652870
1688.65, 0.0652250
1689.2, 0.0652250
1689.75, 0.0653490
1690.3, 0.0654720
1690.85, 0.0657190
1691.41, 0.0659030
1691.96, 0.0659030
1692.51, 0.0656570
1693.06, 0.0655950
1693.61, 0.0655950
1694.17, 0.0657800
1694.72, 0.0658420
1695.28, 0.0657800
1695.83, 0.0657190
1696.39, 0.0657190
1696.94, 0.0658420
1697.5, 0.0658420
1698.05, 0.0658420
1698.61, 0.0660270
1699.17, 0.0659030
1699.72, 0.0660270
1700.28, 0.0661500
1700.84, 0.0659650
1701.4, 0.0658420
1701.95, 0.0657190
1702.51, 0.0658420
1703.07, 0.0660880
1703.63, 0.0659650
1704.19, 0.0661500
1704.75, 0.0662120
1705.31, 0.0659650
1705.88, 0.0657800
1706.44, 0.0659030
1707.0, 0.0662120
1707.56, 0.0663350
1708.12, 0.0662730
1708.69, 0.0660880
1709.25, 0.0660270
1709.81, 0.0660880
1710.38, 0.0661500
1710.94, 0.0662730
1711.51, 0.0663350
1712.07, 0.0662120
1712.64, 0.0662120
1713.2, 0.0662120
1713.77, 0.0661500
1714.34, 0.0662730
1714.9, 0.0665820
1715.47, 0.0664580
1716.04, 0.0662730
1716.61, 0.0662730
1717.18, 0.0660880
1717.74, 0.0660880
1718.31, 0.0662120
1718.88, 0.0663350
1719.45, 0.0662730
1720.02, 0.0661500
1720.59, 0.0661500
1721.17, 0.0663970
1721.74, 0.0665820
1722.31, 0.0664580
1722.88, 0.0664580
1723.45, 0.0663970
1724.03, 0.0663970
1724.6, 0.0666430
1725.18, 0.0666430
1725.75, 0.0665200
1726.33, 0.0665200
1726.9, 0.0665200
1727.48, 0.0665200
1728.05, 0.0665820
1728.63, 0.0667050
1729.2, 0.0666430
1729.78, 0.0667050
1730.36, 0.0668900
1730.94, 0.0667050
1731.51, 0.0663970
1732.09, 0.0663970
1732.67, 0.0663970
1733.25, 0.0664580
1733.83, 0.0665820
1734.41, 0.0666430
1734.99, 0.0665820
1735.57, 0.0668280
1736.15, 0.0669520
1736.73, 0.0668900
1737.32, 0.0668280
1737.9, 0.0665820
1738.48, 0.0664580
1739.07, 0.0665820
1739.65, 0.0668280
1740.23, 0.0669520
1740.82, 0.0669520
1741.4, 0.0668900
1741.99, 0.0668280
1742.57, 0.0667670
1743.16, 0.0667050
1743.74, 0.0666430
1744.33, 0.0666430
1744.92, 0.0665820
1745.51, 0.0665200
1746.09, 0.0667050
1746.68, 0.0670130
1747.27, 0.0671980
1747.86, 0.0671360
1748.45, 0.0669520
1749.04, 0.0670130
1749.63, 0.0669520
1750.22, 0.0668280
1750.81, 0.0666430
1751.4, 0.0667050
1751.99, 0.0668900
1752.59, 0.0667670
1753.18, 0.0668280
1753.77, 0.0670130
1754.37, 0.0671360
1754.96, 0.0670750
1755.56, 0.0669520
1756.15, 0.0670130
1756.74, 0.0670750
1757.34, 0.0671360
1757.94, 0.0671980
1758.53, 0.0671360
1759.13, 0.0668900
1759.73, 0.0668900
1760.32, 0.0670750
1760.92, 0.0670130
1761.52, 0.0672600
1762.12, 0.0675060
1762.72, 0.0673830
1763.32, 0.0671360
1763.92, 0.0671360
1764.52, 0.0672600
1765.12, 0.0673210
1765.72, 0.0671980
1766.32, 0.0671980
1766.92, 0.0672600
1767.53, 0.0671980
1768.13, 0.0671980
1768.73, 0.0671980
1769.34, 0.0673210
1769.94, 0.0674450
1770.55, 0.0673830
1771.15, 0.0674450
1771.76, 0.0675680
1772.36, 0.0675680
1772.97, 0.0676300
1773.57, 0.0675680
1774.18, 0.0673830
1774.79, 0.0676300
1775.4, 0.0676910
1776.0, 0.0674450
1776.61, 0.0675060
1777.22, 0.0678150
1777.83, 0.0677530
1778.44, 0.0673830
1779.05, 0.0673210
1779.66, 0.0675680
1780.27, 0.0675060
1780.88, 0.0674450
1781.5, 0.0675680
1782.11, 0.0676300
1782.72, 0.0678150
1783.33, 0.0679380
1783.95, 0.0678760
1784.56, 0.0677530
1785.18, 0.0678150
1785.79, 0.0678760
1786.41, 0.0678150
1787.02, 0.0677530
1787.64, 0.0678760
1788.26, 0.0678760
1788.87, 0.0677530
1789.49, 0.0677530
1790.11, 0.0677530
1790.73, 0.0677530
1791.35, 0.0678150
1791.96, 0.0678150
1792.58, 0.0679380
1793.21, 0.0681850
1793.83, 0.0681850
1794.45, 0.0681850
1795.07, 0.0680000
1795.69, 0.0678760
1796.31, 0.0678760
1796.93, 0.0678760
1797.56, 0.0678760
1798.18, 0.0677530
1798.8, 0.0677530
1799.43, 0.0678150
1800.05, 0.0679380
1800.68, 0.0680000
1801.3, 0.0681230
1801.93, 0.0682460
1802.56, 0.0684310
1803.18, 0.0683080
1803.81, 0.0681850
1804.44, 0.0683080
1805.07, 0.0683690
1805.7, 0.0681850
1806.33, 0.0682460
1806.95, 0.0683690
1807.58, 0.0681850
1808.22, 0.0681230
1808.85, 0.0681850
1809.48, 0.0681230
1810.11, 0.0680610
1810.74, 0.0681230
1811.38, 0.0681230
1812.01, 0.0681850
1812.64, 0.0684310
1813.28, 0.0683690
1813.91, 0.0681850
1814.55, 0.0680610
1815.18, 0.0682460
1815.82, 0.0684930
1816.45, 0.0683690
1817.09, 0.0681230
1817.73, 0.0682460
1818.36, 0.0682460
1819.0, 0.0680000
1819.64, 0.0681850
1820.28, 0.0684930
1820.92, 0.0683690
1821.56, 0.0680610
1822.2, 0.0682460
1822.84, 0.0684310
1823.48, 0.0684310
1824.12, 0.0683690
1824.76, 0.0685540
1825.41, 0.0688010
1826.05, 0.0686780
1826.69, 0.0684930
1827.34, 0.0684310
1827.98, 0.0684310
1828.63, 0.0684930
1829.27, 0.0685540
1829.92, 0.0684930
1830.56, 0.0684310
1831.21, 0.0684310
1831.86, 0.0686160
1832.5, 0.0686780
1833.15, 0.0683080
1833.8, 0.0682460
1834.45, 0.0684930
1835.1, 0.0688010
1835.75, 0.0689240
1836.4, 0.0687390
1837.05, 0.0686160
1837.7, 0.0688010
1838.35, 0.0686780
1839.01, 0.0686160
1839.66, 0.0686780
1840.31, 0.0688630
1840.96, 0.0688630
1841.62, 0.0686780
1842.27, 0.0686780
1842.93, 0.0687390
1843.58, 0.0689240
1844.24, 0.0689240
1844.9, 0.0687390
1845.55, 0.0688630
1846.21, 0.0691090
1846.87, 0.0692330
1847.53, 0.0692940
1848.18, 0.0690480
1848.84, 0.0688630
1849.5, 0.0688010
1850.16, 0.0687390
1850.82, 0.0686780
1851.48, 0.0688630
1852.14, 0.0689860
1852.81, 0.0691090
1853.47, 0.0691090
1854.13, 0.0690480
1854.8, 0.0691710
1855.46, 0.0693560
1856.12, 0.0694180
1856.79, 0.0692940
1857.45, 0.0692330
1858.12, 0.0692940
1858.79, 0.0692330
1859.45, 0.0694180
1860.12, 0.0696020
1860.79, 0.0694180
1861.46, 0.0691710
1862.12, 0.0692330
1862.79, 0.0692330
1863.46, 0.0694180
1864.13, 0.0696640
1864.8, 0.0696020
1865.48, 0.0695410
1866.15, 0.0694790
1866.82, 0.0694790
1867.49, 0.0697260
1868.16, 0.0697260
1868.84, 0.0696640
1869.51, 0.0696020
1870.19, 0.0697870
1870.86, 0.0698490
1871.54, 0.0697260
1872.21, 0.0696640
1872.89, 0.0697260
1873.56, 0.0696640
1874.24, 0.0695410
1874.92, 0.0695410
1875.6, 0.0695410
1876.28, 0.0696020
1876.96, 0.0694790
1877.64, 0.0694180
1878.32, 0.0694790
1879.0, 0.0693560
1879.68, 0.0694790
1880.36, 0.0696020
1881.04, 0.0696640
1881.73, 0.0697260
1882.41, 0.0697870
1883.09, 0.0697260
1883.78, 0.0697870
1884.46, 0.0696640
1885.15, 0.0695410
1885.83, 0.0696020
1886.52, 0.0697870
1887.21, 0.0699110
1887.89, 0.0698490
1888.58, 0.0696020
1889.27, 0.0694790
1889.96, 0.0698490
1890.65, 0.0700960
1891.34, 0.0702190
1892.03, 0.0700960
1892.72, 0.0697260
1893.41, 0.0696640
1894.1, 0.0697260
1894.79, 0.0697260
1895.49, 0.0698490
1896.18, 0.0700960
1896.87, 0.0700960
1897.57, 0.0698490
1898.26, 0.0697260
1898.96, 0.0699720
1899.65, 0.0700340
1900.35, 0.0699720
1901.05, 0.0699720
1901.74, 0.0700960
1902.44, 0.0702190
1903.14, 0.0699720
1903.84, 0.0696640
1904.54, 0.0698490
1905.24, 0.0702810
1905.94, 0.0701570
1906.64, 0.0700960
1907.34, 0.0701570
1908.04, 0.0700340
1908.75, 0.0702190
1909.45, 0.0702810
1910.15, 0.0700960
1910.86, 0.0699720
1911.56, 0.0700960
1912.27, 0.0701570
1912.97, 0.0699720
1913.68, 0.0700340
1914.39, 0.0702190
1915.09, 0.0702190
1915.8, 0.0703420
1916.51, 0.0705270
1917.22, 0.0705890
1917.93, 0.0702810
1918.64, 0.0700340
1919.35, 0.0702190
1920.06, 0.0705270
1920.77, 0.0706510
1921.48, 0.0705890
1922.19, 0.0705270
1922.91, 0.0705890
1923.62, 0.0706510
1924.33, 0.0705890
1925.05, 0.0705270
1925.76, 0.0705270
1926.48, 0.0707120
1927.19, 0.0706510
1927.91, 0.0705890
1928.63, 0.0704660
1929.35, 0.0705270
1930.07, 0.0705270
1930.78, 0.0706510
1931.5, 0.0705270
1932.22, 0.0705890
1932.94, 0.0708350
1933.66, 0.0708350
1934.39, 0.0706510
1935.11, 0.0706510
1935.83, 0.0708970
1936.55, 0.0708350
1937.28, 0.0706510
1938.0, 0.0708970
1938.73, 0.0710200
1939.45, 0.0710200
1940.18, 0.0708970
1940.9, 0.0708350
1941.63, 0.0708970
1942.36, 0.0710820
1943.09, 0.0710200
1943.81, 0.0711440
1944.54, 0.0712670
1945.27, 0.0712050
1946.0, 0.0713290
1946.73, 0.0713290
1947.47, 0.0712050
1948.2, 0.0712050
1948.93, 0.0713290
1949.66, 0.0712050
1950.4, 0.0711440
1951.13, 0.0713900
1951.86, 0.0715750
1952.6, 0.0717600
1953.34, 0.0715750
1954.07, 0.0713290
1954.81, 0.0714520
1955.55, 0.0716370
1956.29, 0.0718220
1957.02, 0.0718220
1957.76, 0.0716990
1958.5, 0.0717600
1959.24, 0.0717600
1959.98, 0.0719450
1960.72, 0.0719450
1961.47, 0.0720070
1962.21, 0.0720070
1962.95, 0.0719450
1963.7, 0.0718220
1964.44, 0.0718220
1965.18, 0.0716990
1965.93, 0.0716990
1966.67, 0.0716990
1967.42, 0.0717600
1968.17, 0.0718830
1968.92, 0.0719450
1969.66, 0.0720680
1970.41, 0.0720680
1971.16, 0.0718830
1971.91, 0.0718220
1972.66, 0.0719450
1973.41, 0.0720070
1974.16, 0.0721920
1974.92, 0.0722530
1975.67, 0.0722530
1976.42, 0.0723150
1977.18, 0.0722530
1977.93, 0.0721300
1978.69, 0.0721300
1979.44, 0.0722530
1980.2, 0.0724380
1980.95, 0.0723770
1981.71, 0.0723770
1982.47, 0.0724380
1983.23, 0.0723770
1983.99, 0.0723770
1984.74, 0.0724380
1985.51, 0.0725000
1986.27, 0.0725000
1987.03, 0.0725000
1987.79, 0.0725620
1988.55, 0.0726850
1989.32, 0.0727470
1990.08, 0.0726230
1990.84, 0.0725000
1991.61, 0.0726850
1992.37, 0.0729930
1993.14, 0.0729930
1993.9, 0.0729320
1994.67, 0.0728700
1995.44, 0.0729320
1996.21, 0.0731160
1996.98, 0.0729930
1997.75, 0.0729320
1998.52, 0.0731160
1999.29, 0.0731160
2000.06, 0.0730550
2000.83, 0.0730550
2001.6, 0.0731780
2002.38, 0.0731160
2003.15, 0.0730550
2003.93, 0.0729320
2004.7, 0.0729930
2005.48, 0.0730550
2006.25, 0.0731780
2007.03, 0.0733010
2007.81, 0.0733010
2008.58, 0.0734860
2009.36, 0.0734860
2010.14, 0.0732400
2010.92, 0.0731780
2011.7, 0.0733010
2012.48, 0.0734860
2013.26, 0.0736100
2014.05, 0.0736100
2014.83, 0.0736100
2015.61, 0.0735480
2016.4, 0.0736100
2017.18, 0.0737950
2017.97, 0.0739800
2018.75, 0.0738560
2019.54, 0.0738560
2020.32, 0.0741030
2021.11, 0.0741030
2021.9, 0.0739800
2022.69, 0.0739800
2023.48, 0.0741030
2024.27, 0.0741030
2025.06, 0.0741030
2025.85, 0.0740410
2026.64, 0.0741030
2027.44, 0.0742880
2028.23, 0.0742880
2029.02, 0.0742260
2029.82, 0.0744110
2030.61, 0.0746580
2031.41, 0.0745960
2032.2, 0.0743490
2033.0, 0.0741650
2033.8, 0.0743490
2034.6, 0.0746580
2035.4, 0.0745340
2036.2, 0.0745340
2037.0, 0.0747190
2037.8, 0.0749040
2038.6, 0.0749660
2039.4, 0.0749040
2040.2, 0.0750890
2041.01, 0.0751510
2041.81, 0.0749660
2042.61, 0.0748430
2043.42, 0.0750280
2044.22, 0.0749660
2045.03, 0.0748430
2045.84, 0.0750890
2046.65, 0.0753360
2047.46, 0.0753360
2048.26, 0.0753360
2049.07, 0.0752130
2049.88, 0.0752130
2050.69, 0.0753360
2051.51, 0.0756440
2052.32, 0.0757060
2053.13, 0.0756440
2053.94, 0.0756440
2054.76, 0.0755820
2055.57, 0.0755210
2056.39, 0.0755820
2057.2, 0.0757060
2058.02, 0.0756440
2058.84, 0.0756440
2059.66, 0.0757060
2060.48, 0.0757670
2061.29, 0.0758910
2062.11, 0.0757670
2062.94, 0.0757670
2063.76, 0.0758290
2064.58, 0.0758910
2065.4, 0.0761370
2066.22, 0.0759520
2067.05, 0.0758290
2067.87, 0.0760140
2068.7, 0.0761370
2069.52, 0.0760760
2070.35, 0.0763220
2071.18, 0.0763840
2072.0, 0.0763840
2072.83, 0.0765070
2073.66, 0.0765070
2074.49, 0.0764460
2075.32, 0.0764460
2076.15, 0.0763840
2076.98, 0.0764460
2077.82, 0.0766310
2078.65, 0.0766920
2079.48, 0.0766310
2080.32, 0.0766310
2081.15, 0.0765070
2081.99, 0.0765070
2082.83, 0.0766310
2083.66, 0.0768770
2084.5, 0.0768770
2085.34, 0.0768770
2086.18, 0.0768150
2087.02, 0.0767540
2087.86, 0.0767540
2088.7, 0.0768770
2089.54, 0.0768770
2090.39, 0.0767540
2091.23, 0.0768150
2092.07, 0.0768770
2092.92, 0.0770000
2093.76, 0.0771240
2094.61, 0.0772470
2095.45, 0.0771850
2096.3, 0.0770620
2097.15, 0.0771850
2098.0, 0.0774320
2098.85, 0.0773090
2099.7, 0.0771240
2100.55, 0.0771850
2101.4, 0.0773090
2102.25, 0.0775550
2103.1, 0.0777400
2103.96, 0.0777400
2104.81, 0.0776170
2105.67, 0.0776170
2106.52, 0.0775550
2107.38, 0.0776170
2108.24, 0.0778640
2109.09, 0.0778640
2109.95, 0.0778640
2110.81, 0.0778020
2111.67, 0.0778020
2112.53, 0.0779250
2113.39, 0.0779870
2114.25, 0.0779870
2115.12, 0.0782330
2115.98, 0.0781720
2116.84, 0.0781100
2117.71, 0.0781100
2118.58, 0.0780480
2119.44, 0.0780480
2120.31, 0.0781720
2121.18, 0.0781720
2122.04, 0.0782950
2122.91, 0.0784180
2123.78, 0.0783570
2124.65, 0.0783570
2125.52, 0.0784180
2126.4, 0.0786030
2127.27, 0.0786030
2128.14, 0.0784180
2129.02, 0.0784800
2129.89, 0.0787880
2130.77, 0.0789120
2131.64, 0.0789730
2132.52, 0.0787880
2133.4, 0.0786650
2134.27, 0.0786650
2135.15, 0.0787270
2136.03, 0.0787270
2136.91, 0.0789120
2137.79, 0.0789730
2138.68, 0.0789730
2139.56, 0.0788500
2140.44, 0.0787880
2141.33, 0.0788500
2142.21, 0.0790970
2143.1, 0.0791580
2143.99, 0.0791580
2144.87, 0.0792200
2145.76, 0.0792810
2146.65, 0.0794050
2147.54, 0.0794660
2148.43, 0.0792810
2149.32, 0.0794660
2150.21, 0.0796510
2151.1, 0.0794660
2151.99, 0.0794050
2152.89, 0.0795280
2153.78, 0.0797130
2154.68, 0.0799600
2155.57, 0.0798980
2156.47, 0.0797750
2157.37, 0.0797130
2158.27, 0.0797130
2159.16, 0.0798360
2160.06, 0.0798980
2160.96, 0.0799600
2161.86, 0.0799600
2162.77, 0.0798360
2163.67, 0.0796510
2164.57, 0.0798980
2165.48, 0.0800830
2166.38, 0.0800210
2167.29, 0.0798980
2168.2, 0.0798360
2169.1, 0.0799600
2170.01, 0.0800210
2170.92, 0.0802680
2171.83, 0.0803910
2172.74, 0.0803300
2173.65, 0.0802060
2174.56, 0.0801450
2175.47, 0.0799600
2176.39, 0.0799600
2177.3, 0.0800830
2178.22, 0.0802680
2179.13, 0.0803910
2180.05, 0.0805140
2180.96, 0.0805140
2181.88, 0.0804530
2182.8, 0.0803910
2183.72, 0.0802680
2184.64, 0.0803300
2185.56, 0.0803910
2186.48, 0.0803910
2187.41, 0.0803300
2188.33, 0.0802680
2189.25, 0.0804530
2190.18, 0.0805760
2191.1, 0.0805140
2192.03, 0.0804530
2192.96, 0.0804530
2193.89, 0.0807610
2194.82, 0.0806380
2195.74, 0.0803300
2196.68, 0.0803300
2197.61, 0.0802060
2198.54, 0.0802680
2199.47, 0.0801450
2200.4, 0.0802680
2201.34, 0.0805760
2202.28, 0.0803300
2203.21, 0.0799600
2204.15, 0.0801450
2205.08, 0.0803300
2206.02, 0.0804530
2206.96, 0.0805140
2207.9, 0.0801450
2208.84, 0.0800830
2209.78, 0.0802060
2210.73, 0.0798360
2211.67, 0.0797130
2212.61, 0.0800830
2213.56, 0.0803300
2214.5, 0.0801450
2215.45, 0.0798980
2216.4, 0.0795900
2217.35, 0.0798360
2218.3, 0.0802680
2219.24, 0.0799600
2220.2, 0.0795900
2221.15, 0.0798980
2222.1, 0.0802680
2223.05, 0.0805140
2224.0, 0.0805760
2224.96, 0.0802060
2225.91, 0.0796510
2226.87, 0.0794050
2227.83, 0.0796510
2228.79, 0.0797750
2229.74, 0.0795280
2230.7, 0.0798360
2231.66, 0.0799600
2232.63, 0.0792810
2233.59, 0.0790350
2234.55, 0.0793430
2235.51, 0.0794660
2236.48, 0.0794660
2237.44, 0.0794660
2238.41, 0.0794660
2239.38, 0.0795900
2240.34, 0.0794050
2241.31, 0.0790970
2242.28, 0.0789120
2243.25, 0.0788500
2244.22, 0.0790350
2245.19, 0.0790970
2246.17, 0.0790350
2247.14, 0.0788500
2248.12, 0.0790970
2249.09, 0.0787270
2250.07, 0.0781100
2251.04, 0.0783570
2252.02, 0.0789120
2253.0, 0.0787270
2253.98, 0.0783570
2254.96, 0.0781720
2255.94, 0.0785420
2256.92, 0.0787880
2257.91, 0.0789120
2258.89, 0.0790970
2259.88, 0.0787270
2260.86, 0.0786030
2261.85, 0.0787880
2262.83, 0.0787270
2263.82, 0.0787270
2264.81, 0.0785420
2265.8, 0.0787270
2266.79, 0.0787270
2267.78, 0.0787270
2268.78, 0.0788500
2269.77, 0.0789730
2270.76, 0.0790350
2271.76, 0.0789120
2272.75, 0.0785420
2273.75, 0.0787880
2274.75, 0.0789730
2275.75, 0.0790350
2276.75, 0.0785420
2277.75, 0.0786030
2278.75, 0.0790350
2279.75, 0.0790350
2280.75, 0.0795900
2281.76, 0.0791580
2282.76, 0.0782950
2283.77, 0.0785420
2284.77, 0.0786650
2285.78, 0.0787270
2286.79, 0.0788500
2287.8, 0.0788500
2288.81, 0.0788500
2289.82, 0.0790350
2290.83, 0.0790350
2291.84, 0.0790970
2292.86, 0.0788500
2293.87, 0.0788500
2294.89, 0.0788500
2295.91, 0.0789120
2296.92, 0.0792810
2297.94, 0.0794660
2298.96, 0.0793430
2299.98, 0.0790350
2301.0, 0.0790350
2302.02, 0.0790350
2303.04, 0.0787880
2304.07, 0.0786650
2305.09, 0.0787270
2306.12, 0.0787270
2307.15, 0.0785420
2308.17, 0.0787880
2309.2, 0.0788500
2310.23, 0.0787270
2311.26, 0.0786650
2312.29, 0.0785420
2313.32, 0.0786030
2314.35, 0.0786650
2315.39, 0.0786650
2316.42, 0.0785420
2317.46, 0.0781720
2318.5, 0.0779870
2319.53, 0.0782330
2320.57, 0.0782330
2321.61, 0.0779870
2322.65, 0.0784180
2323.69, 0.0786030
2324.73, 0.0781720
2325.78, 0.0778640
2326.82, 0.0779250
2327.86, 0.0777400
2328.91, 0.0778640
2329.96, 0.0778640
2331.01, 0.0776790
2332.05, 0.0777400
2333.1, 0.0775550
2334.15, 0.0773090
2335.21, 0.0773700
2336.26, 0.0774940
2337.31, 0.0774320
2338.36, 0.0771850
2339.42, 0.0770000
2340.48, 0.0769390
2341.53, 0.0774940
2342.59, 0.0780480
2343.65, 0.0779870
2344.71, 0.0776170
2345.77, 0.0773700
2346.83, 0.0771850
2347.9, 0.0770620
2348.96, 0.0768770
2350.02, 0.0769390
2351.09, 0.0771240
2352.16, 0.0771240
2353.23, 0.0768770
2354.29, 0.0768770
2355.36, 0.0768770
2356.43, 0.0770620
2357.51, 0.0770620
2358.58, 0.0768770
2359.65, 0.0768150
2360.73, 0.0770620
2361.8, 0.0770620
2362.88, 0.0770620
2363.96, 0.0771240
2365.03, 0.0772470
2366.11, 0.0772470
2367.19, 0.0772470
2368.27, 0.0771850
2369.36, 0.0771240
2370.44, 0.0772470
2371.53, 0.0774940
2372.61, 0.0776170
2373.7, 0.0774320
2374.78, 0.0771240
2375.87, 0.0776170
2376.96, 0.0776170
2378.05, 0.0774320
2379.14, 0.0776790
2380.24, 0.0779250
2381.33, 0.0778640
2382.42, 0.0775550
2383.52, 0.0773700
2384.61, 0.0774320
2385.71, 0.0776790
2386.81, 0.0782330
2387.91, 0.0782950
2389.01, 0.0779870
2390.11, 0.0779870
2391.22, 0.0782330
2392.32, 0.0782330
2393.42, 0.0783570
2394.53, 0.0783570
2395.64, 0.0784800
2396.74, 0.0784800
2397.85, 0.0779870
2398.96, 0.0779250
2400.07, 0.0779870
2401.18, 0.0779870
2402.3, 0.0781720
2403.41, 0.0785420
2404.52, 0.0787270
2405.64, 0.0787880
2406.76, 0.0786650
2407.88, 0.0782330
2408.99, 0.0779250
2410.11, 0.0778640
2411.23, 0.0779870
2412.36, 0.0780480
2413.48, 0.0779870
2414.6, 0.0783570
2415.73, 0.0787880
2416.85, 0.0787270
2417.98, 0.0785420
2419.11, 0.0789730
2420.24, 0.0790350
2421.37, 0.0786650
2422.5, 0.0786030
2423.64, 0.0786650
2424.77, 0.0787270
2425.9, 0.0787270
2427.04, 0.0791580
2428.18, 0.0792200
2429.31, 0.0787270
2430.45, 0.0785420
2431.59, 0.0789120
2432.73, 0.0792200
2433.88, 0.0790350
2435.02, 0.0787270
2436.16, 0.0785420
2437.31, 0.0786030
2438.45, 0.0788500
2439.6, 0.0790970
2440.75, 0.0792200
2441.9, 0.0790350
2443.05, 0.0787880
2444.2, 0.0789730
2445.35, 0.0792810
2446.51, 0.0795900
2447.67, 0.0794050
2448.82, 0.0790350
2449.98, 0.0793430
2451.14, 0.0795900
2452.3, 0.0795280
2453.46, 0.0794660
2454.62, 0.0790970
2455.78, 0.0787880
2456.94, 0.0790350
2458.11, 0.0794050
2459.28, 0.0796510
2460.44, 0.0797130
2461.61, 0.0793430
2462.78, 0.0790970
2463.95, 0.0792200
2465.12, 0.0792810
2466.3, 0.0792810
2467.47, 0.0792810
2468.65, 0.0792810
2469.82, 0.0794050
2471.0, 0.0794660
2472.18, 0.0795900
2473.36, 0.0798980
2474.54, 0.0798360
2475.72, 0.0796510
2476.9, 0.0796510
2478.08, 0.0795900
2479.27, 0.0796510
2480.46, 0.0795280
2481.64, 0.0794660
2482.83, 0.0794050
2484.02, 0.0795280
2485.21, 0.0795900
2486.4, 0.0794050
2487.6, 0.0792200
2488.79, 0.0793430
2489.99, 0.0794660
2491.18, 0.0792810
2492.38, 0.0792810
2493.58, 0.0790970
2494.78, 0.0792200
2495.98, 0.0794660
2497.18, 0.0794660
2498.39, 0.0793430
2499.59, 0.0792200
2500.8, 0.0788500
2502.01, 0.0791580
2503.21, 0.0794660
2504.42, 0.0792810
2505.63, 0.0792200
2506.84, 0.0792810
2508.06, 0.0791580
2509.27, 0.0790970
2510.49, 0.0789120
2511.7, 0.0786650
2512.92, 0.0788500
2514.14, 0.0788500
2515.36, 0.0787880
2516.58, 0.0787270
2517.8, 0.0788500
2519.03, 0.0790350
2520.25, 0.0790350
2521.48, 0.0787880
2522.7, 0.0789730
2523.93, 0.0792810
2525.16, 0.0789730
2526.39, 0.0785420
2527.62, 0.0784180
2528.86, 0.0785420
2530.09, 0.0789120
2531.33, 0.0792200
2532.56, 0.0792200
2533.8, 0.0787270
2535.04, 0.0786650
2536.28, 0.0790970
2537.52, 0.0787880
2538.76, 0.0784800
2540.01, 0.0786650
2541.25, 0.0789730
2542.5, 0.0789730
2543.75, 0.0785420
2544.99, 0.0782950
2546.24, 0.0783570
2547.49, 0.0787880
2548.75, 0.0786650
2550.0, 0.0788500
2551.26, 0.0792810
2552.51, 0.0789120
2553.77, 0.0786030
2555.03, 0.0785420
2556.29, 0.0781100
2557.55, 0.0779250
2558.81, 0.0784800
2560.08, 0.0795280
2561.34, 0.0802060
2562.61, 0.0800210
2563.88, 0.0796510
2565.14, 0.0787270
2566.41, 0.0783570
2567.68, 0.0786650
2568.96, 0.0790350
2570.23, 0.0785420
2571.51, 0.0783570
2572.78, 0.0794050
2574.06, 0.0794050
2575.34, 0.0790350
2576.62, 0.0792200
2577.9, 0.0784800
2579.18, 0.0781720
2580.47, 0.0786650
2581.75, 0.0784800
2583.04, 0.0790350
2584.32, 0.0793430
2585.61, 0.0786030
2586.9, 0.0787880
2588.2, 0.0786650
2589.49, 0.0782950
2590.78, 0.0776170
2592.08, 0.0776170
2593.37, 0.0799600
2594.67, 0.0826110
2595.97, 0.0805140
2597.27, 0.0781100
2598.57, 0.0772470
2599.88, 0.0773090
2601.18, 0.0776790
2602.49, 0.0778640
2603.79, 0.0784180
2605.1, 0.0792810
2606.41, 0.0787270
2607.72, 0.0778640
2609.03, 0.0774940
2610.35, 0.0770620
2611.66, 0.0766920
2612.98, 0.0767540
2614.3, 0.0765690
2615.62, 0.0776170
2616.94, 0.0782950
2618.26, 0.0771850
2619.58, 0.0778020
2620.91, 0.0777400
2622.23, 0.0761990
2623.56, 0.0757060
2624.89, 0.0761370
2626.22, 0.0773090
2627.55, 0.0765070
2628.88, 0.0765070
2630.21, 0.0778020
2631.55, 0.0767540
2632.89, 0.0759520
2634.22, 0.0758910
2635.56, 0.0752740
2636.9, 0.0752130
2638.25, 0.0749040
2639.59, 0.0747190
2640.93, 0.0747190
2642.28, 0.0744110
2643.63, 0.0742260
2644.98, 0.0748430
2646.33, 0.0747810
2647.68, 0.0742260
2649.03, 0.0736710
2650.39, 0.0738560
2651.74, 0.0744730
2653.1, 0.0744730
2654.46, 0.0739800
2655.82, 0.0736710
2657.18, 0.0731160
2658.54, 0.0734860
2659.9, 0.0736100
2661.27, 0.0734250
2662.64, 0.0732400
2664.01, 0.0745340
2665.38, 0.0758910
2666.74, 0.0754590
2668.12, 0.0738560
2669.49, 0.0749660
2670.87, 0.0747190
2672.24, 0.0721300
2673.62, 0.0713900
2675.0, 0.0716990
2676.38, 0.0723150
2677.76, 0.0720070
2679.15, 0.0713290
2680.54, 0.0699110
2681.92, 0.0694180
2683.31, 0.0692940
2684.7, 0.0686780
2686.09, 0.0682460
2687.48, 0.0678150
2688.88, 0.0672600
2690.27, 0.0665200
2691.67, 0.0660880
2693.07, 0.0667050
2694.47, 0.0662730
2695.87, 0.0647940
2697.27, 0.0632530
2698.67, 0.0619580
2700.08, 0.0612800
2701.49, 0.0607250
2702.9, 0.0594300
2704.31, 0.0581970
2705.72, 0.0570880
2707.13, 0.0565940
2708.54, 0.0565330
2709.96, 0.0561630
2711.38, 0.0549300
2712.8, 0.0528340
2714.22, 0.0515390
2715.64, 0.0506140
2717.06, 0.0499980
2718.49, 0.0497510
2719.91, 0.0501210
2721.34, 0.0488270
2722.77, 0.0475940
2724.2, 0.0472850
2725.63, 0.0458060
2727.07, 0.0442030
2728.5, 0.0433400
2729.94, 0.0427230
2731.38, 0.0420450
2732.82, 0.0414900
2734.26, 0.0413670
2735.7, 0.0405040
2737.15, 0.0399490
2738.59, 0.0402570
2740.04, 0.0400720
2741.49, 0.0391480
2742.94, 0.0379150
2744.39, 0.0371130
2745.84, 0.0364970
2747.3, 0.0360650
2748.76, 0.0356340
2750.21, 0.0352020
2751.67, 0.0347700
2753.14, 0.0345240
2754.6, 0.0351400
2756.06, 0.0347090
2757.53, 0.0333520
2759.0, 0.0327980
2760.46, 0.0327980
2761.94, 0.0328590
2763.41, 0.0324890
2764.88, 0.0321190
2766.36, 0.0321810
2767.83, 0.0319350
2769.31, 0.0315030
2770.79, 0.0315650
2772.27, 0.0313800
2773.76, 0.0309480
2775.24, 0.0304550
2776.73, 0.0301470
2778.22, 0.0301470
2779.71, 0.0302080
2781.2, 0.0300230
2782.69, 0.0298380
2784.18, 0.0296530
2785.68, 0.0297150
2787.18, 0.0297770
2788.68, 0.0294070
2790.18, 0.0290990
2791.68, 0.0290370
2793.19, 0.0290370
2794.69, 0.0289140
2796.2, 0.0286050
2797.71, 0.0284200
2799.22, 0.0284200
2800.73, 0.0285440
2802.24, 0.0289140
2803.76, 0.0288520
2805.28, 0.0285440
2806.8, 0.0284200
2808.32, 0.0282970
2809.84, 0.0281120
2811.36, 0.0279890
2812.89, 0.0279890
2814.42, 0.0279890
2815.94, 0.0279270
2817.48, 0.0280510
2819.01, 0.0284200
2820.54, 0.0282970
2822.08, 0.0278660
2823.61, 0.0276810
2825.15, 0.0278040
2826.69, 0.0278040
2828.23, 0.0277420
2829.78, 0.0276190
2831.32, 0.0276190
2832.87, 0.0276810
2834.42, 0.0276810
2835.97, 0.0276810
2837.52, 0.0274960
2839.08, 0.0273110
2840.63, 0.0274340
2842.19, 0.0276190
2843.75, 0.0273720
2845.31, 0.0274340
2846.87, 0.0274340
2848.44, 0.0273110
2850.0, 0.0273720
2851.57, 0.0274960
2853.14, 0.0274340
2854.71, 0.0273720
2856.28, 0.0274340
2857.86, 0.0273110
2859.43, 0.0271260
2861.01, 0.0271260
2862.59, 0.0271260
2864.17, 0.0271260
2865.76, 0.0271260
2867.34, 0.0270030
2868.93, 0.0269410
2870.52, 0.0270640
2872.11, 0.0270030
2873.7, 0.0270030
2875.29, 0.0270640
2876.89, 0.0268790
2878.49, 0.0266940
2880.08, 0.0266940
2881.69, 0.0268790
2883.29, 0.0270030
2884.89, 0.0271870
2886.5, 0.0270030
2888.11, 0.0266330
2889.72, 0.0266330
2891.33, 0.0267560
2892.94, 0.0266330
2894.56, 0.0266330
2896.17, 0.0266940
2897.79, 0.0266940
2899.42, 0.0268790
2901.04, 0.0270640
2902.66, 0.0270030
2904.29, 0.0268790
2905.92, 0.0268790
2907.55, 0.0267560
2909.18, 0.0267560
2910.81, 0.0267560
2912.45, 0.0265710
2914.08, 0.0265710
2915.72, 0.0266330
2917.36, 0.0267560
2919.01, 0.0268790
2920.65, 0.0268790
2922.3, 0.0268180
2923.94, 0.0267560
2925.59, 0.0266940
2927.25, 0.0266330
2928.9, 0.0264480
2930.56, 0.0265090
2932.21, 0.0268790
2933.87, 0.0269410
2935.53, 0.0267560
2937.2, 0.0266940
2938.86, 0.0266940
2940.53, 0.0267560
2942.2, 0.0268180
2943.87, 0.0268180
2945.54, 0.0268180
2947.22, 0.0267560
2948.89, 0.0266330
2950.57, 0.0266330
2952.25, 0.0268790
2953.93, 0.0267560
2955.62, 0.0266330
2957.3, 0.0265090
2958.99, 0.0263860
2960.68, 0.0265090
2962.37, 0.0266330
2964.07, 0.0265710
2965.76, 0.0266940
2967.46, 0.0268790
2969.16, 0.0268180
2970.86, 0.0267560
2972.56, 0.0266940
2974.27, 0.0265090
2975.98, 0.0265090
2977.69, 0.0264480
2979.4, 0.0264480
2981.11, 0.0266940
2982.83, 0.0267560
2984.54, 0.0266940
2986.26, 0.0267560
2987.98, 0.0268180
2989.71, 0.0268180
2991.43, 0.0267560
2993.16, 0.0266330
2994.89, 0.0267560
2996.62, 0.0268180
2998.35, 0.0267560
3000.09, 0.0265710
3001.83, 0.0266330
3003.57, 0.0266940
3005.31, 0.0267560
3007.05, 0.0267560
3008.79, 0.0268790
3010.54, 0.0268180
3012.29, 0.0268790
3014.04, 0.0270640
3015.8, 0.0270030
3017.55, 0.0268790
3019.31, 0.0267560
3021.07, 0.0266330
3022.83, 0.0266330
3024.59, 0.0266940
3026.36, 0.0269410
3028.13, 0.0270640
3029.9, 0.0270030
3031.67, 0.0269410
3033.44, 0.0269410
3035.22, 0.0270640
3037.0, 0.0269410
3038.78, 0.0268180
3040.56, 0.0270030
3042.34, 0.0271260
3044.13, 0.0270640
3045.92, 0.0268790
3047.71, 0.0267560
3049.5, 0.0268180
3051.3, 0.0269410
3053.09, 0.0270030
3054.89, 0.0269410
3056.69, 0.0268180
3058.5, 0.0269410
3060.3, 0.0270640
3062.11, 0.0269410
3063.92, 0.0268180
3065.73, 0.0268180
3067.55, 0.0268790
3069.36, 0.0268790
3071.18, 0.0267560
3073.0, 0.0268180
3074.82, 0.0268180
3076.65, 0.0269410
3078.48, 0.0269410
3080.31, 0.0270030
3082.14, 0.0270030
3083.97, 0.0270030
3085.8, 0.0270030
3087.64, 0.0269410
3089.48, 0.0268790
3091.33, 0.0270030
3093.17, 0.0270640
3095.02, 0.0271870
3096.87, 0.0271260
3098.72, 0.0271870
3100.57, 0.0271870
3102.43, 0.0270640
3104.28, 0.0270640
3106.14, 0.0270640
3108.01, 0.0270640
3109.87, 0.0270030
3111.74, 0.0271870
3113.61, 0.0272490
3115.48, 0.0272490
3117.35, 0.0273720
3119.23, 0.0271260
3121.1, 0.0270030
3122.98, 0.0271260
3124.87, 0.0272490
3126.75, 0.0273720
3128.64, 0.0273110
3130.53, 0.0270640
3132.42, 0.0270030
3134.31, 0.0271260
3136.21, 0.0270030
3138.11, 0.0271260
3140.01, 0.0271260
3141.91, 0.0269410
3143.82, 0.0270640
3145.73, 0.0272490
3147.64, 0.0273110
3149.55, 0.0272490
3151.46, 0.0273110
3153.38, 0.0274340
3155.3, 0.0274340
3157.22, 0.0273720
3159.14, 0.0273110
3161.07, 0.0272490
3163.0, 0.0273720
3164.93, 0.0273110
3166.86, 0.0273720
3168.8, 0.0273720
3170.74, 0.0274340
3172.68, 0.0274960
3174.62, 0.0275570
3176.56, 0.0276190
3178.51, 0.0275570
3180.46, 0.0274340
3182.42, 0.0274340
3184.37, 0.0276190
3186.33, 0.0277420
3188.29, 0.0276190
3190.25, 0.0275570
3192.21, 0.0274960
3194.18, 0.0274340
3196.15, 0.0275570
3198.12, 0.0276190
3200.09, 0.0276190
3202.07, 0.0275570
3204.05, 0.0275570
3206.03, 0.0276190
3208.02, 0.0274960
3210.0, 0.0274960
3211.99, 0.0276810
3213.98, 0.0276810
3215.98, 0.0276190
3217.97, 0.0276810
3219.97, 0.0276810
3221.97, 0.0277420
3223.98, 0.0277420
3225.98, 0.0278040
3227.99, 0.0277420
3230.0, 0.0277420
3232.02, 0.0279270
3234.03, 0.0278040
3236.05, 0.0277420
3238.07, 0.0276810
3240.1, 0.0276190
3242.12, 0.0277420
3244.15, 0.0278040
3246.18, 0.0278040
3248.22, 0.0278660
3250.25, 0.0278040
3252.29, 0.0278040
3254.33, 0.0279890
3256.38, 0.0281120
3258.43, 0.0280510
3260.47, 0.0279890
3262.53, 0.0279890
3264.58, 0.0279890
3266.64, 0.0279890
3268.7, 0.0279890
3270.76, 0.0279270
3272.82, 0.0279890
3274.89, 0.0278040
3276.96, 0.0278040
3279.04, 0.0279890
3281.11, 0.0281740
3283.19, 0.0281740
3285.27, 0.0280510
3287.35, 0.0280510
3289.44, 0.0279890
3291.53, 0.0278660
3293.62, 0.0278040
3295.71, 0.0280510
3297.81, 0.0282360
3299.91, 0.0282360
3302.01, 0.0281120
3304.11, 0.0281740
3306.22, 0.0281740
3308.33, 0.0281120
3310.44, 0.0281120
3312.56, 0.0281740
3314.68, 0.0282970
3316.8, 0.0282970
3318.92, 0.0279890
3321.05, 0.0278660
3323.18, 0.0279890
3325.31, 0.0280510
3327.44, 0.0282360
3329.58, 0.0281740
3331.72, 0.0281120
3333.86, 0.0281740
3336.01, 0.0283590
3338.16, 0.0282360
3340.31, 0.0281120
3342.46, 0.0282360
3344.61, 0.0281120
3346.77, 0.0280510
3348.94, 0.0282360
3351.1, 0.0282360
3353.27, 0.0281740
3355.44, 0.0282360
3357.61, 0.0281740
3359.79, 0.0281120
3361.97, 0.0282970
3364.15, 0.0284820
3366.33, 0.0283590
3368.52, 0.0281740
3370.71, 0.0282360
3372.9, 0.0282360
3375.1, 0.0281740
3377.3, 0.0282360
3379.5, 0.0284200
3381.71, 0.0284200
3383.91, 0.0282970
3386.12, 0.0283590
3388.34, 0.0285440
3390.55, 0.0284200
3392.77, 0.0281740
3394.99, 0.0281740
3397.22, 0.0283590
3399.45, 0.0283590
3401.68, 0.0282970
3403.91, 0.0283590
3406.15, 0.0283590
3408.39, 0.0283590
3410.63, 0.0284200
3412.87, 0.0284820
3415.12, 0.0285440
3417.37, 0.0285440
3419.63, 0.0285440
3421.88, 0.0286050
3424.14, 0.0285440
3426.41, 0.0284200
3428.67, 0.0284820
3430.94, 0.0287290
3433.21, 0.0287900
3435.49, 0.0286050
3437.77, 0.0285440
3440.05, 0.0286670
3442.33, 0.0287900
3444.62, 0.0287290
3446.91, 0.0286050
3449.2, 0.0286050
3451.5, 0.0286670
3453.8, 0.0288520
3456.1, 0.0287900
3458.41, 0.0286670
3460.72, 0.0286050
3463.03, 0.0286670
3465.34, 0.0286670
3467.66, 0.0285440
3469.98, 0.0286050
3472.31, 0.0286670
3474.63, 0.0287290
3476.96, 0.0286670
3479.3, 0.0286670
3481.64, 0.0286670
3483.97, 0.0286670
3486.32, 0.0287900
3488.66, 0.0287900
3491.01, 0.0287290
3493.36, 0.0287900
3495.72, 0.0288520
3498.08, 0.0288520
3500.44, 0.0289140
3502.81, 0.0289140
3505.18, 0.0289140
3507.55, 0.0290370
3509.92, 0.0291600
3512.3, 0.0291600
3514.68, 0.0290370
3517.06, 0.0290370
3519.45, 0.0290370
3521.84, 0.0290370
3524.24, 0.0290990
3526.64, 0.0290370
3529.04, 0.0291600
3531.44, 0.0292220
3533.85, 0.0292220
3536.26, 0.0292220
3538.67, 0.0292840
3541.09, 0.0294070
3543.51, 0.0294690
3545.93, 0.0294690
3548.36, 0.0294690
3550.79, 0.0295300
3553.22, 0.0294070
3555.66, 0.0293450
3558.1, 0.0294690
3560.54, 0.0295300
3562.99, 0.0294690
3565.44, 0.0293450
3567.9, 0.0293450
3570.35, 0.0295300
3572.81, 0.0296530
3575.28, 0.0297770
3577.75, 0.0297770
3580.22, 0.0296530
3582.69, 0.0295920
3585.17, 0.0297150
3587.65, 0.0298380
3590.14, 0.0297770
3592.62, 0.0297150
3595.11, 0.0297770
3597.61, 0.0298380
3600.11, 0.0299000
3602.61, 0.0299620
3605.11, 0.0299620
3607.62, 0.0298380
3610.14, 0.0297770
3612.65, 0.0298380
3615.17, 0.0300230
3617.69, 0.0300850
3620.22, 0.0301470
3622.75, 0.0300850
3625.28, 0.0301470
3627.82, 0.0302080
3630.36, 0.0301470
3632.9, 0.0300850
3635.45, 0.0301470
3638.0, 0.0300850
3640.56, 0.0301470
3643.12, 0.0303930
3645.68, 0.0304550
3648.24, 0.0303320
3650.81, 0.0303320
3653.39, 0.0303320
3655.96, 0.0303320
3658.54, 0.0303930
3661.13, 0.0305170
3663.71, 0.0304550
3666.3, 0.0304550
3668.9, 0.0305780
3671.5, 0.0305780
3674.1, 0.0306400
3676.7, 0.0307020
3679.31, 0.0307630
3681.93, 0.0308250
3684.54, 0.0307630
3687.17, 0.0307630
3689.79, 0.0308250
3692.42, 0.0307630
3695.05, 0.0306400
3697.69, 0.0307630
3700.32, 0.0309480
3702.97, 0.0309480
3705.61, 0.0309480
3708.27, 0.0309480
3710.92, 0.0310100
3713.58, 0.0311330
3716.24, 0.0312560
3718.91, 0.0312560
3721.58, 0.0312560
3724.25, 0.0312560
3726.93, 0.0312560
3729.61, 0.0312560
3732.29, 0.0313180
3734.98, 0.0313180
3737.67, 0.0313800
3740.37, 0.0314410
3743.07, 0.0315650
3745.78, 0.0315030
3748.49, 0.0313180
3751.2, 0.0315030
3753.91, 0.0316880
3756.63, 0.0316260
3759.36, 0.0316880
3762.09, 0.0317500
3764.82, 0.0318110
3767.55, 0.0318730
3770.29, 0.0319350
3773.04, 0.0318730
3775.78, 0.0319960
3778.54, 0.0320580
3781.29, 0.0319960
3784.05, 0.0319960
3786.82, 0.0321190
3789.59, 0.0321810
3792.36, 0.0322430
3795.13, 0.0321810
3797.92, 0.0321810
3800.7, 0.0322430
3803.49, 0.0322430
3806.28, 0.0322430
3809.08, 0.0323040
3811.88, 0.0323660
3814.68, 0.0323660
3817.49, 0.0324890
3820.31, 0.0326740
3823.12, 0.0326740
3825.94, 0.0326130
3828.77, 0.0326130
3831.6, 0.0326130
3834.43, 0.0326130
3837.27, 0.0327360
3840.11, 0.0327980
3842.96, 0.0326740
3845.81, 0.0326130
3848.67, 0.0326740
3851.53, 0.0326740
3854.39, 0.0327360
3857.26, 0.0327980
3860.13, 0.0328590
3863.01, 0.0327360
3865.89, 0.0328590
3868.77, 0.0329830
3871.66, 0.0330440
3874.55, 0.0329830
3877.45, 0.0330440
3880.35, 0.0331680
3883.26, 0.0331680
3886.17, 0.0332290
3889.09, 0.0332290
3892.01, 0.0332290
3894.93, 0.0331680
3897.86, 0.0331680
3900.79, 0.0332910
3903.73, 0.0334140
3906.67, 0.0334140
3909.62, 0.0334760
3912.57, 0.0335370
3915.52, 0.0335990
3918.48, 0.0335990
3921.45, 0.0335370
3924.42, 0.0336610
3927.39, 0.0337220
3930.37, 0.0335990
3933.35, 0.0334760
3936.34, 0.0334760
3939.33, 0.0334140
3942.32, 0.0334140
3945.32, 0.0334760
3948.33, 0.0333520
3951.34, 0.0333520
3954.35, 0.0334760
3957.37, 0.0334140
3960.39, 0.0333520
3963.42, 0.0333520
3966.45, 0.0334760
3969.49, 0.0333520
3972.53, 0.0333520
3975.58, 0.0333520
3978.63, 0.0332290
3981.68, 0.0331680
3984.75, 0.0331680
3987.81, 0.0331680
3990.88, 0.0332290
3993.95, 0.0334760
3997.03, 0.0334760
4000.12, 0.0334760
4003.21, 0.0336610
4006.3, 0.0337840
4009.4, 0.0338460
4012.5, 0.0339070
4015.61, 0.0339070
4018.72, 0.0338460
4021.84, 0.0339070
4024.96, 0.0339070
4028.09, 0.0339070
4031.22, 0.0339070
4034.36, 0.0340920
4037.5, 0.0341540
4040.65, 0.0340310
4043.8, 0.0339070
4046.96, 0.0339690
4050.12, 0.0340920
4053.29, 0.0340310
4056.46, 0.0339070
4059.64, 0.0339070
4062.82, 0.0339690
4066.0, 0.0340310
4069.19, 0.0339690
4072.39, 0.0338460
4075.59, 0.0338460
4078.8, 0.0338460
4082.01, 0.0339690
4085.23, 0.0340310
4088.45, 0.0339070
4091.68, 0.0338460
4094.91, 0.0338460
4098.15, 0.0337220
4101.39, 0.0335990
4104.63, 0.0335990
4107.89, 0.0336610
4111.14, 0.0337220
4114.41, 0.0336610
4117.67, 0.0336610
4120.95, 0.0336610
4124.23, 0.0336610
4127.51, 0.0335990
4130.8, 0.0335990
4134.09, 0.0336610
4137.39, 0.0337220
4140.7, 0.0335990
4144.01, 0.0334760
4147.32, 0.0333520
4150.64, 0.0334760
4153.97, 0.0334760
4157.3, 0.0332910
4160.64, 0.0332910
4163.98, 0.0333520
4167.33, 0.0332910
4170.68, 0.0332910
4174.04, 0.0332910
4177.4, 0.0332290
4180.77, 0.0332290
4184.14, 0.0332910
4187.52, 0.0333520
4190.91, 0.0333520
4194.3, 0.0333520
4197.69, 0.0333520
4201.1, 0.0334140
4204.5, 0.0335990
4207.92, 0.0338460
4211.34, 0.0342160
4214.76, 0.0345240
4218.19, 0.0348320
4221.62, 0.0352020
4225.06, 0.0353250
4228.51, 0.0353250
4231.96, 0.0353870
4235.42, 0.0354490
4238.88, 0.0353870
4242.35, 0.0352020
4245.83, 0.0348940
4249.31, 0.0345240
4252.79, 0.0340310
4256.28, 0.0337220
4259.78, 0.0339070
4263.29, 0.0342770
4266.79, 0.0345850
4270.31, 0.0347700
4273.83, 0.0349550
4277.35, 0.0348320
4280.89, 0.0347090
4284.42, 0.0347090
4287.97, 0.0346470
4291.52, 0.0345240
4295.07, 0.0344620
4298.63, 0.0343390
4302.2, 0.0341540
4305.78, 0.0340310
4309.35, 0.0339070
4312.94, 0.0337220
4316.53, 0.0335990
4320.13, 0.0334760
4323.73, 0.0334140
4327.34, 0.0333520
4330.96, 0.0332290
4334.58, 0.0331680
4338.21, 0.0331060
4341.84, 0.0330440
4345.48, 0.0330440
4349.12, 0.0329830
4352.77, 0.0330440
4356.43, 0.0330440
4360.1, 0.0329830
4363.76, 0.0327980
4367.44, 0.0327980
4371.12, 0.0329830
4374.81, 0.0330440
4378.51, 0.0329210
4382.21, 0.0328590
4385.92, 0.0328590
4389.63, 0.0328590
4393.35, 0.0328590
4397.08, 0.0327980
4400.81, 0.0327360
4404.55, 0.0327360
4408.29, 0.0327360
4412.04, 0.0327360
4415.8, 0.0328590
4419.57, 0.0329210
4423.34, 0.0328590
4427.12, 0.0328590
4430.9, 0.0329210
4434.69, 0.0329210
4438.49, 0.0327980
4442.29, 0.0327980
4446.1, 0.0327980
4449.92, 0.0327360
4453.74, 0.0327360
4457.57, 0.0328590
4461.41, 0.0329210
4465.25, 0.0328590
4469.1, 0.0327360
4472.95, 0.0327980
4476.82, 0.0327980
4480.69, 0.0328590
4484.56, 0.0327980
4488.44, 0.0327980
4492.33, 0.0327980
4496.23, 0.0327360
4500.13, 0.0326740
4504.04, 0.0326740
4507.96, 0.0326130
4511.88, 0.0325510
4515.81, 0.0325510
4519.75, 0.0324890
4523.69, 0.0324280
4527.65, 0.0323660
4531.6, 0.0323660
4535.57, 0.0323660
4539.54, 0.0324280
4543.52, 0.0324280
4547.5, 0.0323040
4551.5, 0.0323040
4555.5, 0.0323660
4559.5, 0.0323040
4563.52, 0.0321810
4567.54, 0.0321190
4571.56, 0.0320580
4575.6, 0.0320580
4579.64, 0.0319960
4583.69, 0.0318110
4587.75, 0.0318110
4591.81, 0.0317500
4595.88, 0.0315030
4599.96, 0.0313800
4604.04, 0.0312560
4608.14, 0.0311330
4612.24, 0.0311330
4616.34, 0.0310710
4620.46, 0.0308860
4624.58, 0.0307630
4628.71, 0.0306400
4632.84, 0.0305170
4636.99, 0.0304550
4641.14, 0.0303320
4645.3, 0.0302080
4649.47, 0.0300850
4653.64, 0.0299620
4657.82, 0.0298380
4662.01, 0.0297150
4666.21, 0.0296530
4670.41, 0.0296530
4674.62, 0.0295920
4678.84, 0.0295920
4683.07, 0.0295920
4687.3, 0.0295920
4691.54, 0.0296530
4695.79, 0.0297770
4700.05, 0.0298380
4704.31, 0.0299000
4708.59, 0.0300230
4712.87, 0.0301470
4717.15, 0.0301470
4721.45, 0.0302080
4725.76, 0.0303930
4730.07, 0.0305170
4734.39, 0.0305780
4738.72, 0.0305170
4743.05, 0.0305170
4747.39, 0.0305170
4751.75, 0.0304550
4756.1, 0.0305170
4760.47, 0.0305780
4764.85, 0.0305780
4769.23, 0.0305780
4773.62, 0.0305170
4778.02, 0.0305780
4782.43, 0.0305780
4786.85, 0.0305780
4791.27, 0.0304550
4795.7, 0.0303930
4800.14, 0.0303930
4804.59, 0.0302700
4809.05, 0.0302700
4813.51, 0.0302700
4817.99, 0.0302080
4822.47, 0.0302080
4826.96, 0.0302080
4831.46, 0.0301470
4835.96, 0.0300230
4840.48, 0.0300230
4845.0, 0.0300230
4849.54, 0.0299620
4854.08, 0.0298380
4858.63, 0.0298380
4863.18, 0.0297150
4867.75, 0.0295300
4872.33, 0.0295300
4876.91, 0.0295920
4881.5, 0.0295300
4886.1, 0.0294690
4890.71, 0.0294690
4895.33, 0.0294690
4899.96, 0.0294070
4904.59, 0.0294070
4909.24, 0.0292840
4913.89, 0.0291600
4918.55, 0.0289750
4923.22, 0.0289750
4927.9, 0.0290370
4932.59, 0.0289750
4937.29, 0.0289140
4942.0, 0.0289140
4946.71, 0.0288520
4951.44, 0.0288520
4956.17, 0.0289140
4960.91, 0.0288520
4965.67, 0.0286670
4970.43, 0.0285440
4975.2, 0.0284820
4979.98, 0.0283590
4984.76, 0.0282970
4989.56, 0.0282360
4994.37, 0.0282970
4999.18, 0.0281740
5004.01, 0.0281120
5008.84, 0.0281120
5013.69, 0.0281120
5018.54, 0.0281120
5023.4, 0.0279890
5028.28, 0.0279270
5033.16, 0.0278660
5038.05, 0.0278040
5042.95, 0.0277420
5047.86, 0.0277420
5052.78, 0.0276810
5057.71, 0.0276810
5062.65, 0.0275570
5067.6, 0.0274960
5072.56, 0.0274340
5077.53, 0.0274340
5082.5, 0.0274340
5087.49, 0.0273720
5092.49, 0.0272490
5097.5, 0.0271260
5102.51, 0.0271260
5107.54, 0.0271260
5112.58, 0.0270030
5117.62, 0.0268790
5122.68, 0.0268180
5127.75, 0.0266940
5132.82, 0.0267560
5137.91, 0.0266940
5143.01, 0.0266940
5148.12, 0.0266940
5153.23, 0.0266330
5158.36, 0.0265710
5163.5, 0.0265090
5168.65, 0.0263860
5173.81, 0.0263860
5178.98, 0.0263860
5184.15, 0.0263240
5189.34, 0.0262630
5194.54, 0.0262630
5199.75, 0.0262630
5204.98, 0.0262010
5210.21, 0.0261390
5215.45, 0.0261390
5220.7, 0.0259550
5225.96, 0.0258310
5231.23, 0.0258930
5236.52, 0.0259550
5241.81, 0.0257700
5247.12, 0.0256460
5252.44, 0.0256460
5257.76, 0.0257080
5263.1, 0.0257080
5268.45, 0.0257080
5273.81, 0.0256460
5279.18, 0.0255850
5284.56, 0.0255850
5289.95, 0.0256460
5295.36, 0.0255850
5300.77, 0.0255230
5306.2, 0.0254610
5311.63, 0.0254000
5317.08, 0.0254000
5322.54, 0.0253380
5328.01, 0.0253380
5333.49, 0.0251530
5338.98, 0.0250300
5344.49, 0.0252760
5350.0, 0.0255230
5355.53, 0.0254000
5361.07, 0.0251530
5366.62, 0.0250300
5372.18, 0.0250300
5377.75, 0.0249680
5383.34, 0.0247830
5388.93, 0.0247830
5394.54, 0.0247830
5400.16, 0.0247830
5405.79, 0.0247220
5411.44, 0.0246600
5417.09, 0.0249060
5422.76, 0.0251530
5428.43, 0.0247830
5434.12, 0.0245370
5439.83, 0.0244750
5445.54, 0.0244750
5451.26, 0.0244130
5457.0, 0.0244130
5462.75, 0.0245980
5468.52, 0.0245370
5474.29, 0.0244130
5480.08, 0.0244750
5485.88, 0.0242280
5491.69, 0.0241050
5497.51, 0.0241050
5503.35, 0.0241050
5509.2, 0.0240430
5515.06, 0.0239820
5520.93, 0.0240430
5526.82, 0.0240430
5532.71, 0.0238580
5538.63, 0.0237350
5544.55, 0.0236730
5550.49, 0.0237970
5556.44, 0.0237970
5562.4, 0.0235500
5568.37, 0.0234890
5574.36, 0.0237350
5580.36, 0.0238580
5586.37, 0.0236120
5592.4, 0.0234890
5598.44, 0.0236120
5604.49, 0.0236120
5610.56, 0.0234890
5616.63, 0.0235500
5622.73, 0.0234270
5628.83, 0.0234890
5634.95, 0.0237970
5641.08, 0.0241050
5647.23, 0.0239200
5653.39, 0.0236730
5659.56, 0.0235500
5665.74, 0.0233040
5671.94, 0.0234890
5678.15, 0.0235500
5684.38, 0.0233650
5690.62, 0.0233650
5696.87, 0.0233040
5703.14, 0.0234890
5709.42, 0.0237970
5715.72, 0.0237350
5722.03, 0.0234270
5728.35, 0.0233650
5734.69, 0.0234890
5741.03, 0.0234270
5747.4, 0.0234890
5753.78, 0.0233040
5760.17, 0.0237350
5766.58, 0.0242280
5773.0, 0.0236730
5779.44, 0.0232420
5785.88, 0.0230570
5792.35, 0.0229950
5798.83, 0.0231190
5805.32, 0.0231800
5811.83, 0.0233650
5818.35, 0.0239820
5824.89, 0.0241050
5831.45, 0.0235500
5838.01, 0.0230570
5844.59, 0.0229340
5851.19, 0.0229950
5857.8, 0.0231800
5864.43, 0.0233650
5871.07, 0.0233650
5877.73, 0.0241670
5884.4, 0.0241050
5891.09, 0.0236730
5897.79, 0.0237970
5904.5, 0.0230570
5911.23, 0.0228100
5917.98, 0.0228100
5924.75, 0.0229340
5931.53, 0.0236730
5938.32, 0.0241050
5945.13, 0.0232420
5951.96, 0.0228100
5958.8, 0.0227490
5965.65, 0.0230570
5972.53, 0.0229340
5979.42, 0.0227490
5986.32, 0.0230570
5993.24, 0.0228100
6000.18, 0.0223170
6007.13, 0.0224400
6014.1, 0.0226250
6021.08, 0.0223170
6028.09, 0.0221940
6035.1, 0.0224400
6042.14, 0.0232420
6049.19, 0.0239820
6056.25, 0.0229340
6063.34, 0.0225020
6070.44, 0.0229340
6077.55, 0.0226870
6084.69, 0.0220710
6091.84, 0.0219470
6099.0, 0.0221320
6106.19, 0.0226250
6113.39, 0.0231190
6120.61, 0.0225640
6127.84, 0.0220090
6135.09, 0.0220090
6142.36, 0.0220710
6149.65, 0.0221320
6156.95, 0.0224400
6164.27, 0.0223790
6171.61, 0.0221320
6178.97, 0.0225640
6186.34, 0.0229340
6193.73, 0.0224400
6201.14, 0.0222560
6208.57, 0.0222560
6216.01, 0.0222560
6223.47, 0.0222560
6230.95, 0.0222560
6238.45, 0.0223790
6245.97, 0.0223170
6253.5, 0.0222560
6261.06, 0.0223170
6268.63, 0.0223790
6276.21, 0.0223170
6283.82, 0.0223170
6291.45, 0.0222560
6299.1, 0.0223170
6306.76, 0.0223790
6314.44, 0.0223790
6322.14, 0.0223790
6329.86, 0.0223170
6337.6, 0.0227490
6345.35, 0.0231190
6353.13, 0.0226250
6360.92, 0.0225640
6368.74, 0.0229340
6376.57, 0.0228100
6384.43, 0.0226250
6392.3, 0.0226250
6400.19, 0.0229950
6408.1, 0.0241050
6416.03, 0.0244130
6423.98, 0.0234890
6431.95, 0.0230570
6439.94, 0.0227490
6447.95, 0.0226870
6455.98, 0.0226870
6464.03, 0.0226870
6472.1, 0.0230570
6480.19, 0.0234890
6488.31, 0.0240430
6496.44, 0.0239200
6504.59, 0.0230570
6512.76, 0.0226870
6520.95, 0.0229340
6529.16, 0.0226250
6537.4, 0.0224400
6545.65, 0.0225020
6553.92, 0.0227490
6562.22, 0.0228720
6570.54, 0.0233650
6578.88, 0.0231190
6587.23, 0.0226870
6595.61, 0.0225020
6604.02, 0.0223170
6612.44, 0.0224400
6620.89, 0.0225020
6629.35, 0.0229340
6637.84, 0.0231800
6646.35, 0.0223170
6654.88, 0.0218860
6663.44, 0.0220090
6672.01, 0.0221940
6680.61, 0.0223170
6689.23, 0.0220090
6697.88, 0.0218240
6706.54, 0.0220710
6715.23, 0.0221320
6723.94, 0.0218860
6732.67, 0.0215770
6741.42, 0.0213920
6750.2, 0.0213310
6759.0, 0.0213310
6767.82, 0.0215160
6776.67, 0.0216390
6785.54, 0.0219470
6794.44, 0.0218860
6803.35, 0.0213310
6812.29, 0.0211460
6821.26, 0.0212690
6830.24, 0.0212070
6839.25, 0.0210840
6848.29, 0.0212690
6857.35, 0.0218860
6866.43, 0.0218860
6875.54, 0.0211460
6884.67, 0.0208380
6893.82, 0.0207760
6903.0, 0.0208380
6912.2, 0.0207140
6921.43, 0.0205910
6930.69, 0.0205910
6939.96, 0.0204680
6949.27, 0.0205290
6958.59, 0.0208380
6967.95, 0.0205290
6977.33, 0.0202210
6986.73, 0.0204060
6996.16, 0.0204680
7005.61, 0.0203440
7015.09, 0.0202210
7024.6, 0.0201590
7034.13, 0.0201590
7043.69, 0.0204060
7053.27, 0.0202830
7062.88, 0.0199740
7072.52, 0.0199130
7082.18, 0.0197900
7091.87, 0.0195430
7101.58, 0.0194200
7111.32, 0.0193580
7121.09, 0.0192350
7130.88, 0.0190500
7140.71, 0.0189260
7150.56, 0.0188030
7160.43, 0.0187410
7170.33, 0.0187410
7180.27, 0.0184330
7190.23, 0.0183720
7200.21, 0.0183720
7210.23, 0.0183720
7220.27, 0.0181250
7230.34, 0.0179400
7240.44, 0.0178170
7250.56, 0.0178780
7260.72, 0.0178780
7270.9, 0.0177550
7281.12, 0.0176320
7291.36, 0.0175700
7301.63, 0.0175700
7311.93, 0.0175700
7322.25, 0.0174470
7332.61, 0.0174470
7343.0, 0.0173850
7353.41, 0.0172000
7363.86, 0.0170770
7374.33, 0.0169540
7384.83, 0.0168300
7395.37, 0.0168920
7405.93, 0.0168920
7416.53, 0.0167690
7427.15, 0.0165840
7437.81, 0.0163990
7448.5, 0.0162760
7459.22, 0.0162760
7469.96, 0.0162140
7480.74, 0.0159670
7491.55, 0.0158440
7502.39, 0.0158440
7513.27, 0.0155360
7524.17, 0.0153510
7535.11, 0.0152890
7546.08, 0.0151040
7557.08, 0.0148580
7568.11, 0.0147960
7579.17, 0.0147340
7590.27, 0.0144880
7601.4, 0.0142410
7612.56, 0.0142410
7623.76, 0.0142410
7634.98, 0.0141180
7646.24, 0.0139330
7657.54, 0.0138100
7668.87, 0.0135630
7680.23, 0.0135010
7691.62, 0.0134400
7703.05, 0.0131930
7714.51, 0.0130080
7726.01, 0.0129460
7737.54, 0.0128850
7749.11, 0.0127000
7760.71, 0.0125150
7772.35, 0.0124530
7784.02, 0.0123920
7795.72, 0.0122070
7807.46, 0.0119600
7819.23, 0.0116520
7831.04, 0.0115280
7842.89, 0.0115280
7854.77, 0.0114670
7866.69, 0.0114050
7878.65, 0.0113440
7890.64, 0.0111590
7902.67, 0.0108500
7914.74, 0.0106650
7926.84, 0.0104800
7938.98, 0.0103570
7951.16, 0.0103570
7963.37, 0.0102950
7975.62, 0.0101110
7987.91, 0.00986400
8000.24, 0.00967900
8012.6, 0.00967900
8025.01, 0.00955600
8037.45, 0.00924700
8049.93, 0.00912400
8062.45, 0.00906200
8075.01, 0.00887800
8087.61, 0.00875400
8100.24, 0.00869300
8112.91, 0.00863100
8125.63, 0.00863100
8138.39, 0.00850800
8151.18, 0.00832300
8164.02, 0.00819900
8176.9, 0.00813800
8189.81, 0.00807600
8202.77, 0.00795300
8215.77, 0.00776800
8228.82, 0.00758300
8241.9, 0.00758300
8255.02, 0.00746000
8268.19, 0.00739800
8281.39, 0.00733600
8294.65, 0.00709000
8307.94, 0.00696600
8321.28, 0.00684300
8334.66, 0.00684300
8348.08, 0.00672000
8361.54, 0.00653500
8375.05, 0.00641200
8388.6, 0.00635000
8402.2, 0.00622700
8415.84, 0.00598000
8429.52, 0.00585700
8443.25, 0.00573300
8457.02, 0.00548700
8470.84, 0.00561000
8484.7, 0.00561000
8498.61, 0.00548700
8512.57, 0.00536400
8526.57, 0.00511700
8540.62, 0.00499400
8554.71, 0.00499400
8568.85, 0.00499400
8583.04, 0.00505500
8597.27, 0.00505500
8611.55, 0.00487000
8625.88, 0.00474700
8640.26, 0.00468500
8654.68, 0.00462400
8669.16, 0.00468500
8683.68, 0.00456200
8698.25, 0.00443900
8712.87, 0.00443900
8727.53, 0.00437700
8742.25, 0.00425400
8757.02, 0.00450000
8771.83, 0.00468500
8786.7, 0.00468500
8801.62, 0.00468500
8816.59, 0.00480900
8831.61, 0.00493200
8846.68, 0.00524000
8861.8, 0.00548700
8876.97, 0.00554800
8892.2, 0.00579500
8907.48, 0.00610300
8922.81, 0.00641200
8938.2, 0.00678100
8953.63, 0.00727500
8969.13, 0.00783000
8984.67, 0.00850800
9000.27, 0.00918600
9015.92, 0.00986400
9031.63, 0.0106040
9047.39, 0.0112200
9063.21, 0.0118980
9079.08, 0.0127610
9095.01, 0.0139330
9111.0, 0.0150430
9127.04, 0.0157820
9143.13, 0.0165220
9159.28, 0.0173240
9175.49, 0.0181250
9191.76, 0.0190500
9208.09, 0.0201590
9224.47, 0.0212690
9240.92, 0.0223170
9257.42, 0.0232420
9273.98, 0.0238580
9290.6, 0.0249060
9307.28, 0.0258930
9324.02, 0.0263240
9340.82, 0.0268790
9357.68, 0.0279270
9374.6, 0.0292840
9391.58, 0.0303320
9408.62, 0.0308860
9425.73, 0.0316260
9442.9, 0.0323040
9460.13, 0.0330440
9477.42, 0.0339070
9494.78, 0.0344010
9512.2, 0.0348940
9529.69, 0.0353250
9547.24, 0.0360030
9564.86, 0.0366200
9582.54, 0.0369280
9600.28, 0.0373600
9618.1, 0.0377300
9635.97, 0.0380990
9653.92, 0.0385930
9671.93, 0.0390240
9690.01, 0.0390240
9708.16, 0.0388390
9726.37, 0.0391480
9744.65, 0.0392710
9763.0, 0.0393320
9781.43, 0.0393940
9799.92, 0.0394560
9818.48, 0.0394560
9837.1, 0.0396410
9855.8, 0.0397020
9874.58, 0.0398870
9893.42, 0.0400110
9912.34, 0.0403190
9931.33, 0.0406270
9950.39, 0.0406270
9969.52, 0.0409970
9988.74, 0.0413050
10008.0, 0.0413050
10027.4, 0.0416750
10046.8, 0.0419830
10066.3, 0.0424150
10085.9, 0.0428470
10105.6, 0.0430310
10125.3, 0.0435250
10145.1, 0.0440180
10165.0, 0.0443260
10185.0, 0.0446960
10205.0, 0.0451890
10225.2, 0.0456820
10245.4, 0.0461760
10265.7, 0.0464220
10286.0, 0.0465450
10306.5, 0.0469150
10327.0, 0.0475940
10347.6, 0.0479020
10368.3, 0.0480870
10389.1, 0.0482100
10409.9, 0.0482100
10430.9, 0.0486420
10451.9, 0.0490730
10473.0, 0.0494430
10494.2, 0.0496900
10515.5, 0.0498750
10536.9, 0.0498750
10558.4, 0.0499980
10579.9, 0.0503060
10601.5, 0.0505530
10623.3, 0.0507380
10645.1, 0.0509840
10667.0, 0.0508610
10689.0, 0.0509230
10711.1, 0.0507990
10733.2, 0.0508610
10755.5, 0.0511080
10777.9, 0.0511690
10800.3, 0.0511080
10822.9, 0.0513540
10845.5, 0.0513540
10868.2, 0.0512310
10891.1, 0.0509840
10914.0, 0.0507990
10937.0, 0.0506760
10960.2, 0.0506140
10983.4, 0.0506760
11006.7, 0.0506140
11030.1, 0.0504290
11053.6, 0.0503680
11077.3, 0.0500600
11101.0, 0.0498130
11124.8, 0.0496280
11148.7, 0.0492580
11172.7, 0.0491960
11196.9, 0.0493810
11221.1, 0.0490730
11245.4, 0.0486420
11269.9, 0.0482720
11294.4, 0.0479020
11319.1, 0.0475940
11343.9, 0.0474700
11368.8, 0.0474700
11393.7, 0.0472850
11418.8, 0.0467300
11444.0, 0.0462990
11469.4, 0.0459290
11494.8, 0.0458670
11520.3, 0.0457440
11546.0, 0.0453120
11571.8, 0.0446340
11597.7, 0.0443260
11623.7, 0.0442030
11649.8, 0.0437100
11676.0, 0.0431550
11702.4, 0.0427850
11728.9, 0.0422920
11755.5, 0.0418600
11782.2, 0.0414900
11809.0, 0.0411820
11836.0, 0.0405040
11863.0, 0.0397640
11890.3, 0.0390860
11917.6, 0.0387160
11945.0, 0.0385310
11972.6, 0.0382230
12000.4, 0.0377910
12028.2, 0.0371750
12056.2, 0.0367430
12084.3, 0.0361880
12112.5, 0.0357570
12140.9, 0.0352640
12169.4, 0.0348940
12198.0, 0.0345240
12226.8, 0.0338460
12255.7, 0.0330440
12284.7, 0.0327980
12313.9, 0.0325510
12343.2, 0.0321810
12372.7, 0.0316260
12402.3, 0.0311950
12432.0, 0.0308860
12461.9, 0.0303930
12491.9, 0.0300230
12522.1, 0.0296530
12552.4, 0.0290370
12582.9, 0.0286050
12613.5, 0.0281740
12644.3, 0.0277420
12675.2, 0.0273720
12706.3, 0.0270640
12737.5, 0.0266330
12768.9, 0.0261390
12800.4, 0.0259550
12832.1, 0.0257700
12863.9, 0.0256460
12895.9, 0.0253380
12928.1, 0.0250300
12960.4, 0.0245370
12992.9, 0.0243520
13025.5, 0.0244750
13058.3, 0.0243520
13091.3, 0.0239820
13124.4, 0.0239200
13157.8, 0.0238580
13191.2, 0.0234890
13224.9, 0.0229340
13258.7, 0.0227490
13292.7, 0.0224400
13326.9, 0.0221320
13361.2, 0.0222560
13395.7, 0.0218240
13430.4, 0.0215160
13465.3, 0.0220710
13500.4, 0.0221320
13535.7, 0.0217620
13571.1, 0.0218240
13606.7, 0.0216390
13642.5, 0.0212690
13678.5, 0.0210840
13714.7, 0.0210230
13751.1, 0.0210840
13787.6, 0.0212690
13824.4, 0.0215160
13861.4, 0.0213920
13898.5, 0.0207760
13935.9, 0.0203440
13973.5, 0.0204060
14011.2, 0.0205910
14049.2, 0.0204680
14087.4, 0.0199740
14125.8, 0.0199740
14164.3, 0.0199740
14203.2, 0.0199130
14242.2, 0.0202830
14281.4, 0.0205290
14320.9, 0.0204060
14360.5, 0.0200980
14400.4, 0.0199740
14440.5, 0.0200980
14480.9, 0.0203440
14521.4, 0.0202210
14562.2, 0.0201590
14603.3, 0.0205290
14644.5, 0.0207760
14686.0, 0.0205290
14727.7, 0.0205910
14769.7, 0.0206530
14811.9, 0.0207760
14854.3, 0.0213310
14897.0, 0.0212690
14939.9, 0.0211460
14983.1, 0.0216390
15026.5, 0.0214540
15070.2, 0.0216390
15114.2, 0.0218240
15158.3, 0.0220710
15202.8, 0.0223790
15247.5, 0.0226250
15292.5, 0.0225020
15337.7, 0.0226870
15383.2, 0.0230570
15429.0, 0.0231190
15475.1, 0.0236120
15521.4, 0.0237350
15568.0, 0.0236730
15614.9, 0.0239200
15662.1, 0.0239200
15709.6, 0.0242280
15757.3, 0.0242900
15805.4, 0.0240430
15853.7, 0.0238580
15902.3, 0.0241670
15951.2, 0.0247830
16000.5, 0.0252150
16050.0, 0.0251530
16099.8, 0.0254000
16150.0, 0.0255230
16200.5, 0.0252150
16251.3, 0.0250910
16302.4, 0.0249680
16353.8, 0.0252760
16405.5, 0.0259550
16457.6, 0.0263240
16510.0, 0.0263860
16562.8, 0.0263860
16615.9, 0.0262010
16669.3, 0.0262630
16723.1, 0.0266330
16777.2, 0.0269410
16831.7, 0.0274340
16886.5, 0.0281740
16941.7, 0.0286670
16997.2, 0.0286670
17053.1, 0.0288520
17109.4, 0.0294070
17166.1, 0.0299620
17223.1, 0.0300230
17280.5, 0.0300230
17338.3, 0.0307020
17396.5, 0.0316260
17455.1, 0.0317500
17514.0, 0.0321190
17573.4, 0.0333520
17633.2, 0.0340310
17693.4, 0.0337220
17754.0, 0.0339070
17815.0, 0.0347090
17876.4, 0.0347700
17938.3, 0.0351400
18000.5, 0.0358800
18063.3, 0.0366820
18126.4, 0.0372360
18190.0, 0.0377910
18254.1, 0.0387160
18318.6, 0.0395790
18383.5, 0.0399490
18449.0, 0.0410590
18514.9, 0.0422300
18581.2, 0.0429080
18648.0, 0.0436480
18715.4, 0.0438950
18783.2, 0.0453740
18851.5, 0.0469770
18920.3, 0.0472850
18989.6, 0.0481480
19059.4, 0.0493810
19129.7, 0.0509230
19200.6, 0.0526490
19272.0, 0.0545600
19343.9, 0.0553000
19416.3, 0.0557930
19489.3, 0.0565330
19562.8, 0.0571490
19637.0, 0.0587520
19711.6, 0.0600470
19786.8, 0.0603550
19862.6, 0.0614030
19939.0, 0.0621430
20016.0, 0.0623280
20093.6, 0.0619580
20171.8, 0.0601700
20250.6, 0.0601080
20330.0, 0.0615880
20410.0, 0.0620810
20490.7, 0.0618350
20572.0, 0.0625130
20654.0, 0.0625130
20736.6, 0.0625130
20819.9, 0.0625130
20903.8, 0.0620810
20988.5, 0.0623890
21073.8, 0.0623280
21159.8, 0.0625740
21246.5, 0.0631910
21334.0, 0.0635610
21422.1, 0.0636220
21511.0, 0.0618350
21600.7, 0.0611560
21691.0, 0.0625740
21782.1, 0.0636220
21874.0, 0.0625130
21966.7, 0.0609720
22060.2, 0.0620200
22154.5, 0.0639920
22249.6, 0.0643620
22345.5, 0.0622050
22442.2, 0.0610950
22539.8, 0.0606630
22638.2, 0.0614650
22737.5, 0.0613410
22837.7, 0.0588750
22938.7, 0.0580120
23040.7, 0.0587520
23143.5, 0.0582590
23247.3, 0.0582590
23352.1, 0.0572110
23457.7, 0.0574570
23564.4, 0.0590600
23672.0, 0.0585670
23780.5, 0.0585060
23890.1, 0.0590600
24000.7, 0.0614650
24112.3, 0.0622660
24225.0, 0.0609720
24338.7, 0.0606020
24453.5, 0.0572110
24569.4, 0.0541280
24686.4, 0.0564090
24804.5, 0.0638070
24923.8, 0.0631290
