Database of Origin, USGS Spectral Database
Sample Description, See USGS database for additional info
Date Added,2016-08-10 05:16:43.576313

Data ID,USGS_nic02          
Sample ID, nickeline_hs264.15893
Mineral Name, nickeline
Material Class,Arsenate

Wavelength
1582.95, 0.0933930
1583.43, 0.0936360
1583.92, 0.0936360
1584.4, 0.0933320
1584.88, 0.0934540
1585.37, 0.0935140
1585.85, 0.0935140
1586.34, 0.0935140
1586.82, 0.0940010
1587.31, 0.0946700
1587.8, 0.0946100
1588.28, 0.0944880
1588.77, 0.0944270
1589.26, 0.0941840
1589.74, 0.0942440
1590.23, 0.0944270
1590.72, 0.0946700
1591.21, 0.0947310
1591.7, 0.0947920
1592.19, 0.0948530
1592.67, 0.0949750
1593.16, 0.0951570
1593.65, 0.0952180
1594.14, 0.0947920
1594.63, 0.0949140
1595.12, 0.0950960
1595.61, 0.0951570
1596.11, 0.0952790
1596.6, 0.0956440
1597.09, 0.0959480
1597.58, 0.0959480
1598.08, 0.0956440
1598.57, 0.0960090
1599.06, 0.0961910
1599.55, 0.0958260
1600.05, 0.0957050
1600.54, 0.0962520
1601.04, 0.0962520
1601.53, 0.0960090
1602.03, 0.0961310
1602.52, 0.0963130
1603.02, 0.0964960
1603.51, 0.0966780
1604.01, 0.0969220
1604.5, 0.0966170
1605.0, 0.0968610
1605.5, 0.0971650
1606.0, 0.0968610
1606.49, 0.0967390
1606.99, 0.0966780
1607.49, 0.0964960
1607.99, 0.0968610
1608.49, 0.0970430
1608.99, 0.0969820
1609.49, 0.0972260
1609.99, 0.0973470
1610.49, 0.0976520
1610.99, 0.0975300
1611.49, 0.0972260
1611.99, 0.0972870
1612.49, 0.0976520
1612.99, 0.0975910
1613.49, 0.0976520
1614.0, 0.0978340
1614.5, 0.0980780
1615.0, 0.0978340
1615.51, 0.0980780
1616.01, 0.0982600
1616.51, 0.0979560
1617.02, 0.0974080
1617.52, 0.0977130
1618.03, 0.0986860
1618.53, 0.0987470
1619.04, 0.0985030
1619.54, 0.0983820
1620.05, 0.0983210
1620.55, 0.0986860
1621.06, 0.0985030
1621.57, 0.0985640
1622.08, 0.0989290
1622.58, 0.0992340
1623.09, 0.0990510
1623.6, 0.0988680
1624.11, 0.0987470
1624.62, 0.0991730
1625.13, 0.0991730
1625.64, 0.0991730
1626.15, 0.0991730
1626.66, 0.0995380
1627.17, 0.0997200
1627.68, 0.0997810
1628.19, 0.0996590
1628.7, 0.0994160
1629.21, 0.0994770
1629.72, 0.0998420
1630.24, 0.0999030
1630.75, 0.0998420
1631.26, 0.0995990
1631.78, 0.0997810
1632.29, 0.0998420
1632.8, 0.0997200
1633.32, 0.0999030
1633.83, 0.100025
1634.35, 0.100085
1634.86, 0.100329
1635.38, 0.100207
1635.9, 0.100085
1636.41, 0.100146
1636.93, 0.100025
1637.45, 0.0998420
1637.96, 0.100268
1638.48, 0.100572
1639.0, 0.100329
1639.52, 0.100085
1640.04, 0.100329
1640.56, 0.100511
1641.08, 0.100755
1641.59, 0.101059
1642.11, 0.100572
1642.63, 0.100390
1643.16, 0.100755
1643.68, 0.100876
1644.2, 0.100694
1644.72, 0.100511
1645.24, 0.100633
1645.76, 0.100572
1646.29, 0.100329
1646.81, 0.100450
1647.33, 0.100937
1647.86, 0.100876
1648.38, 0.100572
1648.9, 0.100815
1649.43, 0.101363
1649.95, 0.101424
1650.48, 0.101302
1651.0, 0.101181
1651.53, 0.101181
1652.06, 0.101120
1652.58, 0.100937
1653.11, 0.101059
1653.64, 0.101424
1654.17, 0.101485
1654.69, 0.101911
1655.22, 0.101606
1655.75, 0.100876
1656.28, 0.100937
1656.81, 0.101363
1657.34, 0.101667
1657.87, 0.101546
1658.4, 0.101302
1658.93, 0.101485
1659.46, 0.101546
1659.99, 0.101546
1660.52, 0.101667
1661.05, 0.101667
1661.59, 0.101667
1662.12, 0.101606
1662.65, 0.101606
1663.19, 0.101911
1663.72, 0.102154
1664.26, 0.102276
1664.79, 0.102093
1665.32, 0.102032
1665.86, 0.101971
1666.39, 0.102215
1666.93, 0.102458
1667.47, 0.102519
1668.0, 0.102458
1668.54, 0.102762
1669.08, 0.102702
1669.61, 0.102519
1670.15, 0.102580
1670.69, 0.102641
1671.23, 0.102702
1671.77, 0.102702
1672.31, 0.102641
1672.85, 0.102641
1673.39, 0.102519
1673.93, 0.102458
1674.47, 0.102580
1675.01, 0.102641
1675.55, 0.102641
1676.09, 0.102884
1676.64, 0.102823
1677.18, 0.102884
1677.72, 0.102884
1678.26, 0.102945
1678.81, 0.102945
1679.35, 0.103310
1679.89, 0.103492
1680.44, 0.103310
1680.98, 0.103067
1681.53, 0.103371
1682.07, 0.103432
1682.62, 0.103371
1683.17, 0.103432
1683.71, 0.103127
1684.26, 0.102884
1684.81, 0.103188
1685.36, 0.103310
1685.9, 0.103614
1686.45, 0.103553
1687.0, 0.103432
1687.55, 0.103371
1688.1, 0.103492
1688.65, 0.103736
1689.2, 0.104040
1689.75, 0.103918
1690.3, 0.103553
1690.85, 0.103432
1691.41, 0.103553
1691.96, 0.103736
1692.51, 0.103736
1693.06, 0.103614
1693.61, 0.103675
1694.17, 0.103614
1694.72, 0.103432
1695.28, 0.103492
1695.83, 0.103918
1696.39, 0.104162
1696.94, 0.104162
1697.5, 0.104344
1698.05, 0.104405
1698.61, 0.104223
1699.17, 0.104101
1699.72, 0.103979
1700.28, 0.104466
1700.84, 0.104953
1701.4, 0.104831
1701.95, 0.104283
1702.51, 0.104344
1703.07, 0.104344
1703.63, 0.104405
1704.19, 0.104283
1704.75, 0.104344
1705.31, 0.104466
1705.88, 0.104405
1706.44, 0.104466
1707.0, 0.104831
1707.56, 0.105196
1708.12, 0.104892
1708.69, 0.104283
1709.25, 0.104466
1709.81, 0.104648
1710.38, 0.104648
1710.94, 0.104648
1711.51, 0.104648
1712.07, 0.104831
1712.64, 0.104831
1713.2, 0.104648
1713.77, 0.104953
1714.34, 0.105196
1714.9, 0.105196
1715.47, 0.104892
1716.04, 0.104953
1716.61, 0.105196
1717.18, 0.105318
1717.74, 0.105196
1718.31, 0.105074
1718.88, 0.105135
1719.45, 0.105257
1720.02, 0.105500
1720.59, 0.105987
1721.17, 0.105744
1721.74, 0.105318
1722.31, 0.105014
1722.88, 0.105196
1723.45, 0.105500
1724.03, 0.105622
1724.6, 0.105500
1725.18, 0.105500
1725.75, 0.105561
1726.33, 0.105622
1726.9, 0.105744
1727.48, 0.105805
1728.05, 0.105622
1728.63, 0.105744
1729.2, 0.105683
1729.78, 0.105500
1730.36, 0.105439
1730.94, 0.105500
1731.51, 0.105439
1732.09, 0.105500
1732.67, 0.105805
1733.25, 0.105987
1733.83, 0.106109
1734.41, 0.106109
1734.99, 0.106048
1735.57, 0.106170
1736.15, 0.106352
1736.73, 0.106352
1737.32, 0.106230
1737.9, 0.106109
1738.48, 0.105926
1739.07, 0.106170
1739.65, 0.106048
1740.23, 0.106109
1740.82, 0.106170
1741.4, 0.106291
1741.99, 0.106413
1742.57, 0.106230
1743.16, 0.106352
1743.74, 0.106474
1744.33, 0.106352
1744.92, 0.106413
1745.51, 0.106413
1746.09, 0.106413
1746.68, 0.106595
1747.27, 0.107021
1747.86, 0.106778
1748.45, 0.106595
1749.04, 0.106535
1749.63, 0.106656
1750.22, 0.106717
1750.81, 0.106778
1751.4, 0.106595
1751.99, 0.106900
1752.59, 0.107021
1753.18, 0.107021
1753.77, 0.106900
1754.37, 0.106839
1754.96, 0.107021
1755.56, 0.107143
1756.15, 0.107082
1756.74, 0.107143
1757.34, 0.107021
1757.94, 0.106778
1758.53, 0.106778
1759.13, 0.106960
1759.73, 0.106900
1760.32, 0.107143
1760.92, 0.107326
1761.52, 0.107021
1762.12, 0.106900
1762.72, 0.107082
1763.32, 0.107265
1763.92, 0.107630
1764.52, 0.107630
1765.12, 0.107508
1765.72, 0.107326
1766.32, 0.107508
1766.92, 0.107751
1767.53, 0.107873
1768.13, 0.107751
1768.73, 0.107691
1769.34, 0.107569
1769.94, 0.107751
1770.55, 0.107873
1771.15, 0.107751
1771.76, 0.107630
1772.36, 0.107630
1772.97, 0.107691
1773.57, 0.107751
1774.18, 0.107934
1774.79, 0.107873
1775.4, 0.107751
1776.0, 0.107934
1776.61, 0.107995
1777.22, 0.107934
1777.83, 0.107873
1778.44, 0.108117
1779.05, 0.107995
1779.66, 0.107812
1780.27, 0.107812
1780.88, 0.108177
1781.5, 0.108177
1782.11, 0.108117
1782.72, 0.108117
1783.33, 0.108238
1783.95, 0.108117
1784.56, 0.107934
1785.18, 0.108056
1785.79, 0.108482
1786.41, 0.108542
1787.02, 0.108421
1787.64, 0.108238
1788.26, 0.108238
1788.87, 0.108482
1789.49, 0.108664
1790.11, 0.108603
1790.73, 0.108603
1791.35, 0.108360
1791.96, 0.108299
1792.58, 0.108117
1793.21, 0.108238
1793.83, 0.108299
1794.45, 0.108299
1795.07, 0.108542
1795.69, 0.108786
1796.31, 0.108847
1796.93, 0.108847
1797.56, 0.108664
1798.18, 0.108482
1798.8, 0.108421
1799.43, 0.108603
1800.05, 0.108664
1800.68, 0.108786
1801.3, 0.108786
1801.93, 0.108725
1802.56, 0.108664
1803.18, 0.108603
1803.81, 0.108664
1804.44, 0.108603
1805.07, 0.108542
1805.7, 0.108786
1806.33, 0.108968
1806.95, 0.108907
1807.58, 0.108786
1808.22, 0.108907
1808.85, 0.108968
1809.48, 0.108786
1810.11, 0.108482
1810.74, 0.108725
1811.38, 0.108907
1812.01, 0.109333
1812.64, 0.109638
1813.28, 0.109577
1813.91, 0.109333
1814.55, 0.109090
1815.18, 0.108847
1815.82, 0.108847
1816.45, 0.109151
1817.09, 0.109455
1817.73, 0.109333
1818.36, 0.109090
1819.0, 0.109090
1819.64, 0.109333
1820.28, 0.109577
1820.92, 0.109455
1821.56, 0.109394
1822.2, 0.109516
1822.84, 0.109516
1823.48, 0.109698
1824.12, 0.109820
1824.76, 0.109881
1825.41, 0.109455
1826.05, 0.109333
1826.69, 0.109516
1827.34, 0.109577
1827.98, 0.109759
1828.63, 0.109820
1829.27, 0.109881
1829.92, 0.109881
1830.56, 0.109759
1831.21, 0.109820
1831.86, 0.109942
1832.5, 0.110003
1833.15, 0.109942
1833.8, 0.110063
1834.45, 0.109820
1835.1, 0.109942
1835.75, 0.109942
1836.4, 0.109820
1837.05, 0.109820
1837.7, 0.109881
1838.35, 0.110124
1839.01, 0.109881
1839.66, 0.109881
1840.31, 0.110307
1840.96, 0.110124
1841.62, 0.109881
1842.27, 0.110063
1842.93, 0.110368
1843.58, 0.110246
1844.24, 0.110246
1844.9, 0.110550
1845.55, 0.110550
1846.21, 0.110185
1846.87, 0.109942
1847.53, 0.110003
1848.18, 0.110185
1848.84, 0.110611
1849.5, 0.110672
1850.16, 0.110489
1850.82, 0.110489
1851.48, 0.110489
1852.14, 0.110429
1852.81, 0.110489
1853.47, 0.110429
1854.13, 0.110611
1854.8, 0.110733
1855.46, 0.110489
1856.12, 0.110429
1856.79, 0.110733
1857.45, 0.110976
1858.12, 0.110915
1858.79, 0.110794
1859.45, 0.110489
1860.12, 0.110611
1860.79, 0.110794
1861.46, 0.111037
1862.12, 0.110976
1862.79, 0.110794
1863.46, 0.110672
1864.13, 0.110854
1864.8, 0.111037
1865.48, 0.111098
1866.15, 0.110976
1866.82, 0.110854
1867.49, 0.110733
1868.16, 0.110976
1868.84, 0.110854
1869.51, 0.110733
1870.19, 0.110611
1870.86, 0.110672
1871.54, 0.110854
1872.21, 0.110915
1872.89, 0.110794
1873.56, 0.111098
1874.24, 0.111037
1874.92, 0.110915
1875.6, 0.111037
1876.28, 0.110976
1876.96, 0.110976
1877.64, 0.111280
1878.32, 0.111280
1879.0, 0.111341
1879.68, 0.111280
1880.36, 0.111341
1881.04, 0.111280
1881.73, 0.111402
1882.41, 0.111341
1883.09, 0.111037
1883.78, 0.111037
1884.46, 0.111402
1885.15, 0.111524
1885.83, 0.111524
1886.52, 0.111463
1887.21, 0.111584
1887.89, 0.111524
1888.58, 0.111524
1889.27, 0.111098
1889.96, 0.110976
1890.65, 0.111280
1891.34, 0.111402
1892.03, 0.111463
1892.72, 0.111584
1893.41, 0.111706
1894.1, 0.111645
1894.79, 0.111524
1895.49, 0.111463
1896.18, 0.111402
1896.87, 0.111341
1897.57, 0.111463
1898.26, 0.111463
1898.96, 0.111402
1899.65, 0.111706
1900.35, 0.112010
1901.05, 0.112010
1901.74, 0.111828
1902.44, 0.111645
1903.14, 0.111706
1903.84, 0.111950
1904.54, 0.111889
1905.24, 0.111828
1905.94, 0.111889
1906.64, 0.111950
1907.34, 0.112010
1908.04, 0.111889
1908.75, 0.111828
1909.45, 0.112071
1910.15, 0.112132
1910.86, 0.112010
1911.56, 0.112010
1912.27, 0.112010
1912.97, 0.112010
1913.68, 0.112315
1914.39, 0.112254
1915.09, 0.111889
1915.8, 0.111828
1916.51, 0.111889
1917.22, 0.112010
1917.93, 0.112254
1918.64, 0.112132
1919.35, 0.111828
1920.06, 0.111645
1920.77, 0.111889
1921.48, 0.112071
1922.19, 0.112193
1922.91, 0.112375
1923.62, 0.112436
1924.33, 0.112436
1925.05, 0.112436
1925.76, 0.112375
1926.48, 0.112315
1927.19, 0.112254
1927.91, 0.112315
1928.63, 0.112436
1929.35, 0.112558
1930.07, 0.112497
1930.78, 0.112436
1931.5, 0.112436
1932.22, 0.112497
1932.94, 0.112497
1933.66, 0.112619
1934.39, 0.112436
1935.11, 0.112436
1935.83, 0.112436
1936.55, 0.112375
1937.28, 0.112436
1938.0, 0.112680
1938.73, 0.112680
1939.45, 0.112741
1940.18, 0.112741
1940.9, 0.112801
1941.63, 0.112741
1942.36, 0.112741
1943.09, 0.112619
1943.81, 0.112862
1944.54, 0.112923
1945.27, 0.112862
1946.0, 0.112680
1946.73, 0.112558
1947.47, 0.112680
1948.2, 0.112923
1948.93, 0.112862
1949.66, 0.112862
1950.4, 0.112923
1951.13, 0.112862
1951.86, 0.112619
1952.6, 0.112741
1953.34, 0.112801
1954.07, 0.112862
1954.81, 0.112923
1955.55, 0.113045
1956.29, 0.113106
1957.02, 0.113045
1957.76, 0.112923
1958.5, 0.113106
1959.24, 0.113045
1959.98, 0.112984
1960.72, 0.113166
1961.47, 0.113288
1962.21, 0.112984
1962.95, 0.112923
1963.7, 0.112984
1964.44, 0.112923
1965.18, 0.112923
1965.93, 0.112801
1966.67, 0.112801
1967.42, 0.113045
1968.17, 0.113227
1968.92, 0.113106
1969.66, 0.112984
1970.41, 0.113166
1971.16, 0.113288
1971.91, 0.113349
1972.66, 0.113471
1973.41, 0.113349
1974.16, 0.113288
1974.92, 0.113288
1975.67, 0.113227
1976.42, 0.113166
1977.18, 0.113166
1977.93, 0.113106
1978.69, 0.113227
1979.44, 0.113227
1980.2, 0.113166
1980.95, 0.113288
1981.71, 0.113288
1982.47, 0.113227
1983.23, 0.113349
1983.99, 0.113410
1984.74, 0.113227
1985.51, 0.113471
1986.27, 0.113592
1987.03, 0.113410
1987.79, 0.113410
1988.55, 0.113592
1989.32, 0.113531
1990.08, 0.113653
1990.84, 0.113471
1991.61, 0.113592
1992.37, 0.113775
1993.14, 0.113836
1993.9, 0.113653
1994.67, 0.113410
1995.44, 0.113592
1996.21, 0.114018
1996.98, 0.114018
1997.75, 0.114018
1998.52, 0.113897
1999.29, 0.113714
2000.06, 0.113897
2000.83, 0.114140
2001.6, 0.114079
2002.38, 0.114018
2003.15, 0.113897
2003.93, 0.113897
2004.7, 0.113836
2005.48, 0.113897
2006.25, 0.113897
2007.03, 0.113897
2007.81, 0.113897
2008.58, 0.114018
2009.36, 0.114079
2010.14, 0.114079
2010.92, 0.113957
2011.7, 0.114018
2012.48, 0.114079
2013.26, 0.114140
2014.05, 0.114201
2014.83, 0.114262
2015.61, 0.114322
2016.4, 0.114322
2017.18, 0.114262
2017.97, 0.114201
2018.75, 0.114079
2019.54, 0.114140
2020.32, 0.114201
2021.11, 0.114140
2021.9, 0.114201
2022.69, 0.114383
2023.48, 0.114201
2024.27, 0.114079
2025.06, 0.114140
2025.85, 0.114262
2026.64, 0.114201
2027.44, 0.114444
2028.23, 0.114566
2029.02, 0.114322
2029.82, 0.114383
2030.61, 0.114505
2031.41, 0.114322
2032.2, 0.114444
2033.0, 0.114505
2033.8, 0.114383
2034.6, 0.114322
2035.4, 0.114383
2036.2, 0.114322
2037.0, 0.114383
2037.8, 0.114322
2038.6, 0.114444
2039.4, 0.114383
2040.2, 0.114444
2041.01, 0.114566
2041.81, 0.114627
2042.61, 0.114322
2043.42, 0.114322
2044.22, 0.114627
2045.03, 0.114566
2045.84, 0.114627
2046.65, 0.114627
2047.46, 0.114627
2048.26, 0.114687
2049.07, 0.114748
2049.88, 0.114566
2050.69, 0.114383
2051.51, 0.114383
2052.32, 0.114383
2053.13, 0.114444
2053.94, 0.114444
2054.76, 0.114444
2055.57, 0.114627
2056.39, 0.114809
2057.2, 0.114687
2058.02, 0.114566
2058.84, 0.114566
2059.66, 0.114627
2060.48, 0.114687
2061.29, 0.114627
2062.11, 0.114505
2062.94, 0.114748
2063.76, 0.114870
2064.58, 0.114870
2065.4, 0.114931
2066.22, 0.114992
2067.05, 0.114809
2067.87, 0.114627
2068.7, 0.114444
2069.52, 0.114505
2070.35, 0.114566
2071.18, 0.114687
2072.0, 0.114748
2072.83, 0.114748
2073.66, 0.114748
2074.49, 0.114748
2075.32, 0.114687
2076.15, 0.114870
2076.98, 0.114809
2077.82, 0.114748
2078.65, 0.114748
2079.48, 0.114748
2080.32, 0.114809
2081.15, 0.114748
2081.99, 0.114566
2082.83, 0.114627
2083.66, 0.114809
2084.5, 0.114870
2085.34, 0.114809
2086.18, 0.114809
2087.02, 0.114870
2087.86, 0.114931
2088.7, 0.114931
2089.54, 0.114870
2090.39, 0.114687
2091.23, 0.114809
2092.07, 0.114870
2092.92, 0.115113
2093.76, 0.115113
2094.61, 0.115113
2095.45, 0.115235
2096.3, 0.115235
2097.15, 0.114992
2098.0, 0.114931
2098.85, 0.114870
2099.7, 0.114992
2100.55, 0.115113
2101.4, 0.115113
2102.25, 0.114992
2103.1, 0.114931
2103.96, 0.114992
2104.81, 0.114931
2105.67, 0.114992
2106.52, 0.115174
2107.38, 0.115113
2108.24, 0.114870
2109.09, 0.114931
2109.95, 0.115053
2110.81, 0.115053
2111.67, 0.115053
2112.53, 0.114931
2113.39, 0.114992
2114.25, 0.114931
2115.12, 0.114992
2115.98, 0.115296
2116.84, 0.115478
2117.71, 0.115296
2118.58, 0.115174
2119.44, 0.115174
2120.31, 0.115296
2121.18, 0.115357
2122.04, 0.115357
2122.91, 0.115166
2123.78, 0.115039
2124.65, 0.115102
2125.52, 0.115166
2126.4, 0.115102
2127.27, 0.115102
2128.14, 0.114975
2129.02, 0.114975
2129.89, 0.114658
2130.77, 0.114785
2131.64, 0.115102
2132.52, 0.114975
2133.4, 0.114721
2134.27, 0.114721
2135.15, 0.114658
2136.03, 0.115039
2136.91, 0.115102
2137.79, 0.114912
2138.68, 0.114975
2139.56, 0.115166
2140.44, 0.115102
2141.33, 0.115166
2142.21, 0.115484
2143.1, 0.115675
2143.99, 0.115293
2144.87, 0.115293
2145.76, 0.115357
2146.65, 0.115230
2147.54, 0.115293
2148.43, 0.115230
2149.32, 0.115039
2150.21, 0.115102
2151.1, 0.115484
2151.99, 0.115357
2152.89, 0.115357
2153.78, 0.115484
2154.68, 0.115166
2155.57, 0.115166
2156.47, 0.115420
2157.37, 0.115611
2158.27, 0.115166
2159.16, 0.115420
2160.06, 0.115738
2160.96, 0.115611
2161.86, 0.115611
2162.77, 0.115611
2163.67, 0.115675
2164.57, 0.115738
2165.48, 0.115802
2166.38, 0.115802
2167.29, 0.115992
2168.2, 0.116437
2169.1, 0.116119
2170.01, 0.115929
2170.92, 0.115865
2171.83, 0.115611
2172.74, 0.115865
2173.65, 0.116247
2174.56, 0.116628
2175.47, 0.116755
2176.39, 0.116628
2177.3, 0.116691
2178.22, 0.116628
2179.13, 0.116437
2180.05, 0.116374
2180.96, 0.116437
2181.88, 0.116183
2182.8, 0.116247
2183.72, 0.116437
2184.64, 0.116755
2185.56, 0.116819
2186.48, 0.116882
2187.41, 0.116882
2188.33, 0.116819
2189.25, 0.116501
2190.18, 0.116247
2191.1, 0.116310
2192.03, 0.116437
2192.96, 0.116628
2193.89, 0.116691
2194.82, 0.116755
2195.74, 0.116564
2196.68, 0.116628
2197.61, 0.116882
2198.54, 0.116755
2199.47, 0.116946
2200.4, 0.116882
2201.34, 0.116819
2202.28, 0.116882
2203.21, 0.116819
2204.15, 0.116691
2205.08, 0.116819
2206.02, 0.117136
2206.96, 0.117391
2207.9, 0.117518
2208.84, 0.117200
2209.78, 0.117009
2210.73, 0.117073
2211.67, 0.117327
2212.61, 0.117391
2213.56, 0.117200
2214.5, 0.117136
2215.45, 0.117073
2216.4, 0.117200
2217.35, 0.116819
2218.3, 0.116819
2219.24, 0.117009
2220.2, 0.117136
2221.15, 0.117073
2222.1, 0.117073
2223.05, 0.117073
2224.0, 0.117263
2224.96, 0.117708
2225.91, 0.117708
2226.87, 0.117200
2227.83, 0.116946
2228.79, 0.117136
2229.74, 0.117263
2230.7, 0.117327
2231.66, 0.117454
2232.63, 0.117136
2233.59, 0.116946
2234.55, 0.117200
2235.51, 0.117200
2236.48, 0.117581
2237.44, 0.118090
2238.41, 0.117963
2239.38, 0.117581
2240.34, 0.117200
2241.31, 0.116946
2242.28, 0.117581
2243.25, 0.117835
2244.22, 0.117518
2245.19, 0.117136
2246.17, 0.117200
2247.14, 0.117518
2248.12, 0.117263
2249.09, 0.117136
2250.07, 0.117327
2251.04, 0.117899
2252.02, 0.117963
2253.0, 0.117454
2253.98, 0.117136
2254.96, 0.117200
2255.94, 0.117136
2256.92, 0.117327
2257.91, 0.117581
2258.89, 0.117518
2259.88, 0.117391
2260.86, 0.117263
2261.85, 0.117581
2262.83, 0.117708
2263.82, 0.117645
2264.81, 0.117772
2265.8, 0.117899
2266.79, 0.117963
2267.78, 0.117772
2268.78, 0.117899
2269.77, 0.117708
2270.76, 0.117645
2271.76, 0.118026
2272.75, 0.117899
2273.75, 0.117645
2274.75, 0.117518
2275.75, 0.117581
2276.75, 0.117454
2277.75, 0.117708
2278.75, 0.117963
2279.75, 0.117772
2280.75, 0.118090
2281.76, 0.118280
2282.76, 0.118026
2283.77, 0.118026
2284.77, 0.118344
2285.78, 0.118471
2286.79, 0.118471
2287.8, 0.118026
2288.81, 0.117835
2289.82, 0.118026
2290.83, 0.117963
2291.84, 0.118026
2292.86, 0.118217
2293.87, 0.118280
2294.89, 0.118344
2295.91, 0.118026
2296.92, 0.117899
2297.94, 0.118090
2298.96, 0.118153
2299.98, 0.118344
2301.0, 0.118217
2302.02, 0.118090
2303.04, 0.118090
2304.07, 0.118344
2305.09, 0.118471
2306.12, 0.118662
2307.15, 0.118598
2308.17, 0.118471
2309.2, 0.118153
2310.23, 0.118280
2311.26, 0.118598
2312.29, 0.118662
2313.32, 0.118789
2314.35, 0.118598
2315.39, 0.118662
2316.42, 0.118662
2317.46, 0.118535
2318.5, 0.118662
2319.53, 0.118725
2320.57, 0.118662
2321.61, 0.118852
2322.65, 0.119107
2323.69, 0.119234
2324.73, 0.119170
2325.78, 0.119107
2326.82, 0.119043
2327.86, 0.118916
2328.91, 0.118598
2329.96, 0.118916
2331.01, 0.119170
2332.05, 0.119043
2333.1, 0.118979
2334.15, 0.119234
2335.21, 0.119234
2336.26, 0.119424
2337.31, 0.119361
2338.36, 0.118916
2339.42, 0.118979
2340.48, 0.119297
2341.53, 0.119043
2342.59, 0.118916
2343.65, 0.118979
2344.71, 0.118979
2345.77, 0.119043
2346.83, 0.119107
2347.9, 0.119043
2348.96, 0.119234
2350.02, 0.119679
2351.09, 0.120060
2352.16, 0.120060
2353.23, 0.119806
2354.29, 0.119615
2355.36, 0.119552
2356.43, 0.119424
2357.51, 0.119869
2358.58, 0.119933
2359.65, 0.119679
2360.73, 0.119742
2361.8, 0.119996
2362.88, 0.119742
2363.96, 0.119615
2365.03, 0.119806
2366.11, 0.119933
2367.19, 0.120060
2368.27, 0.120187
2369.36, 0.120060
2370.44, 0.120060
2371.53, 0.120060
2372.61, 0.120314
2373.7, 0.120441
2374.78, 0.120314
2375.87, 0.120441
2376.96, 0.120632
2378.05, 0.120505
2379.14, 0.120378
2380.24, 0.120378
2381.33, 0.120441
2382.42, 0.120060
2383.52, 0.119996
2384.61, 0.120187
2385.71, 0.120251
2386.81, 0.120251
2387.91, 0.120441
2389.01, 0.120505
2390.11, 0.120505
2391.22, 0.120505
2392.32, 0.120314
2393.42, 0.120314
2394.53, 0.120505
2395.64, 0.120696
2396.74, 0.120632
2397.85, 0.120632
2398.96, 0.120696
2400.07, 0.120505
2401.18, 0.120441
2402.3, 0.120505
2403.41, 0.120441
2404.52, 0.120441
2405.64, 0.120696
2406.76, 0.120568
2407.88, 0.120378
2408.99, 0.120568
2410.11, 0.120823
2411.23, 0.120950
2412.36, 0.120886
2413.48, 0.120950
2414.6, 0.120886
2415.73, 0.120950
2416.85, 0.121140
2417.98, 0.121013
2419.11, 0.120886
2420.24, 0.120950
2421.37, 0.121140
2422.5, 0.120696
2423.64, 0.120568
2424.77, 0.120759
2425.9, 0.120886
2427.04, 0.120886
2428.18, 0.121204
2429.31, 0.121140
2430.45, 0.120886
2431.59, 0.121013
2432.73, 0.121204
2433.88, 0.121204
2435.02, 0.121204
2436.16, 0.121013
2437.31, 0.121013
2438.45, 0.120950
2439.6, 0.120823
2440.75, 0.120823
2441.9, 0.120886
2443.05, 0.121013
2444.2, 0.121204
2445.35, 0.121395
2446.51, 0.121522
2447.67, 0.121585
2448.82, 0.121522
2449.98, 0.121331
2451.14, 0.121204
2452.3, 0.121331
2453.46, 0.121458
2454.62, 0.121395
2455.78, 0.121331
2456.94, 0.121204
2458.11, 0.121204
2459.28, 0.121077
2460.44, 0.120886
2461.61, 0.121013
2462.78, 0.121204
2463.95, 0.121204
2465.12, 0.121268
2466.3, 0.121395
2467.47, 0.121458
2468.65, 0.121395
2469.82, 0.121522
2471.0, 0.121458
2472.18, 0.121331
2473.36, 0.121395
2474.54, 0.121458
2475.72, 0.121522
2476.9, 0.121395
2478.08, 0.121458
2479.27, 0.121649
2480.46, 0.121458
2481.64, 0.121077
2482.83, 0.121077
2484.02, 0.121331
2485.21, 0.121649
2486.4, 0.121522
2487.6, 0.121395
2488.79, 0.121776
2489.99, 0.121585
2491.18, 0.121204
2492.38, 0.121204
2493.58, 0.121331
2494.78, 0.121712
2495.98, 0.121585
2497.18, 0.121331
2498.39, 0.121522
2499.59, 0.121649
2500.8, 0.121649
2502.01, 0.121712
2503.21, 0.121776
2504.42, 0.121776
2505.63, 0.121585
2506.84, 0.121585
2508.06, 0.121776
2509.27, 0.121776
2510.49, 0.121712
2511.7, 0.121585
2512.92, 0.121522
2514.14, 0.121522
2515.36, 0.121585
2516.58, 0.121712
2517.8, 0.121649
2519.03, 0.121776
2520.25, 0.122030
2521.48, 0.122030
2522.7, 0.121712
2523.93, 0.121522
2525.16, 0.121649
2526.39, 0.121649
2527.62, 0.121840
2528.86, 0.121840
2530.09, 0.121522
2531.33, 0.121585
2532.56, 0.121649
2533.8, 0.121712
2535.04, 0.121395
2536.28, 0.121204
2537.52, 0.121649
2538.76, 0.122030
2540.01, 0.122030
2541.25, 0.121840
2542.5, 0.121395
2543.75, 0.121522
2544.99, 0.121967
2546.24, 0.122157
2547.49, 0.122157
2548.75, 0.122539
2550.0, 0.122348
2551.26, 0.121967
2552.51, 0.121776
2553.77, 0.122221
2555.03, 0.122920
2556.29, 0.123174
2557.55, 0.123174
2558.81, 0.122729
2560.08, 0.121903
2561.34, 0.121077
2562.61, 0.121140
2563.88, 0.121712
2565.14, 0.122856
2566.41, 0.123492
2567.68, 0.123111
2568.96, 0.122284
2570.23, 0.122539
2571.51, 0.123111
2572.78, 0.121840
2574.06, 0.122094
2575.34, 0.122666
2576.62, 0.122221
2577.9, 0.122920
2579.18, 0.123301
2580.47, 0.122856
2581.75, 0.122856
2583.04, 0.121585
2584.32, 0.121840
2585.61, 0.123047
2586.9, 0.122412
2588.2, 0.122475
2589.49, 0.123111
2590.78, 0.123746
2592.08, 0.123174
2593.37, 0.119996
2594.67, 0.117518
2595.97, 0.120187
2597.27, 0.123111
2598.57, 0.124191
2599.88, 0.124064
2601.18, 0.123301
2602.49, 0.122920
2603.79, 0.122157
2605.1, 0.121077
2606.41, 0.122157
2607.72, 0.123111
2609.03, 0.123301
2610.35, 0.123683
2611.66, 0.124191
2612.98, 0.124191
2614.3, 0.124255
2615.62, 0.122602
2616.94, 0.121712
2618.26, 0.122856
2619.58, 0.122412
2620.91, 0.122793
2622.23, 0.124573
2623.56, 0.125081
2624.89, 0.124318
2626.22, 0.122920
2627.55, 0.123619
2628.88, 0.123365
2630.21, 0.122030
2631.55, 0.123238
2632.89, 0.124001
2634.22, 0.124382
2635.56, 0.125208
2636.9, 0.125462
2638.25, 0.125717
2639.59, 0.125526
2640.93, 0.125081
2642.28, 0.125017
2643.63, 0.125145
2644.98, 0.124636
2646.33, 0.124827
2647.68, 0.125399
2649.03, 0.125653
2650.39, 0.125399
2651.74, 0.124445
2653.1, 0.124382
2654.46, 0.124763
2655.82, 0.124954
2657.18, 0.125399
2658.54, 0.124890
2659.9, 0.124636
2661.27, 0.124890
2662.64, 0.124890
2664.01, 0.122729
2665.38, 0.121077
2666.74, 0.121331
2668.12, 0.122602
2669.49, 0.120823
2670.87, 0.121077
2672.24, 0.124128
2673.62, 0.124700
2675.0, 0.123492
2676.38, 0.122221
2677.76, 0.122348
2679.15, 0.123174
2680.54, 0.124700
2681.92, 0.124890
2683.31, 0.124636
2684.7, 0.124827
2686.09, 0.124763
2687.48, 0.124890
2688.88, 0.125272
2690.27, 0.125589
2691.67, 0.124890
2693.07, 0.123365
2694.47, 0.123365
2695.87, 0.124318
2697.27, 0.125272
2698.67, 0.125717
2700.08, 0.125208
2701.49, 0.125017
2702.9, 0.125589
2704.31, 0.125717
2705.72, 0.125653
2707.13, 0.125017
2708.54, 0.123873
2709.96, 0.122602
2711.38, 0.123111
2712.8, 0.125081
2714.22, 0.125653
2715.64, 0.125589
2717.06, 0.125017
2718.49, 0.123746
2719.91, 0.121395
2721.34, 0.122157
2722.77, 0.122729
2724.2, 0.121903
2725.63, 0.123238
2727.07, 0.124763
2728.5, 0.124954
2729.94, 0.125017
2731.38, 0.124954
2732.82, 0.124318
2734.26, 0.123111
2735.7, 0.123556
2737.15, 0.123556
2738.59, 0.121458
2740.04, 0.120505
2741.49, 0.121776
2742.94, 0.123492
2744.39, 0.124064
2745.84, 0.124001
2747.3, 0.123810
2748.76, 0.123746
2750.21, 0.123492
2751.67, 0.123047
2753.14, 0.122284
2754.6, 0.120124
2756.06, 0.120378
2757.53, 0.122475
2759.0, 0.123238
2760.46, 0.122602
2761.94, 0.121331
2763.41, 0.121268
2764.88, 0.121840
2766.36, 0.121649
2767.83, 0.121522
2769.31, 0.121331
2770.79, 0.120886
2772.27, 0.121204
2773.76, 0.121712
2775.24, 0.121649
2776.73, 0.121268
2778.22, 0.121204
2779.71, 0.121077
2781.2, 0.120886
2782.69, 0.121013
2784.18, 0.120886
2785.68, 0.119933
2787.18, 0.119297
2788.68, 0.119996
2790.18, 0.120823
2791.68, 0.121077
2793.19, 0.120950
2794.69, 0.120823
2796.2, 0.120759
2797.71, 0.120632
2799.22, 0.120632
2800.73, 0.120124
2802.24, 0.119170
2803.76, 0.119234
2805.28, 0.119933
2806.8, 0.120251
2808.32, 0.120187
2809.84, 0.120251
2811.36, 0.120314
2812.89, 0.120187
2814.42, 0.119933
2815.94, 0.119869
2817.48, 0.119806
2819.01, 0.119361
2820.54, 0.119297
2822.08, 0.119424
2823.61, 0.119552
2825.15, 0.119679
2826.69, 0.119679
2828.23, 0.119679
2829.78, 0.119615
2831.32, 0.119424
2832.87, 0.119297
2834.42, 0.119170
2835.97, 0.119234
2837.52, 0.119297
2839.08, 0.119424
2840.63, 0.119424
2842.19, 0.119552
2843.75, 0.119679
2845.31, 0.119679
2846.87, 0.119869
2848.44, 0.119806
2850.0, 0.119488
2851.57, 0.119424
2853.14, 0.119361
2854.71, 0.119424
2856.28, 0.119552
2857.86, 0.119869
2859.43, 0.119869
2861.01, 0.119552
2862.59, 0.119297
2864.17, 0.119297
2865.76, 0.119297
2867.34, 0.119297
2868.93, 0.119234
2870.52, 0.119043
2872.11, 0.118979
2873.7, 0.119043
2875.29, 0.118979
2876.89, 0.118789
2878.49, 0.118789
2880.08, 0.118789
2881.69, 0.118662
2883.29, 0.118471
2884.89, 0.118344
2886.5, 0.118344
2888.11, 0.118217
2889.72, 0.118153
2891.33, 0.118090
2892.94, 0.118090
2894.56, 0.118090
2896.17, 0.118090
2897.79, 0.118026
2899.42, 0.117772
2901.04, 0.117899
2902.66, 0.118090
2904.29, 0.118153
2905.92, 0.118217
2907.55, 0.118280
2909.18, 0.118344
2910.81, 0.118535
2912.45, 0.118471
2914.08, 0.118407
2915.72, 0.118407
2917.36, 0.118471
2919.01, 0.118535
2920.65, 0.118598
2922.3, 0.118662
2923.94, 0.118662
2925.59, 0.118598
2927.25, 0.118662
2928.9, 0.118789
2930.56, 0.118852
2932.21, 0.118725
2933.87, 0.118662
2935.53, 0.118852
2937.2, 0.118979
2938.86, 0.118979
2940.53, 0.119107
2942.2, 0.119234
2943.87, 0.119297
2945.54, 0.119297
2947.22, 0.119170
2948.89, 0.119297
2950.57, 0.119361
2952.25, 0.119234
2953.93, 0.119234
2955.62, 0.119361
2957.3, 0.119297
2958.99, 0.119424
2960.68, 0.119615
2962.37, 0.119552
2964.07, 0.119679
2965.76, 0.119742
2967.46, 0.119933
2969.16, 0.119869
2970.86, 0.119806
2972.56, 0.119679
2974.27, 0.119615
2975.98, 0.119679
2977.69, 0.119869
2979.4, 0.119869
2981.11, 0.119869
2982.83, 0.119679
2984.54, 0.119552
2986.26, 0.119615
2987.98, 0.119742
2989.71, 0.119806
2991.43, 0.119806
2993.16, 0.119742
2994.89, 0.119806
2996.62, 0.119869
2998.35, 0.119996
3000.09, 0.119996
3001.83, 0.119933
3003.57, 0.119933
3005.31, 0.119996
3007.05, 0.120124
3008.79, 0.120060
3010.54, 0.119933
3012.29, 0.119996
3014.04, 0.120187
3015.8, 0.120187
3017.55, 0.120124
3019.31, 0.120187
3021.07, 0.120187
3022.83, 0.120060
3024.59, 0.120124
3026.36, 0.120314
3028.13, 0.120251
3029.9, 0.120251
3031.67, 0.120187
3033.44, 0.120060
3035.22, 0.119996
3037.0, 0.119933
3038.78, 0.119996
3040.56, 0.120187
3042.34, 0.120251
3044.13, 0.120251
3045.92, 0.120251
3047.71, 0.120124
3049.5, 0.120060
3051.3, 0.119869
3053.09, 0.119996
3054.89, 0.120060
3056.69, 0.119996
3058.5, 0.119869
3060.3, 0.119806
3062.11, 0.119806
3063.92, 0.119869
3065.73, 0.119869
3067.55, 0.119869
3069.36, 0.119933
3071.18, 0.119869
3073.0, 0.119869
3074.82, 0.119933
3076.65, 0.119869
3078.48, 0.119679
3080.31, 0.119679
3082.14, 0.119615
3083.97, 0.119552
3085.8, 0.119615
3087.64, 0.119806
3089.48, 0.119742
3091.33, 0.119488
3093.17, 0.119488
3095.02, 0.119488
3096.87, 0.119361
3098.72, 0.119234
3100.57, 0.119424
3102.43, 0.119424
3104.28, 0.119361
3106.14, 0.119297
3108.01, 0.119424
3109.87, 0.119424
3111.74, 0.119424
3113.61, 0.119488
3115.48, 0.119615
3117.35, 0.119742
3119.23, 0.119679
3121.1, 0.119552
3122.98, 0.119615
3124.87, 0.119679
3126.75, 0.119806
3128.64, 0.119869
3130.53, 0.120060
3132.42, 0.119933
3134.31, 0.119806
3136.21, 0.119869
3138.11, 0.119869
3140.01, 0.119933
3141.91, 0.119869
3143.82, 0.119869
3145.73, 0.120060
3147.64, 0.120124
3149.55, 0.120124
3151.46, 0.120124
3153.38, 0.119996
3155.3, 0.119869
3157.22, 0.120060
3159.14, 0.120187
3161.07, 0.120314
3163.0, 0.120441
3164.93, 0.120378
3166.86, 0.120314
3168.8, 0.120314
3170.74, 0.120568
3172.68, 0.120696
3174.62, 0.120759
3176.56, 0.120886
3178.51, 0.120823
3180.46, 0.120823
3182.42, 0.120886
3184.37, 0.120886
3186.33, 0.120886
3188.29, 0.121013
3190.25, 0.121013
3192.21, 0.121013
3194.18, 0.121077
3196.15, 0.121204
3198.12, 0.121268
3200.09, 0.121395
3202.07, 0.121331
3204.05, 0.121331
3206.03, 0.121395
3208.02, 0.121331
3210.0, 0.121331
3211.99, 0.121331
3213.98, 0.121395
3215.98, 0.121522
3217.97, 0.121585
3219.97, 0.121585
3221.97, 0.121458
3223.98, 0.121458
3225.98, 0.121522
3227.99, 0.121585
3230.0, 0.121649
3232.02, 0.121585
3234.03, 0.121649
3236.05, 0.121776
3238.07, 0.121776
3240.1, 0.121840
3242.12, 0.121840
3244.15, 0.121840
3246.18, 0.121840
3248.22, 0.121776
3250.25, 0.121712
3252.29, 0.121712
3254.33, 0.121776
3256.38, 0.121776
3258.43, 0.121585
3260.47, 0.121585
3262.53, 0.121776
3264.58, 0.121776
3266.64, 0.121712
3268.7, 0.121649
3270.76, 0.121585
3272.82, 0.121585
3274.89, 0.121649
3276.96, 0.121712
3279.04, 0.121585
3281.11, 0.121458
3283.19, 0.121458
3285.27, 0.121522
3287.35, 0.121395
3289.44, 0.121204
3291.53, 0.121077
3293.62, 0.120886
3295.71, 0.120505
3297.81, 0.120124
3299.91, 0.119806
3302.01, 0.119679
3304.11, 0.119361
3306.22, 0.119170
3308.33, 0.119107
3310.44, 0.118979
3312.56, 0.118916
3314.68, 0.119043
3316.8, 0.119107
3318.92, 0.119043
3321.05, 0.118979
3323.18, 0.118979
3325.31, 0.118916
3327.44, 0.118725
3329.58, 0.118662
3331.72, 0.118598
3333.86, 0.118344
3336.01, 0.118217
3338.16, 0.118026
3340.31, 0.117772
3342.46, 0.117454
3344.61, 0.117136
3346.77, 0.117073
3348.94, 0.117009
3351.1, 0.116946
3353.27, 0.116882
3355.44, 0.117073
3357.61, 0.117327
3359.79, 0.117518
3361.97, 0.117581
3364.15, 0.117772
3366.33, 0.117963
3368.52, 0.118026
3370.71, 0.118090
3372.9, 0.118217
3375.1, 0.118280
3377.3, 0.118280
3379.5, 0.118344
3381.71, 0.118280
3383.91, 0.118344
3386.12, 0.118471
3388.34, 0.118471
3390.55, 0.118407
3392.77, 0.118471
3394.99, 0.118535
3397.22, 0.118471
3399.45, 0.118407
3401.68, 0.118471
3403.91, 0.118535
3406.15, 0.118598
3408.39, 0.118725
3410.63, 0.118916
3412.87, 0.118916
3415.12, 0.118979
3417.37, 0.119170
3419.63, 0.119234
3421.88, 0.119043
3424.14, 0.119043
3426.41, 0.119043
3428.67, 0.119107
3430.94, 0.118979
3433.21, 0.118916
3435.49, 0.119043
3437.77, 0.119043
3440.05, 0.118916
3442.33, 0.118852
3444.62, 0.118789
3446.91, 0.118852
3449.2, 0.118916
3451.5, 0.118789
3453.8, 0.118789
3456.1, 0.118789
3458.41, 0.118852
3460.72, 0.119043
3463.03, 0.119170
3465.34, 0.119170
3467.66, 0.119107
3469.98, 0.119043
3472.31, 0.118852
3474.63, 0.118725
3476.96, 0.118852
3479.3, 0.118979
3481.64, 0.119043
3483.97, 0.119170
3486.32, 0.119488
3488.66, 0.119552
3491.01, 0.119806
3493.36, 0.120124
3495.72, 0.120505
3498.08, 0.120696
3500.44, 0.120886
3502.81, 0.121077
3505.18, 0.121331
3507.55, 0.121776
3509.92, 0.122094
3512.3, 0.122284
3514.68, 0.122666
3517.06, 0.122984
3519.45, 0.123429
3521.84, 0.123873
3524.24, 0.124318
3526.64, 0.124890
3529.04, 0.125399
3531.44, 0.125780
3533.85, 0.126098
3536.26, 0.126479
3538.67, 0.126861
3541.09, 0.127178
3543.51, 0.127306
3545.93, 0.127369
3548.36, 0.127496
3550.79, 0.127750
3553.22, 0.128005
3555.66, 0.128132
3558.1, 0.128259
3560.54, 0.128386
3562.99, 0.128577
3565.44, 0.128640
3567.9, 0.128767
3570.35, 0.128958
3572.81, 0.129085
3575.28, 0.129149
3577.75, 0.129212
3580.22, 0.129466
3582.69, 0.129721
3585.17, 0.129911
3587.65, 0.130038
3590.14, 0.129975
3592.62, 0.130166
3595.11, 0.130420
3597.61, 0.130611
3600.11, 0.130611
3602.61, 0.130611
3605.11, 0.130674
3607.62, 0.130738
3610.14, 0.130928
3612.65, 0.130928
3615.17, 0.130992
3617.69, 0.131055
3620.22, 0.131119
3622.75, 0.131310
3625.28, 0.131310
3627.82, 0.131310
3630.36, 0.131310
3632.9, 0.131310
3635.45, 0.131373
3638.0, 0.131437
3640.56, 0.131564
3643.12, 0.131691
3645.68, 0.131755
3648.24, 0.131755
3650.81, 0.131691
3653.39, 0.131691
3655.96, 0.131691
3658.54, 0.131627
3661.13, 0.131627
3663.71, 0.131755
3666.3, 0.131818
3668.9, 0.131882
3671.5, 0.131945
3674.1, 0.131882
3676.7, 0.131945
3679.31, 0.132072
3681.93, 0.132072
3684.54, 0.132199
3687.17, 0.132327
3689.79, 0.132327
3692.42, 0.132263
3695.05, 0.132327
3697.69, 0.132263
3700.32, 0.132263
3702.97, 0.132199
3705.61, 0.132199
3708.27, 0.132263
3710.92, 0.132263
3713.58, 0.132199
3716.24, 0.132199
3718.91, 0.132327
3721.58, 0.132390
3724.25, 0.132454
3726.93, 0.132517
3729.61, 0.132581
3732.29, 0.132517
3734.98, 0.132454
3737.67, 0.132390
3740.37, 0.132390
3743.07, 0.132327
3745.78, 0.132072
3748.49, 0.131945
3751.2, 0.131882
3753.91, 0.131818
3756.63, 0.131627
3759.36, 0.131373
3762.09, 0.131246
3764.82, 0.131119
3767.55, 0.130928
3770.29, 0.130801
3773.04, 0.130547
3775.78, 0.130229
3778.54, 0.130038
3781.29, 0.129848
3784.05, 0.129721
3786.82, 0.129530
3789.59, 0.129276
3792.36, 0.128958
3795.13, 0.128640
3797.92, 0.128195
3800.7, 0.127941
3803.49, 0.127750
3806.28, 0.127306
3809.08, 0.127115
3811.88, 0.127115
3814.68, 0.127051
3817.49, 0.127115
3820.31, 0.127178
3823.12, 0.127242
3825.94, 0.127306
3828.77, 0.127242
3831.6, 0.127178
3834.43, 0.127306
3837.27, 0.127433
3840.11, 0.127433
3842.96, 0.127242
3845.81, 0.127306
3848.67, 0.127306
3851.53, 0.127178
3854.39, 0.126988
3857.26, 0.126797
3860.13, 0.126606
3863.01, 0.126352
3865.89, 0.126352
3868.77, 0.126352
3871.66, 0.126352
3874.55, 0.126289
3877.45, 0.126098
3880.35, 0.126098
3883.26, 0.126161
3886.17, 0.126034
3889.09, 0.126034
3892.01, 0.126098
3894.93, 0.126161
3897.86, 0.126098
3900.79, 0.125971
3903.73, 0.125844
3906.67, 0.125780
3909.62, 0.125717
3912.57, 0.125653
3915.52, 0.125526
3918.48, 0.125335
3921.45, 0.125208
3924.42, 0.125208
3927.39, 0.125145
3930.37, 0.124954
3933.35, 0.124890
3936.34, 0.124763
3939.33, 0.124636
3942.32, 0.124509
3945.32, 0.124255
3948.33, 0.124064
3951.34, 0.123937
3954.35, 0.123810
3957.37, 0.123492
3960.39, 0.123238
3963.42, 0.123174
3966.45, 0.123238
3969.49, 0.123238
3972.53, 0.123301
3975.58, 0.123429
3978.63, 0.123619
3981.68, 0.123937
3984.75, 0.124255
3987.81, 0.124445
3990.88, 0.124827
3993.95, 0.125272
3997.03, 0.125653
4000.12, 0.126098
4003.21, 0.126670
4006.3, 0.127306
4009.4, 0.127814
4012.5, 0.128322
4015.61, 0.128831
4018.72, 0.129149
4021.84, 0.129466
4024.96, 0.129784
4028.09, 0.130229
4031.22, 0.130674
4034.36, 0.131119
4037.5, 0.131627
4040.65, 0.132009
4043.8, 0.132390
4046.96, 0.132708
4050.12, 0.133089
4053.29, 0.133407
4056.46, 0.133725
4059.64, 0.133979
4062.82, 0.134297
4066.0, 0.134551
4069.19, 0.134742
4072.39, 0.134996
4075.59, 0.135187
4078.8, 0.135314
4082.01, 0.135504
4085.23, 0.135759
4088.45, 0.135886
4091.68, 0.135949
4094.91, 0.136140
4098.15, 0.136394
4101.39, 0.136585
4104.63, 0.136648
4107.89, 0.136585
4111.14, 0.136648
4114.41, 0.136712
4117.67, 0.136839
4120.95, 0.136966
4124.23, 0.137157
4127.51, 0.137284
4130.8, 0.137348
4134.09, 0.137411
4137.39, 0.137475
4140.7, 0.137538
4144.01, 0.137602
4147.32, 0.137602
4150.64, 0.137729
4153.97, 0.137729
4157.3, 0.137856
4160.64, 0.137983
4163.98, 0.138237
4167.33, 0.138301
4170.68, 0.138237
4174.04, 0.138365
4177.4, 0.138492
4180.77, 0.138492
4184.14, 0.138619
4187.52, 0.138682
4190.91, 0.138746
4194.3, 0.138746
4197.69, 0.138746
4201.1, 0.138746
4204.5, 0.138873
4207.92, 0.138809
4211.34, 0.138682
4214.76, 0.138555
4218.19, 0.138555
4221.62, 0.138428
4225.06, 0.138428
4228.51, 0.138301
4231.96, 0.138110
4235.42, 0.138174
4238.88, 0.138365
4242.35, 0.138492
4245.83, 0.138619
4249.31, 0.138809
4252.79, 0.139191
4256.28, 0.139254
4259.78, 0.139191
4263.29, 0.139127
4266.79, 0.139000
4270.31, 0.138937
4273.83, 0.138873
4277.35, 0.138809
4280.89, 0.138873
4284.42, 0.139000
4287.97, 0.139064
4291.52, 0.139064
4295.07, 0.139127
4298.63, 0.139191
4302.2, 0.139254
4305.78, 0.139318
4309.35, 0.139445
4312.94, 0.139509
4316.53, 0.139572
4320.13, 0.139699
4323.73, 0.139826
4327.34, 0.139953
4330.96, 0.140017
4334.58, 0.140144
4338.21, 0.140271
4341.84, 0.140208
4345.48, 0.140398
4349.12, 0.140525
4352.77, 0.140589
4356.43, 0.140716
4360.1, 0.140780
4363.76, 0.140843
4367.44, 0.140907
4371.12, 0.141097
4374.81, 0.141161
4378.51, 0.141161
4382.21, 0.141161
4385.92, 0.141161
4389.63, 0.141225
4393.35, 0.141161
4397.08, 0.141161
4400.81, 0.141097
4404.55, 0.141097
4408.29, 0.141161
4412.04, 0.141225
4415.8, 0.141288
4419.57, 0.141161
4423.34, 0.141034
4427.12, 0.141097
4430.9, 0.141161
4434.69, 0.141161
4438.49, 0.141097
4442.29, 0.141161
4446.1, 0.141161
4449.92, 0.141161
4453.74, 0.141097
4457.57, 0.141161
4461.41, 0.141288
4465.25, 0.141479
4469.1, 0.141542
4472.95, 0.141479
4476.82, 0.141479
4480.69, 0.141542
4484.56, 0.141669
4488.44, 0.141669
4492.33, 0.141542
4496.23, 0.141606
4500.13, 0.141606
4504.04, 0.141542
4507.96, 0.141542
4511.88, 0.141606
4515.81, 0.141669
4519.75, 0.141797
4523.69, 0.141733
4527.65, 0.141733
4531.6, 0.141797
4535.57, 0.141860
4539.54, 0.141797
4543.52, 0.141860
4547.5, 0.141924
4551.5, 0.141987
4555.5, 0.141987
4559.5, 0.142051
4563.52, 0.142114
4567.54, 0.142051
4571.56, 0.142051
4575.6, 0.142178
4579.64, 0.142178
4583.69, 0.142178
4587.75, 0.142114
4591.81, 0.142114
4595.88, 0.142051
4599.96, 0.141987
4604.04, 0.141860
4608.14, 0.141924
4612.24, 0.141733
4616.34, 0.141733
4620.46, 0.141669
4624.58, 0.141669
4628.71, 0.141542
4632.84, 0.141415
4636.99, 0.141161
4641.14, 0.141034
4645.3, 0.140843
4649.47, 0.140780
4653.64, 0.140525
4657.82, 0.140335
4662.01, 0.140398
4666.21, 0.140589
4670.41, 0.140843
4674.62, 0.141034
4678.84, 0.141161
4683.07, 0.141352
4687.3, 0.141733
4691.54, 0.142242
4695.79, 0.142369
4700.05, 0.142750
4704.31, 0.143004
4708.59, 0.143386
4712.87, 0.143576
4717.15, 0.144021
4721.45, 0.144148
4725.76, 0.144466
4730.07, 0.144530
4734.39, 0.144720
4738.72, 0.144720
4743.05, 0.144911
4747.39, 0.144974
4751.75, 0.145038
4756.1, 0.145102
4760.47, 0.145165
4764.85, 0.145356
4769.23, 0.145292
4773.62, 0.145483
4778.02, 0.145419
4782.43, 0.145483
4786.85, 0.145419
4791.27, 0.145547
4795.7, 0.145547
4800.14, 0.145674
4804.59, 0.145737
4809.05, 0.145674
4813.51, 0.145801
4817.99, 0.145801
4822.47, 0.145864
4826.96, 0.145864
4831.46, 0.145991
4835.96, 0.145991
4840.48, 0.145864
4845.0, 0.145991
4849.54, 0.146055
4854.08, 0.146119
4858.63, 0.146055
4863.18, 0.146055
4867.75, 0.146182
4872.33, 0.146309
4876.91, 0.146309
4881.5, 0.146309
4886.1, 0.146373
4890.71, 0.146373
4895.33, 0.146436
4899.96, 0.146500
4904.59, 0.146563
4909.24, 0.146627
4913.89, 0.146627
4918.55, 0.146563
4923.22, 0.146563
4927.9, 0.146627
4932.59, 0.146818
4937.29, 0.146818
4942.0, 0.146881
4946.71, 0.146945
4951.44, 0.146881
4956.17, 0.146818
4960.91, 0.146881
4965.67, 0.146945
4970.43, 0.147008
4975.2, 0.147072
4979.98, 0.147072
4984.76, 0.147135
4989.56, 0.147135
4994.37, 0.147072
4999.18, 0.147072
5004.01, 0.147135
5008.84, 0.147263
5013.69, 0.147135
5018.54, 0.146945
5023.4, 0.147072
5028.28, 0.147199
5033.16, 0.147263
5038.05, 0.147390
5042.95, 0.147326
5047.86, 0.147326
5052.78, 0.147135
5057.71, 0.147008
5062.65, 0.146881
5067.6, 0.146881
5072.56, 0.147008
5077.53, 0.147008
5082.5, 0.146945
5087.49, 0.147008
5092.49, 0.146945
5097.5, 0.146691
5102.51, 0.146691
5107.54, 0.147008
5112.58, 0.147326
5117.62, 0.147517
5122.68, 0.147707
5127.75, 0.147707
5132.82, 0.147644
5137.91, 0.147644
5143.01, 0.147517
5148.12, 0.147326
5153.23, 0.147644
5158.36, 0.147898
5163.5, 0.147962
5168.65, 0.147962
5173.81, 0.147898
5178.98, 0.147835
5184.15, 0.147835
5189.34, 0.147835
5194.54, 0.147517
5199.75, 0.147390
5204.98, 0.147580
5210.21, 0.147199
5215.45, 0.147072
5220.7, 0.147644
5225.96, 0.147771
5231.23, 0.147707
5236.52, 0.147580
5241.81, 0.147580
5247.12, 0.147707
5252.44, 0.147707
5257.76, 0.147644
5263.1, 0.147644
5268.45, 0.147517
5273.81, 0.147326
5279.18, 0.147326
5284.56, 0.147199
5289.95, 0.146818
5295.36, 0.146945
5300.77, 0.147135
5306.2, 0.147135
5311.63, 0.147199
5317.08, 0.147199
5322.54, 0.147072
5328.01, 0.147072
5333.49, 0.147008
5338.98, 0.146945
5344.49, 0.146309
5350.0, 0.145483
5355.53, 0.145928
5361.07, 0.146563
5366.62, 0.146691
5372.18, 0.146500
5377.75, 0.146309
5383.34, 0.146246
5388.93, 0.146182
5394.54, 0.145991
5400.16, 0.145928
5405.79, 0.145674
5411.44, 0.145165
5417.09, 0.143894
5422.76, 0.143004
5428.43, 0.144148
5434.12, 0.144466
5439.83, 0.144085
5445.54, 0.143830
5451.26, 0.143576
5457.0, 0.142559
5462.75, 0.141225
5468.52, 0.141097
5474.29, 0.140907
5480.08, 0.140462
5485.88, 0.140843
5491.69, 0.140780
5497.51, 0.140716
5503.35, 0.140525
5509.2, 0.140398
5515.06, 0.140017
5520.93, 0.139763
5526.82, 0.139636
5532.71, 0.139636
5538.63, 0.139381
5544.55, 0.138619
5550.49, 0.137411
5556.44, 0.137030
5562.4, 0.137220
5568.37, 0.137220
5574.36, 0.136140
5580.36, 0.136140
5586.37, 0.138237
5592.4, 0.139699
5598.44, 0.140081
5604.49, 0.140653
5610.56, 0.141225
5616.63, 0.141415
5622.73, 0.142051
5628.83, 0.142178
5634.95, 0.141034
5641.08, 0.139572
5647.23, 0.140653
5653.39, 0.141479
5659.56, 0.142178
5665.74, 0.142750
5671.94, 0.141733
5678.15, 0.141733
5684.38, 0.142305
5690.62, 0.141924
5696.87, 0.142496
5703.14, 0.142178
5709.42, 0.140653
5715.72, 0.140970
5722.03, 0.141797
5728.35, 0.142242
5734.69, 0.142178
5741.03, 0.141797
5747.4, 0.141161
5753.78, 0.142051
5760.17, 0.140208
5766.58, 0.137983
5773.0, 0.140653
5779.44, 0.142369
5785.88, 0.143068
5792.35, 0.143513
5798.83, 0.143322
5805.32, 0.143449
5811.83, 0.142432
5818.35, 0.139572
5824.89, 0.139254
5831.45, 0.141415
5838.01, 0.143004
5844.59, 0.143703
5851.19, 0.143386
5857.8, 0.142559
5864.43, 0.142051
5871.07, 0.141987
5877.73, 0.138237
5884.4, 0.138682
5891.09, 0.139953
5897.79, 0.139763
5904.5, 0.142941
5911.23, 0.143894
5917.98, 0.143513
5924.75, 0.142877
5931.53, 0.139509
5938.32, 0.138237
5945.13, 0.141860
5951.96, 0.143322
5958.8, 0.143322
5965.65, 0.141415
5972.53, 0.141733
5979.42, 0.142559
5986.32, 0.141352
5993.24, 0.141860
6000.18, 0.143576
6007.13, 0.143068
6014.1, 0.142242
6021.08, 0.143131
6028.09, 0.143576
6035.1, 0.142623
6042.14, 0.137856
6049.19, 0.134170
6056.25, 0.139127
6063.34, 0.141225
6070.44, 0.139509
6077.55, 0.140589
6084.69, 0.143195
6091.84, 0.144021
6099.0, 0.143767
6106.19, 0.141606
6113.39, 0.139826
6120.61, 0.142559
6127.84, 0.144784
6135.09, 0.144593
6142.36, 0.144148
6149.65, 0.144212
6156.95, 0.143640
6164.27, 0.144339
6171.61, 0.145292
6178.97, 0.143449
6186.34, 0.142623
6193.73, 0.145419
6201.14, 0.146754
6208.57, 0.146881
6216.01, 0.146945
6223.47, 0.147326
6230.95, 0.147644
6238.45, 0.147962
6245.97, 0.148152
6253.5, 0.148597
6261.06, 0.148851
6268.63, 0.149042
6276.21, 0.149424
6283.82, 0.149805
6291.45, 0.150186
6299.1, 0.150758
6306.76, 0.151330
6314.44, 0.152029
6322.14, 0.152601
6329.86, 0.153110
6337.6, 0.151584
6345.35, 0.151140
6353.13, 0.154889
6360.92, 0.156415
6368.74, 0.155779
6376.57, 0.157495
6384.43, 0.159148
6392.3, 0.159783
6400.19, 0.158894
6408.1, 0.153555
6416.03, 0.152474
6423.98, 0.157940
6431.95, 0.160419
6439.94, 0.162389
6447.95, 0.163470
6455.98, 0.164105
6464.03, 0.164042
6472.1, 0.162199
6480.19, 0.159974
6488.31, 0.156669
6496.44, 0.156669
6504.59, 0.161118
6512.76, 0.161690
6520.95, 0.160038
6529.16, 0.161118
6537.4, 0.160991
6545.65, 0.159402
6553.92, 0.157877
6562.22, 0.156415
6570.54, 0.153428
6578.88, 0.154000
6587.23, 0.154699
6595.61, 0.154381
6604.02, 0.154635
6612.44, 0.153618
6620.89, 0.152156
6629.35, 0.148025
6637.84, 0.145102
6646.35, 0.148407
6654.88, 0.150631
6663.44, 0.149487
6672.01, 0.147517
6680.61, 0.146119
6689.23, 0.147008
6697.88, 0.147326
6706.54, 0.145419
6715.23, 0.144657
6723.94, 0.145102
6732.67, 0.145483
6741.42, 0.145356
6750.2, 0.144847
6759.0, 0.144530
6767.82, 0.143449
6776.67, 0.142051
6785.54, 0.140144
6794.44, 0.140208
6803.35, 0.142369
6812.29, 0.142559
6821.26, 0.141161
6830.24, 0.140907
6839.25, 0.141733
6848.29, 0.140398
6857.35, 0.136839
6866.43, 0.136267
6875.54, 0.139636
6884.67, 0.140589
6893.82, 0.140462
6903.0, 0.139636
6912.2, 0.139699
6921.43, 0.140017
6930.69, 0.140144
6939.96, 0.140081
6949.27, 0.139000
6958.59, 0.137030
6967.95, 0.138555
6977.33, 0.140081
6986.73, 0.139953
6996.16, 0.140081
7005.61, 0.140653
7015.09, 0.140653
7024.6, 0.140653
7034.13, 0.140017
7043.69, 0.138110
7053.27, 0.138873
7062.88, 0.140271
7072.52, 0.140462
7082.18, 0.140271
7091.87, 0.140081
7101.58, 0.139890
7111.32, 0.139254
7121.09, 0.139064
7130.88, 0.139318
7140.71, 0.138809
7150.56, 0.138746
7160.43, 0.138937
7170.33, 0.138937
7180.27, 0.140271
7190.23, 0.141225
7200.21, 0.141034
7210.23, 0.141288
7220.27, 0.142623
7230.34, 0.143449
7240.44, 0.144085
7250.56, 0.144466
7260.72, 0.144847
7270.9, 0.144784
7281.12, 0.145356
7291.36, 0.146500
7301.63, 0.147135
7311.93, 0.147707
7322.25, 0.148216
7332.61, 0.148025
7343.0, 0.148470
7353.41, 0.149487
7363.86, 0.150186
7374.33, 0.150440
7384.83, 0.150631
7395.37, 0.151012
7405.93, 0.151394
7416.53, 0.151584
7427.15, 0.151839
7437.81, 0.152029
7448.5, 0.152093
7459.22, 0.151902
7469.96, 0.151966
7480.74, 0.152474
7491.55, 0.152983
7502.39, 0.153173
7513.27, 0.153301
7524.17, 0.153555
7535.11, 0.153809
7546.08, 0.153936
7557.08, 0.154000
7568.11, 0.154000
7579.17, 0.153936
7590.27, 0.154063
7601.4, 0.154190
7612.56, 0.154254
7623.76, 0.154381
7634.98, 0.154508
7646.24, 0.154699
7657.54, 0.154953
7668.87, 0.155144
7680.23, 0.155398
7691.62, 0.155589
7703.05, 0.155716
7714.51, 0.155970
7726.01, 0.156351
7737.54, 0.156733
7749.11, 0.156860
7760.71, 0.156987
7772.35, 0.157178
7784.02, 0.157368
7795.72, 0.157559
7807.46, 0.157877
7819.23, 0.158067
7831.04, 0.158322
7842.89, 0.158449
7854.77, 0.158639
7866.69, 0.158830
7878.65, 0.159021
7890.64, 0.159275
7902.67, 0.159402
7914.74, 0.159529
7926.84, 0.159783
7938.98, 0.159910
7951.16, 0.160228
7963.37, 0.160482
7975.62, 0.160673
7987.91, 0.160927
8000.24, 0.161118
8012.6, 0.161118
8025.01, 0.161118
8037.45, 0.161118
8049.93, 0.161245
8062.45, 0.161182
8075.01, 0.161245
8087.61, 0.161245
8100.24, 0.161182
8112.91, 0.161182
8125.63, 0.161245
8138.39, 0.161309
8151.18, 0.161563
8164.02, 0.161817
8176.9, 0.162008
8189.81, 0.162199
8202.77, 0.162389
8215.77, 0.162580
8228.82, 0.162707
8241.9, 0.162771
8255.02, 0.162707
8268.19, 0.162580
8281.39, 0.162580
8294.65, 0.162707
8307.94, 0.162643
8321.28, 0.162326
8334.66, 0.162135
8348.08, 0.162071
8361.54, 0.162008
8375.05, 0.161881
8388.6, 0.161817
8402.2, 0.161563
8415.84, 0.161436
8429.52, 0.161436
8443.25, 0.161372
8457.02, 0.161245
8470.84, 0.161245
8484.7, 0.161245
8498.61, 0.161118
8512.57, 0.161118
8526.57, 0.161245
8540.62, 0.161499
8554.71, 0.161563
8568.85, 0.161690
8583.04, 0.161690
8597.27, 0.161499
8611.55, 0.161563
8625.88, 0.161690
8640.26, 0.161944
8654.68, 0.162262
8669.16, 0.162516
8683.68, 0.162707
8698.25, 0.162898
8712.87, 0.163088
8727.53, 0.163152
8742.25, 0.163343
8757.02, 0.163724
8771.83, 0.164042
8786.7, 0.164296
8801.62, 0.164550
8816.59, 0.164804
8831.61, 0.164932
8846.68, 0.165186
8861.8, 0.165504
8876.97, 0.165694
8892.2, 0.165758
8907.48, 0.166076
8922.81, 0.166330
8938.2, 0.166393
8953.63, 0.166393
8969.13, 0.166648
8984.67, 0.166965
9000.27, 0.167283
9015.92, 0.167601
9031.63, 0.167728
9047.39, 0.167792
9063.21, 0.167855
9079.08, 0.167792
9095.01, 0.167855
9111.0, 0.168300
9127.04, 0.168936
9143.13, 0.169381
9159.28, 0.169825
9175.49, 0.170270
9191.76, 0.170397
9208.09, 0.170461
9224.47, 0.170588
9240.92, 0.170842
9257.42, 0.171351
9273.98, 0.171541
9290.6, 0.171605
9307.28, 0.171732
9324.02, 0.171923
9340.82, 0.171986
9357.68, 0.172114
9374.6, 0.172304
9391.58, 0.172622
9408.62, 0.173003
9425.73, 0.173321
9442.9, 0.173639
9460.13, 0.173957
9477.42, 0.174147
9494.78, 0.174147
9512.2, 0.174147
9529.69, 0.174084
9547.24, 0.173957
9564.86, 0.174020
9582.54, 0.173957
9600.28, 0.173830
9618.1, 0.173766
9635.97, 0.173893
9653.92, 0.173893
9671.93, 0.173766
9690.01, 0.173575
9708.16, 0.173512
9726.37, 0.173575
9744.65, 0.173702
9763.0, 0.173830
9781.43, 0.173893
9799.92, 0.174020
9818.48, 0.174211
9837.1, 0.174402
9855.8, 0.174465
9874.58, 0.174465
9893.42, 0.174974
9912.34, 0.175291
9931.33, 0.175291
9950.39, 0.175418
9969.52, 0.175482
9988.74, 0.175673
10008.0, 0.175927
10027.4, 0.175991
10046.8, 0.175991
10066.3, 0.176118
10085.9, 0.176563
10105.6, 0.176880
10125.3, 0.177071
10145.1, 0.177135
10165.0, 0.177198
10185.0, 0.177325
10205.0, 0.177389
10225.2, 0.177452
10245.4, 0.177834
10265.7, 0.178406
10286.0, 0.179041
10306.5, 0.179295
10327.0, 0.179359
10347.6, 0.179486
10368.3, 0.179550
10389.1, 0.179486
10409.9, 0.179613
10430.9, 0.179613
10451.9, 0.179295
10473.0, 0.179105
10494.2, 0.178851
10515.5, 0.178469
10536.9, 0.178342
10558.4, 0.178406
10579.9, 0.178215
10601.5, 0.178024
10623.3, 0.177834
10645.1, 0.177579
10667.0, 0.177452
10689.0, 0.177325
10711.1, 0.177007
10733.2, 0.176690
10755.5, 0.176499
10777.9, 0.176308
10800.3, 0.176245
10822.9, 0.175991
10845.5, 0.175863
10868.2, 0.175609
10891.1, 0.175291
10914.0, 0.175037
10937.0, 0.174846
10960.2, 0.174402
10983.4, 0.173957
11006.7, 0.173702
11030.1, 0.173512
11053.6, 0.173448
11077.3, 0.173702
11101.0, 0.174147
11124.8, 0.174656
11148.7, 0.175291
11172.7, 0.175482
11196.9, 0.175037
11221.1, 0.174338
11245.4, 0.173830
11269.9, 0.172241
11294.4, 0.168618
11319.1, 0.165122
11343.9, 0.162898
11368.8, 0.160991
11393.7, 0.158894
11418.8, 0.157368
11444.0, 0.156987
11469.4, 0.158067
11494.8, 0.160038
11520.3, 0.161881
11546.0, 0.163025
11571.8, 0.163915
11597.7, 0.164677
11623.7, 0.165440
11649.8, 0.166330
11676.0, 0.166775
11702.4, 0.166520
11728.9, 0.166393
11755.5, 0.166393
11782.2, 0.165948
11809.0, 0.166584
11836.0, 0.168109
11863.0, 0.169063
11890.3, 0.169508
11917.6, 0.169698
11945.0, 0.170016
11972.6, 0.170397
12000.4, 0.170715
12028.2, 0.170969
12056.2, 0.171287
12084.3, 0.171541
12112.5, 0.171986
12140.9, 0.172304
12169.4, 0.172622
12198.0, 0.173067
12226.8, 0.173321
12255.7, 0.173258
12284.7, 0.173385
12313.9, 0.173639
12343.2, 0.173702
12372.7, 0.173957
12402.3, 0.174274
12432.0, 0.174402
12461.9, 0.174338
12491.9, 0.174147
12522.1, 0.173893
12552.4, 0.173575
12582.9, 0.173512
12613.5, 0.173448
12644.3, 0.173258
12675.2, 0.173385
12706.3, 0.173766
12737.5, 0.173766
12768.9, 0.174020
12800.4, 0.174529
12832.1, 0.175037
12863.9, 0.175546
12895.9, 0.176435
12928.1, 0.177389
12960.4, 0.177961
12992.9, 0.178533
13025.5, 0.179295
13058.3, 0.179995
13091.3, 0.180630
13124.4, 0.181393
13157.8, 0.181901
13191.2, 0.182600
13224.9, 0.183045
13258.7, 0.183236
13292.7, 0.183617
13326.9, 0.183999
13361.2, 0.184253
13395.7, 0.184253
13430.4, 0.183935
13465.3, 0.183554
13500.4, 0.183172
13535.7, 0.182346
13571.1, 0.181456
13606.7, 0.180440
13642.5, 0.179041
13678.5, 0.177516
13714.7, 0.176499
13751.1, 0.177071
13787.6, 0.178279
13824.4, 0.178787
13861.4, 0.178723
13898.5, 0.178342
13935.9, 0.177452
13973.5, 0.175800
14011.2, 0.174465
14049.2, 0.175164
14087.4, 0.177452
14125.8, 0.179423
14164.3, 0.180884
14203.2, 0.182473
14242.2, 0.183808
14281.4, 0.184761
14320.9, 0.185778
14360.5, 0.186795
14400.4, 0.187685
14440.5, 0.188511
14480.9, 0.189210
14521.4, 0.189655
14562.2, 0.189973
14603.3, 0.190227
14644.5, 0.190672
14686.0, 0.191181
14727.7, 0.191371
14769.7, 0.191689
14811.9, 0.191816
14854.3, 0.191880
14897.0, 0.192071
14939.9, 0.192134
14983.1, 0.192452
15026.5, 0.193087
15070.2, 0.193342
15114.2, 0.193659
15158.3, 0.194231
15202.8, 0.194549
15247.5, 0.194486
15292.5, 0.194676
15337.7, 0.195121
15383.2, 0.195185
15429.0, 0.194994
15475.1, 0.195185
15521.4, 0.195566
15568.0, 0.195312
15614.9, 0.195185
15662.1, 0.195757
15709.6, 0.195820
15757.3, 0.195693
15805.4, 0.195757
15853.7, 0.196202
15902.3, 0.196456
15951.2, 0.196329
16000.5, 0.196583
16050.0, 0.197092
16099.8, 0.197346
16150.0, 0.197409
16200.5, 0.197346
16251.3, 0.197536
16302.4, 0.197536
16353.8, 0.197473
16405.5, 0.197536
16457.6, 0.197409
16510.0, 0.196901
16562.8, 0.196647
16615.9, 0.196583
16669.3, 0.196329
16723.1, 0.196583
16777.2, 0.197092
16831.7, 0.197219
16886.5, 0.197155
16941.7, 0.197600
16997.2, 0.198236
17053.1, 0.198363
17109.4, 0.198681
17166.1, 0.199125
17223.1, 0.199634
17280.5, 0.200079
17338.3, 0.199761
17396.5, 0.199825
17455.1, 0.200269
17514.0, 0.200651
17573.4, 0.200524
17633.2, 0.200778
17693.4, 0.201096
17754.0, 0.201795
17815.0, 0.202303
17876.4, 0.202240
17938.3, 0.202113
18000.5, 0.202303
18063.3, 0.203193
18126.4, 0.203892
18190.0, 0.204083
18254.1, 0.204274
18318.6, 0.204782
18383.5, 0.205163
18449.0, 0.204973
18514.9, 0.205290
18581.2, 0.206435
18648.0, 0.206943
18715.4, 0.206879
18783.2, 0.207070
18851.5, 0.207134
18920.3, 0.207197
18989.6, 0.206689
19059.4, 0.206625
19129.7, 0.207007
19200.6, 0.206879
19272.0, 0.205735
19343.9, 0.205926
19416.3, 0.206752
19489.3, 0.207515
19562.8, 0.207896
19637.0, 0.207896
19711.6, 0.207007
19786.8, 0.206752
19862.6, 0.206689
19939.0, 0.207642
20016.0, 0.208977
20093.6, 0.208850
20171.8, 0.208723
20250.6, 0.208595
20330.0, 0.208913
20410.0, 0.209167
20490.7, 0.209422
20572.0, 0.210820
20654.0, 0.211710
20736.6, 0.210566
20819.9, 0.209676
20903.8, 0.210439
20988.5, 0.211265
21073.8, 0.212218
21159.8, 0.211900
21246.5, 0.212727
21334.0, 0.213680
21422.1, 0.213553
21511.0, 0.213553
21600.7, 0.214633
21691.0, 0.214951
21782.1, 0.212028
21874.0, 0.211456
21966.7, 0.213044
22060.2, 0.213108
22154.5, 0.213426
22249.6, 0.213489
22345.5, 0.214061
22442.2, 0.214824
22539.8, 0.215142
22638.2, 0.216032
22737.5, 0.217748
22837.7, 0.217494
22938.7, 0.216731
23040.7, 0.218510
23143.5, 0.219527
23247.3, 0.218638
23352.1, 0.218447
23457.7, 0.217684
23564.4, 0.215777
23672.0, 0.214761
23780.5, 0.212472
23890.1, 0.210947
24000.7, 0.215460
24112.3, 0.218256
24225.0, 0.219909
24338.7, 0.222197
24453.5, 0.222070
24569.4, 0.221180
24686.4, 0.222896
24804.5, 0.222832
24923.8, 0.221498
