Database of Origin, USGS Spectral Database
Sample Description, See USGS database for additional info
Date Added,2016-08-10 03:01:07.983973

Data ID,USGS_hyp08          
Sample ID, hypersthene_pyx02.10548
Mineral Name, hypersthene
Material Class,Inosilicate

Wavelength
1607.49, 0.193653
1607.99, 0.193618
1608.49, 0.193394
1608.99, 0.193515
1609.49, 0.193480
1609.99, 0.193446
1610.49, 0.193497
1610.99, 0.193359
1611.49, 0.193204
1611.99, 0.193135
1612.49, 0.193032
1612.99, 0.193083
1613.49, 0.193152
1614.0, 0.193135
1614.5, 0.193118
1615.0, 0.192928
1615.51, 0.192756
1616.01, 0.192842
1616.51, 0.192807
1617.02, 0.192687
1617.52, 0.192687
1618.03, 0.192566
1618.53, 0.192428
1619.04, 0.192376
1619.54, 0.192169
1620.05, 0.192187
1620.55, 0.192187
1621.06, 0.192031
1621.57, 0.192049
1622.08, 0.191911
1622.58, 0.191842
1623.09, 0.191549
1623.6, 0.191255
1624.11, 0.191342
1624.62, 0.191393
1625.13, 0.191290
1625.64, 0.191359
1626.15, 0.191204
1626.66, 0.190997
1627.17, 0.191014
1627.68, 0.190755
1628.19, 0.190652
1628.7, 0.190652
1629.21, 0.190497
1629.72, 0.190341
1630.24, 0.190134
1630.75, 0.190203
1631.26, 0.190203
1631.78, 0.190048
1632.29, 0.190014
1632.8, 0.189945
1633.32, 0.190203
1633.83, 0.190048
1634.35, 0.189824
1634.86, 0.189686
1635.38, 0.189479
1635.9, 0.189410
1636.41, 0.189514
1636.93, 0.189358
1637.45, 0.189255
1637.96, 0.189186
1638.48, 0.188962
1639.0, 0.188737
1639.52, 0.188703
1640.04, 0.188858
1640.56, 0.188824
1641.08, 0.188582
1641.59, 0.188410
1642.11, 0.188117
1642.63, 0.187892
1643.16, 0.187841
1643.68, 0.187892
1644.2, 0.188030
1644.72, 0.187961
1645.24, 0.187910
1645.76, 0.187927
1646.29, 0.187582
1646.81, 0.187254
1647.33, 0.187341
1647.86, 0.187289
1648.38, 0.187237
1648.9, 0.187185
1649.43, 0.186944
1649.95, 0.186771
1650.48, 0.186978
1651.0, 0.186927
1651.53, 0.186771
1652.06, 0.186599
1652.58, 0.186461
1653.11, 0.186496
1653.64, 0.186530
1654.17, 0.186099
1654.69, 0.185737
1655.22, 0.185668
1655.75, 0.185857
1656.28, 0.185754
1656.81, 0.185650
1657.34, 0.185444
1657.87, 0.185357
1658.4, 0.185513
1658.93, 0.185478
1659.46, 0.185271
1659.99, 0.185288
1660.52, 0.185237
1661.05, 0.185081
1661.59, 0.184719
1662.12, 0.184461
1662.65, 0.184547
1663.19, 0.184512
1663.72, 0.184547
1664.26, 0.184323
1664.79, 0.184288
1665.32, 0.184288
1665.86, 0.183995
1666.39, 0.184116
1666.93, 0.184081
1667.47, 0.183805
1668.0, 0.183547
1668.54, 0.183426
1669.08, 0.183598
1669.61, 0.183512
1670.15, 0.183478
1670.69, 0.183271
1671.23, 0.182891
1671.77, 0.182891
1672.31, 0.183012
1672.85, 0.183064
1673.39, 0.182857
1673.93, 0.182701
1674.47, 0.182546
1675.01, 0.182288
1675.55, 0.182098
1676.09, 0.182132
1676.64, 0.182253
1677.18, 0.182288
1677.72, 0.182063
1678.26, 0.181753
1678.81, 0.181546
1679.35, 0.181667
1679.89, 0.181529
1680.44, 0.181322
1680.98, 0.181218
1681.53, 0.181080
1682.07, 0.181149
1682.62, 0.181167
1683.17, 0.181184
1683.71, 0.181011
1684.26, 0.180942
1684.81, 0.180477
1685.36, 0.180201
1685.9, 0.180166
1686.45, 0.180339
1687.0, 0.180270
1687.55, 0.180046
1688.1, 0.179925
1688.65, 0.179856
1689.2, 0.179683
1689.75, 0.179683
1690.3, 0.179804
1690.85, 0.179614
1691.41, 0.179494
1691.96, 0.179683
1692.51, 0.179477
1693.06, 0.179339
1693.61, 0.179201
1694.17, 0.179252
1694.72, 0.179287
1695.28, 0.179045
1695.83, 0.178890
1696.39, 0.178838
1696.94, 0.178597
1697.5, 0.178511
1698.05, 0.178494
1698.61, 0.178321
1699.17, 0.178218
1699.72, 0.178183
1700.28, 0.177855
1700.84, 0.177907
1701.4, 0.178045
1701.95, 0.178011
1702.51, 0.177890
1703.07, 0.177752
1703.63, 0.177717
1704.19, 0.177579
1704.75, 0.177166
1705.31, 0.176924
1705.88, 0.177166
1706.44, 0.177217
1707.0, 0.177010
1707.56, 0.176838
1708.12, 0.176717
1708.69, 0.176596
1709.25, 0.176510
1709.81, 0.176321
1710.38, 0.176269
1710.94, 0.176269
1711.51, 0.176200
1712.07, 0.176114
1712.64, 0.176183
1713.2, 0.176062
1713.77, 0.175872
1714.34, 0.175907
1714.9, 0.175907
1715.47, 0.175769
1716.04, 0.175665
1716.61, 0.175527
1717.18, 0.175389
1717.74, 0.175303
1718.31, 0.175079
1718.88, 0.174993
1719.45, 0.174906
1720.02, 0.174975
1720.59, 0.175148
1721.17, 0.175182
1721.74, 0.174837
1722.31, 0.174648
1722.88, 0.174510
1723.45, 0.174561
1724.03, 0.174579
1724.6, 0.174424
1725.18, 0.174286
1725.75, 0.174337
1726.33, 0.174475
1726.9, 0.174234
1727.48, 0.174113
1728.05, 0.174165
1728.63, 0.173941
1729.2, 0.173596
1729.78, 0.173303
1730.36, 0.173354
1730.94, 0.173458
1731.51, 0.173285
1732.09, 0.173182
1732.67, 0.173199
1733.25, 0.173234
1733.83, 0.173199
1734.41, 0.172940
1734.99, 0.172889
1735.57, 0.172958
1736.15, 0.172975
1736.73, 0.172871
1737.32, 0.172699
1737.9, 0.172682
1738.48, 0.172664
1739.07, 0.172440
1739.65, 0.172320
1740.23, 0.172285
1740.82, 0.172337
1741.4, 0.172233
1741.99, 0.171940
1742.57, 0.171871
1743.16, 0.171957
1743.74, 0.171854
1744.33, 0.171733
1744.92, 0.171612
1745.51, 0.171664
1746.09, 0.171716
1746.68, 0.171612
1747.27, 0.171492
1747.86, 0.171440
1748.45, 0.171388
1749.04, 0.171371
1749.63, 0.171406
1750.22, 0.171285
1750.81, 0.171026
1751.4, 0.171043
1751.99, 0.171026
1752.59, 0.170750
1753.18, 0.170578
1753.77, 0.170664
1754.37, 0.170716
1754.96, 0.170560
1755.56, 0.170474
1756.15, 0.170457
1756.74, 0.170491
1757.34, 0.170457
1757.94, 0.170285
1758.53, 0.170250
1759.13, 0.170267
1759.73, 0.170216
1760.32, 0.170009
1760.92, 0.169888
1761.52, 0.169922
1762.12, 0.170078
1762.72, 0.169940
1763.32, 0.169853
1763.92, 0.169767
1764.52, 0.169526
1765.12, 0.169405
1765.72, 0.169422
1766.32, 0.169371
1766.92, 0.169422
1767.53, 0.169302
1768.13, 0.169164
1768.73, 0.169215
1769.34, 0.169302
1769.94, 0.169215
1770.55, 0.169008
1771.15, 0.168974
1771.76, 0.168974
1772.36, 0.168888
1772.97, 0.168836
1773.57, 0.168767
1774.18, 0.168715
1774.79, 0.168577
1775.4, 0.168474
1776.0, 0.168388
1776.61, 0.168405
1777.22, 0.168422
1777.83, 0.168370
1778.44, 0.168267
1779.05, 0.168267
1779.66, 0.168422
1780.27, 0.168370
1780.88, 0.168129
1781.5, 0.168181
1782.11, 0.168250
1782.72, 0.168146
1783.33, 0.167956
1783.95, 0.167939
1784.56, 0.167922
1785.18, 0.167887
1785.79, 0.167870
1786.41, 0.167818
1787.02, 0.167629
1787.64, 0.167439
1788.26, 0.167491
1788.87, 0.167422
1789.49, 0.167491
1790.11, 0.167542
1790.73, 0.167439
1791.35, 0.167370
1791.96, 0.167353
1792.58, 0.167267
1793.21, 0.167094
1793.83, 0.167111
1794.45, 0.167267
1795.07, 0.167198
1795.69, 0.167129
1796.31, 0.167025
1796.93, 0.167060
1797.56, 0.167042
1798.18, 0.166922
1798.8, 0.166922
1799.43, 0.167060
1800.05, 0.167008
1800.68, 0.166887
1801.3, 0.166922
1801.93, 0.166956
1802.56, 0.166904
1803.18, 0.166801
1803.81, 0.166680
1804.44, 0.166577
1805.07, 0.166628
1805.7, 0.166646
1806.33, 0.166594
1806.95, 0.166542
1807.58, 0.166525
1808.22, 0.166542
1808.85, 0.166456
1809.48, 0.166353
1810.11, 0.166335
1810.74, 0.166353
1811.38, 0.166387
1812.01, 0.166439
1812.64, 0.166577
1813.28, 0.166542
1813.91, 0.166439
1814.55, 0.166370
1815.18, 0.166249
1815.82, 0.166197
1816.45, 0.166163
1817.09, 0.166232
1817.73, 0.166249
1818.36, 0.166266
1819.0, 0.166197
1819.64, 0.166042
1820.28, 0.165973
1820.92, 0.165973
1821.56, 0.165818
1822.2, 0.165818
1822.84, 0.165990
1823.48, 0.166128
1824.12, 0.166128
1824.76, 0.166042
1825.41, 0.165835
1826.05, 0.165645
1826.69, 0.165870
1827.34, 0.166008
1827.98, 0.165990
1828.63, 0.165973
1829.27, 0.166008
1829.92, 0.165973
1830.56, 0.165835
1831.21, 0.165749
1831.86, 0.165749
1832.5, 0.165766
1833.15, 0.165956
1833.8, 0.165956
1834.45, 0.165749
1835.1, 0.165732
1835.75, 0.165732
1836.4, 0.165783
1837.05, 0.165749
1837.7, 0.165645
1838.35, 0.165870
1839.01, 0.165990
1839.66, 0.165697
1840.31, 0.165645
1840.96, 0.165852
1841.62, 0.165697
1842.27, 0.165939
1842.93, 0.166266
1843.58, 0.166094
1844.24, 0.165887
1844.9, 0.165904
1845.55, 0.166025
1846.21, 0.165870
1846.87, 0.165559
1847.53, 0.165714
1848.18, 0.165732
1848.84, 0.165887
1849.5, 0.165956
1850.16, 0.165990
1850.82, 0.166025
1851.48, 0.165887
1852.14, 0.165904
1852.81, 0.166059
1853.47, 0.165939
1854.13, 0.165887
1854.8, 0.166180
1855.46, 0.166215
1856.12, 0.165939
1856.79, 0.165835
1857.45, 0.166025
1858.12, 0.166215
1858.79, 0.166146
1859.45, 0.165939
1860.12, 0.166025
1860.79, 0.166232
1861.46, 0.166353
1862.12, 0.166473
1862.79, 0.166577
1863.46, 0.166404
1864.13, 0.166249
1864.8, 0.166370
1865.48, 0.166421
1866.15, 0.166577
1866.82, 0.166508
1867.49, 0.166249
1868.16, 0.166335
1868.84, 0.166594
1869.51, 0.166680
1870.19, 0.166456
1870.86, 0.166059
1871.54, 0.166301
1872.21, 0.166542
1872.89, 0.166456
1873.56, 0.166559
1874.24, 0.166732
1874.92, 0.166715
1875.6, 0.166818
1876.28, 0.166835
1876.96, 0.166680
1877.64, 0.166818
1878.32, 0.167042
1879.0, 0.167249
1879.68, 0.167284
1880.36, 0.167163
1881.04, 0.167180
1881.73, 0.167336
1882.41, 0.167525
1883.09, 0.167473
1883.78, 0.167249
1884.46, 0.167370
1885.15, 0.167629
1885.83, 0.167784
1886.52, 0.167732
1887.21, 0.167629
1887.89, 0.167698
1888.58, 0.167784
1889.27, 0.167749
1889.96, 0.167611
1890.65, 0.167939
1891.34, 0.168008
1892.03, 0.167974
1892.72, 0.168025
1893.41, 0.168112
1894.1, 0.168163
1894.79, 0.168198
1895.49, 0.168284
1896.18, 0.168405
1896.87, 0.168422
1897.57, 0.168439
1898.26, 0.168388
1898.96, 0.168232
1899.65, 0.168129
1900.35, 0.168439
1901.05, 0.168784
1901.74, 0.168853
1902.44, 0.168681
1903.14, 0.168767
1903.84, 0.168922
1904.54, 0.168836
1905.24, 0.168784
1905.94, 0.168939
1906.64, 0.168974
1907.34, 0.169233
1908.04, 0.169405
1908.75, 0.169491
1909.45, 0.169612
1910.15, 0.169698
1910.86, 0.169612
1911.56, 0.169629
1912.27, 0.169802
1912.97, 0.169819
1913.68, 0.169836
1914.39, 0.170095
1915.09, 0.170250
1915.8, 0.170285
1916.51, 0.170371
1917.22, 0.170629
1917.93, 0.170802
1918.64, 0.170802
1919.35, 0.170664
1920.06, 0.170509
1920.77, 0.170595
1921.48, 0.170940
1922.19, 0.171233
1922.91, 0.171423
1923.62, 0.171406
1924.33, 0.171440
1925.05, 0.171578
1925.76, 0.171716
1926.48, 0.171819
1927.19, 0.171888
1927.91, 0.171854
1928.63, 0.172113
1929.35, 0.172302
1930.07, 0.172406
1930.78, 0.172544
1931.5, 0.172647
1932.22, 0.172716
1932.94, 0.172785
1933.66, 0.172889
1934.39, 0.172958
1935.11, 0.173078
1935.83, 0.173268
1936.55, 0.173354
1937.28, 0.173423
1938.0, 0.173561
1938.73, 0.173699
1939.45, 0.173768
1940.18, 0.173923
1940.9, 0.174010
1941.63, 0.174251
1942.36, 0.174406
1943.09, 0.174406
1943.81, 0.174475
1944.54, 0.174648
1945.27, 0.174768
1946.0, 0.174889
1946.73, 0.174975
1947.47, 0.175062
1948.2, 0.175234
1948.93, 0.175389
1949.66, 0.175476
1950.4, 0.175613
1951.13, 0.175700
1951.86, 0.175803
1952.6, 0.175993
1953.34, 0.176200
1954.07, 0.176390
1954.81, 0.176441
1955.55, 0.176441
1956.29, 0.176579
1957.02, 0.176838
1957.76, 0.177148
1958.5, 0.177269
1959.24, 0.177286
1959.98, 0.177424
1960.72, 0.177562
1961.47, 0.177648
1962.21, 0.177769
1962.95, 0.177924
1963.7, 0.178131
1964.44, 0.178304
1965.18, 0.178442
1965.93, 0.178614
1966.67, 0.178769
1967.42, 0.178856
1968.17, 0.178959
1968.92, 0.179097
1969.66, 0.179287
1970.41, 0.179442
1971.16, 0.179632
1971.91, 0.179770
1972.66, 0.179959
1973.41, 0.180046
1974.16, 0.180235
1974.92, 0.180494
1975.67, 0.180597
1976.42, 0.180649
1977.18, 0.180873
1977.93, 0.180977
1978.69, 0.181132
1979.44, 0.181391
1980.2, 0.181580
1980.95, 0.181667
1981.71, 0.181856
1982.47, 0.182012
1983.23, 0.182167
1983.99, 0.182391
1984.74, 0.182598
1985.51, 0.182701
1986.27, 0.182839
1987.03, 0.183081
1987.79, 0.183340
1988.55, 0.183512
1989.32, 0.183684
1990.08, 0.183822
1990.84, 0.183943
1991.61, 0.184202
1992.37, 0.184443
1993.14, 0.184599
1993.9, 0.184754
1994.67, 0.184961
1995.44, 0.185185
1996.21, 0.185340
1996.98, 0.185547
1997.75, 0.185737
1998.52, 0.185909
1999.29, 0.186082
2000.06, 0.186306
2000.83, 0.186478
2001.6, 0.186685
2002.38, 0.186927
2003.15, 0.187168
2003.93, 0.187375
2004.7, 0.187582
2005.48, 0.187685
2006.25, 0.187944
2007.03, 0.188237
2007.81, 0.188410
2008.58, 0.188548
2009.36, 0.188720
2010.14, 0.188927
2010.92, 0.189134
2011.7, 0.189272
2012.48, 0.189376
2013.26, 0.189617
2014.05, 0.189927
2014.83, 0.190221
2015.61, 0.190514
2016.4, 0.190617
2017.18, 0.190790
2017.97, 0.191066
2018.75, 0.191273
2019.54, 0.191462
2020.32, 0.191583
2021.11, 0.191911
2021.9, 0.192187
2022.69, 0.192376
2023.48, 0.192601
2024.27, 0.192773
2025.06, 0.193066
2025.85, 0.193256
2026.64, 0.193325
2027.44, 0.193566
2028.23, 0.193877
2029.02, 0.194049
2029.82, 0.194273
2030.61, 0.194532
2031.41, 0.194842
2032.2, 0.195067
2033.0, 0.195360
2033.8, 0.195601
2034.6, 0.195774
2035.4, 0.196050
2036.2, 0.196326
2037.0, 0.196515
2037.8, 0.196671
2038.6, 0.196981
2039.4, 0.197205
2040.2, 0.197447
2041.01, 0.197723
2041.81, 0.197929
2042.61, 0.198223
2043.42, 0.198447
2044.22, 0.198637
2045.03, 0.198826
2045.84, 0.198981
2046.65, 0.199309
2047.46, 0.199706
2048.26, 0.199964
2049.07, 0.200154
2049.88, 0.200378
2050.69, 0.200585
2051.51, 0.200775
2052.32, 0.201103
2053.13, 0.201430
2053.94, 0.201655
2054.76, 0.201758
2055.57, 0.201896
2056.39, 0.202224
2057.2, 0.202620
2058.02, 0.202827
2058.84, 0.203103
2059.66, 0.203327
2060.48, 0.203603
2061.29, 0.203828
2062.11, 0.204017
2062.94, 0.204190
2063.76, 0.204466
2064.58, 0.204742
2065.4, 0.205017
2066.22, 0.205345
2067.05, 0.205569
2067.87, 0.205828
2068.7, 0.206190
2069.52, 0.206414
2070.35, 0.206656
2071.18, 0.207001
2072.0, 0.207294
2072.83, 0.207570
2073.66, 0.207811
2074.49, 0.207932
2075.32, 0.208122
2076.15, 0.208467
2076.98, 0.208863
2077.82, 0.209139
2078.65, 0.209381
2079.48, 0.209553
2080.32, 0.209898
2081.15, 0.210226
2081.99, 0.210433
2082.83, 0.210760
2083.66, 0.211002
2084.5, 0.211209
2085.34, 0.211433
2086.18, 0.211795
2087.02, 0.212088
2087.86, 0.212381
2088.7, 0.212554
2089.54, 0.212726
2090.39, 0.213020
2091.23, 0.213502
2092.07, 0.213882
2092.92, 0.214071
2093.76, 0.214330
2094.61, 0.214572
2095.45, 0.214865
2096.3, 0.215158
2097.15, 0.215486
2098.0, 0.215882
2098.85, 0.216158
2099.7, 0.216417
2100.55, 0.216641
2101.4, 0.216917
2102.25, 0.217262
2103.1, 0.217486
2103.96, 0.217710
2104.81, 0.218055
2105.67, 0.218417
2106.52, 0.218624
2107.38, 0.218918
2108.24, 0.219228
2109.09, 0.219469
2109.95, 0.219780
2110.81, 0.220090
2111.67, 0.220297
2112.53, 0.220677
2113.39, 0.221039
2114.25, 0.221332
2115.12, 0.221573
2115.98, 0.221832
2116.84, 0.222143
2117.71, 0.222487
2118.58, 0.222850
2119.44, 0.223212
2120.31, 0.223522
2121.18, 0.223815
2122.04, 0.224109
2122.91, 0.224333
2123.78, 0.224660
2124.65, 0.224988
2125.52, 0.225247
2126.4, 0.225454
2127.27, 0.225799
2128.14, 0.226126
2129.02, 0.226368
2129.89, 0.226661
2130.77, 0.226989
2131.64, 0.227333
2132.52, 0.227592
2133.4, 0.227903
2134.27, 0.228144
2135.15, 0.228454
2136.03, 0.228851
2136.91, 0.229144
2137.79, 0.229386
2138.68, 0.229696
2139.56, 0.230041
2140.44, 0.230420
2141.33, 0.230662
2142.21, 0.230903
2143.1, 0.231214
2143.99, 0.231559
2144.87, 0.231835
2145.76, 0.232093
2146.65, 0.232404
2147.54, 0.232714
2148.43, 0.233007
2149.32, 0.233335
2150.21, 0.233628
2151.1, 0.233904
2151.99, 0.234163
2152.89, 0.234404
2153.78, 0.234766
2154.68, 0.235129
2155.57, 0.235405
2156.47, 0.235698
2157.37, 0.235939
2158.27, 0.236250
2159.16, 0.236577
2160.06, 0.236819
2160.96, 0.237095
2161.86, 0.237405
2162.77, 0.237698
2163.67, 0.237940
2164.57, 0.238181
2165.48, 0.238474
2166.38, 0.238767
2167.29, 0.239112
2168.2, 0.239371
2169.1, 0.239612
2170.01, 0.239940
2170.92, 0.240216
2171.83, 0.240526
2172.74, 0.240871
2173.65, 0.241078
2174.56, 0.241372
2175.47, 0.241682
2176.39, 0.241923
2177.3, 0.242182
2178.22, 0.242527
2179.13, 0.242786
2180.05, 0.243062
2180.96, 0.243338
2181.88, 0.243596
2182.8, 0.243838
2183.72, 0.244079
2184.64, 0.244441
2185.56, 0.244700
2186.48, 0.244872
2187.41, 0.245148
2188.33, 0.245459
2189.25, 0.245804
2190.18, 0.246062
2191.1, 0.246287
2192.03, 0.246459
2192.96, 0.246735
2193.89, 0.247097
2194.82, 0.247459
2195.74, 0.247701
2196.68, 0.247942
2197.61, 0.248166
2198.54, 0.248391
2199.47, 0.248684
2200.4, 0.249098
2201.34, 0.249408
2202.28, 0.249632
2203.21, 0.249856
2204.15, 0.250115
2205.08, 0.250270
2206.02, 0.250546
2206.96, 0.250788
2207.9, 0.250995
2208.84, 0.251288
2209.78, 0.251615
2210.73, 0.251891
2211.67, 0.252047
2212.61, 0.252271
2213.56, 0.252599
2214.5, 0.252874
2215.45, 0.253116
2216.4, 0.253323
2217.35, 0.253599
2218.3, 0.253875
2219.24, 0.254237
2220.2, 0.254461
2221.15, 0.254582
2222.1, 0.254927
2223.05, 0.255220
2224.0, 0.255410
2224.96, 0.255617
2225.91, 0.255806
2226.87, 0.256048
2227.83, 0.256324
2228.79, 0.256600
2229.74, 0.256789
2230.7, 0.257065
2231.66, 0.257358
2232.63, 0.257565
2233.59, 0.257858
2234.55, 0.258117
2235.51, 0.258307
2236.48, 0.258548
2237.44, 0.258738
2238.41, 0.258979
2239.38, 0.259255
2240.34, 0.259531
2241.31, 0.259721
2242.28, 0.259842
2243.25, 0.260135
2244.22, 0.260445
2245.19, 0.260583
2246.17, 0.260738
2247.14, 0.260980
2248.12, 0.261170
2249.09, 0.261359
2250.07, 0.261635
2251.04, 0.261877
2252.02, 0.262049
2253.0, 0.262273
2253.98, 0.262567
2254.96, 0.262773
2255.94, 0.262877
2256.92, 0.262998
2257.91, 0.263118
2258.89, 0.263360
2259.88, 0.263532
2260.86, 0.263636
2261.85, 0.263705
2262.83, 0.263826
2263.82, 0.264015
2264.81, 0.264188
2265.8, 0.264291
2266.79, 0.264326
2267.78, 0.264429
2268.78, 0.264567
2269.77, 0.264757
2270.76, 0.264860
2271.76, 0.264895
2272.75, 0.264929
2273.75, 0.265084
2274.75, 0.265240
2275.75, 0.265343
2276.75, 0.265447
2277.75, 0.265447
2278.75, 0.265498
2279.75, 0.265550
2280.75, 0.265481
2281.76, 0.265464
2282.76, 0.265343
2283.77, 0.265153
2284.77, 0.264964
2285.78, 0.264740
2286.79, 0.264429
2287.8, 0.264032
2288.81, 0.263705
2289.82, 0.263463
2290.83, 0.263291
2291.84, 0.263429
2292.86, 0.263670
2293.87, 0.264015
2294.89, 0.264567
2295.91, 0.265015
2296.92, 0.265188
2297.94, 0.265205
2298.96, 0.265222
2299.98, 0.265240
2301.0, 0.265102
2302.02, 0.264998
2303.04, 0.264929
2304.07, 0.264757
2305.09, 0.264446
2306.12, 0.264032
2307.15, 0.263567
2308.17, 0.263084
2309.2, 0.262532
2310.23, 0.262015
2311.26, 0.261635
2312.29, 0.261411
2313.32, 0.261359
2314.35, 0.261532
2315.39, 0.262084
2316.42, 0.263049
2317.46, 0.264032
2318.5, 0.264964
2319.53, 0.265740
2320.57, 0.266240
2321.61, 0.266585
2322.65, 0.266999
2323.69, 0.267413
2324.73, 0.267930
2325.78, 0.268499
2326.82, 0.269137
2327.86, 0.269862
2328.91, 0.270500
2329.96, 0.271051
2331.01, 0.271500
2332.05, 0.271810
2333.1, 0.272207
2334.15, 0.272655
2335.21, 0.273017
2336.26, 0.273259
2337.31, 0.273569
2338.36, 0.273949
2339.42, 0.274190
2340.48, 0.274466
2341.53, 0.274794
2342.59, 0.275018
2343.65, 0.275259
2344.71, 0.275553
2345.77, 0.275863
2346.83, 0.276087
2347.9, 0.276277
2348.96, 0.276484
2350.02, 0.276674
2351.09, 0.276881
2352.16, 0.277053
2353.23, 0.277260
2354.29, 0.277467
2355.36, 0.277674
2356.43, 0.277950
2357.51, 0.278122
2358.58, 0.278243
2359.65, 0.278381
2360.73, 0.278553
2361.8, 0.278622
2362.88, 0.278829
2363.96, 0.278967
2365.03, 0.279071
2366.11, 0.279140
2367.19, 0.279243
2368.27, 0.279260
2369.36, 0.279209
2370.44, 0.279243
2371.53, 0.279278
2372.61, 0.279226
2373.7, 0.279226
2374.78, 0.279174
2375.87, 0.278984
2376.96, 0.278881
2378.05, 0.278898
2379.14, 0.278829
2380.24, 0.278726
2381.33, 0.278657
2382.42, 0.278622
2383.52, 0.278571
2384.61, 0.278553
2385.71, 0.278571
2386.81, 0.278640
2387.91, 0.278778
2389.01, 0.278898
2390.11, 0.278847
2391.22, 0.278847
2392.32, 0.279019
2393.42, 0.279433
2394.53, 0.279795
2395.64, 0.279985
2396.74, 0.280226
2397.85, 0.280571
2398.96, 0.280951
2400.07, 0.281278
2401.18, 0.281640
2402.3, 0.281968
2403.41, 0.282261
2404.52, 0.282589
2405.64, 0.282744
2406.76, 0.282848
2407.88, 0.283072
2408.99, 0.283244
2410.11, 0.283296
2411.23, 0.283486
2412.36, 0.283572
2413.48, 0.283641
2414.6, 0.283779
2415.73, 0.283831
2416.85, 0.283831
2417.98, 0.283865
2419.11, 0.283917
2420.24, 0.283969
2421.37, 0.284003
2422.5, 0.284038
2423.64, 0.283900
2424.77, 0.283831
2425.9, 0.283831
2427.04, 0.283865
2428.18, 0.283951
2429.31, 0.284124
2430.45, 0.284210
2431.59, 0.284210
2432.73, 0.284124
2433.88, 0.284141
2435.02, 0.284158
2436.16, 0.284296
2437.31, 0.284365
2438.45, 0.284313
2439.6, 0.284313
2440.75, 0.284400
2441.9, 0.284417
2443.05, 0.284555
2444.2, 0.284658
2445.35, 0.284762
2446.51, 0.284745
2447.67, 0.284745
2448.82, 0.284727
2449.98, 0.284831
2451.14, 0.284865
2452.3, 0.284865
2453.46, 0.284883
2454.62, 0.284969
2455.78, 0.285003
2456.94, 0.284986
2458.11, 0.284986
2459.28, 0.285003
2460.44, 0.284900
2461.61, 0.284831
2462.78, 0.284883
2463.95, 0.285003
2465.12, 0.285072
2466.3, 0.285141
2467.47, 0.285141
2468.65, 0.285279
2469.82, 0.285469
2471.0, 0.285572
2472.18, 0.285624
2473.36, 0.285745
2474.54, 0.285917
2475.72, 0.286073
2476.9, 0.286141
2478.08, 0.286228
2479.27, 0.286348
2480.46, 0.286486
2481.64, 0.286469
2482.83, 0.286469
2484.02, 0.286521
2485.21, 0.286659
2486.4, 0.286745
2487.6, 0.286797
2488.79, 0.286831
2489.99, 0.286762
2491.18, 0.286762
2492.38, 0.286849
2493.58, 0.286883
2494.78, 0.286797
2495.98, 0.286780
2497.18, 0.286866
2498.39, 0.286883
2499.59, 0.286900
2500.8, 0.286866
2502.01, 0.286831
2503.21, 0.286952
2504.42, 0.287090
2505.63, 0.287124
2506.84, 0.287314
2508.06, 0.287400
2509.27, 0.287400
2510.49, 0.287366
2511.7, 0.287745
2512.92, 0.287830
2514.14, 0.287796
2515.36, 0.287779
2516.58, 0.287932
2517.8, 0.288085
2519.03, 0.288306
2520.25, 0.288476
2521.48, 0.288764
2522.7, 0.288832
2523.93, 0.288934
2525.16, 0.289206
2526.39, 0.289291
2527.62, 0.289274
2528.86, 0.289410
2530.09, 0.289529
2531.33, 0.289189
2532.56, 0.289172
2533.8, 0.289699
2535.04, 0.289580
2536.28, 0.289580
2537.52, 0.290327
2538.76, 0.290701
2540.01, 0.290684
2541.25, 0.290293
2542.5, 0.289750
2543.75, 0.290055
2544.99, 0.290870
2546.24, 0.291074
2547.49, 0.290616
2548.75, 0.290887
2550.0, 0.290853
2551.26, 0.290310
2552.51, 0.290106
2553.77, 0.291142
2555.03, 0.291770
2556.29, 0.291974
2557.55, 0.292110
2558.81, 0.291397
2560.08, 0.289410
2561.34, 0.288187
2562.61, 0.288374
2563.88, 0.288798
2565.14, 0.290599
2566.41, 0.292229
2567.68, 0.291737
2568.96, 0.290106
2570.23, 0.290701
2571.51, 0.291431
2572.78, 0.289274
2574.06, 0.290208
2575.34, 0.290938
2576.62, 0.290276
2577.9, 0.291770
2579.18, 0.292569
2580.47, 0.291108
2581.75, 0.290904
2583.04, 0.288900
2584.32, 0.289393
2585.61, 0.291210
2586.9, 0.290463
2588.2, 0.291261
2589.49, 0.292382
2590.78, 0.293401
2592.08, 0.292246
2593.37, 0.286523
2594.67, 0.282735
2595.97, 0.287881
2597.27, 0.292637
2598.57, 0.294233
2599.88, 0.293673
2601.18, 0.292620
2602.49, 0.291957
2603.79, 0.290344
2605.1, 0.288680
2606.41, 0.290395
2607.72, 0.292127
2609.03, 0.292620
2610.35, 0.293469
2611.66, 0.294131
2612.98, 0.293876
2614.3, 0.293893
2615.62, 0.290989
2616.94, 0.289902
2618.26, 0.292144
2619.58, 0.290480
2620.91, 0.291618
2622.23, 0.294912
2623.56, 0.295422
2624.89, 0.293808
2626.22, 0.291380
2627.55, 0.292908
2628.88, 0.291720
2630.21, 0.289461
2631.55, 0.292246
2632.89, 0.293367
2634.22, 0.293758
2635.56, 0.295184
2636.9, 0.295558
2638.25, 0.295626
2639.59, 0.295388
2640.93, 0.294946
2642.28, 0.294709
2643.63, 0.294793
2644.98, 0.293622
2646.33, 0.293876
2647.68, 0.294861
2649.03, 0.295048
2650.39, 0.294420
2651.74, 0.292671
2653.1, 0.292518
2654.46, 0.292908
2655.82, 0.293044
2657.18, 0.293893
2658.54, 0.292416
2659.9, 0.291618
2661.27, 0.291804
2662.64, 0.291516
2664.01, 0.287559
2665.38, 0.284655
2666.74, 0.285079
2668.12, 0.287066
2669.49, 0.282956
2670.87, 0.283024
2672.24, 0.287457
2673.62, 0.287185
2675.0, 0.283822
2676.38, 0.280511
2677.76, 0.279882
2679.15, 0.279118
2680.54, 0.279356
2681.92, 0.276740
2683.31, 0.272715
2684.7, 0.269251
2686.09, 0.265549
2687.48, 0.261863
2688.88, 0.257753
2690.27, 0.252760
2691.67, 0.245661
2693.07, 0.236490
2694.47, 0.229103
2695.87, 0.222717
2697.27, 0.215278
2698.67, 0.206124
2700.08, 0.196546
2701.49, 0.187528
2702.9, 0.179359
2704.31, 0.171207
2705.72, 0.163921
2707.13, 0.156975
2708.54, 0.150674
2709.96, 0.145868
2711.38, 0.143898
2712.8, 0.143660
2714.22, 0.142268
2715.64, 0.139975
2717.06, 0.133420
2718.49, 0.119816
2719.91, 0.110102
2721.34, 0.116386
2722.77, 0.125828
2724.2, 0.131042
2725.63, 0.135899
2727.07, 0.139517
2728.5, 0.140620
2729.94, 0.139211
2731.38, 0.137852
2732.82, 0.141011
2734.26, 0.145817
2735.7, 0.149995
2737.15, 0.151727
2738.59, 0.150691
2740.04, 0.151201
2741.49, 0.153986
2742.94, 0.156245
2744.39, 0.157026
2745.84, 0.158317
2747.3, 0.159896
2748.76, 0.160915
2750.21, 0.161561
2751.67, 0.162053
2753.14, 0.162138
2754.6, 0.160644
2756.06, 0.162002
2757.53, 0.164872
2759.0, 0.166078
2760.46, 0.166180
2761.94, 0.165654
2763.41, 0.166350
2764.88, 0.167709
2766.36, 0.168150
2767.83, 0.168575
2769.31, 0.169050
2770.79, 0.169458
2772.27, 0.170833
2773.76, 0.172107
2775.24, 0.172719
2776.73, 0.173075
2778.22, 0.173721
2779.71, 0.174077
2781.2, 0.174366
2782.69, 0.175215
2784.18, 0.176013
2785.68, 0.175691
2787.18, 0.175742
2788.68, 0.177389
2790.18, 0.178816
2791.68, 0.179563
2793.19, 0.180157
2794.69, 0.180938
2796.2, 0.181584
2797.71, 0.182178
2799.22, 0.182790
2800.73, 0.182756
2802.24, 0.182195
2803.76, 0.183095
2805.28, 0.184709
2806.8, 0.185711
2808.32, 0.186407
2809.84, 0.187137
2811.36, 0.187817
2812.89, 0.188156
2814.42, 0.188496
2815.94, 0.189277
2817.48, 0.189770
2819.01, 0.189923
2820.54, 0.190466
2822.08, 0.191281
2823.61, 0.191910
2825.15, 0.192351
2826.69, 0.192708
2828.23, 0.193115
2829.78, 0.193710
2831.32, 0.193999
2832.87, 0.194066
2834.42, 0.194202
2835.97, 0.194474
2837.52, 0.194661
2839.08, 0.195102
2840.63, 0.195476
2842.19, 0.195595
2843.75, 0.195833
2845.31, 0.196003
2846.87, 0.196070
2848.44, 0.196087
2850.0, 0.196529
2851.57, 0.197022
2853.14, 0.197140
2854.71, 0.197276
2856.28, 0.197684
2857.86, 0.198041
2859.43, 0.198295
2861.01, 0.198652
2862.59, 0.199060
2864.17, 0.199348
2865.76, 0.199535
2867.34, 0.199824
2868.93, 0.200129
2870.52, 0.200299
2872.11, 0.200520
2873.7, 0.200758
2875.29, 0.200962
2876.89, 0.201148
2878.49, 0.201369
2880.08, 0.201607
2881.69, 0.201862
2883.29, 0.202099
2884.89, 0.202354
2886.5, 0.202558
2888.11, 0.202728
2889.72, 0.202966
2891.33, 0.203220
2892.94, 0.203475
2894.56, 0.203764
2896.17, 0.204120
2897.79, 0.204290
2899.42, 0.204273
2901.04, 0.204358
2902.66, 0.204647
2904.29, 0.204817
2905.92, 0.204987
2907.55, 0.205224
2909.18, 0.205377
2910.81, 0.205530
2912.45, 0.205649
2914.08, 0.205785
2915.72, 0.205819
2917.36, 0.206023
2919.01, 0.206311
2920.65, 0.206413
2922.3, 0.206396
2923.94, 0.206447
2925.59, 0.206617
2927.25, 0.206804
2928.9, 0.207008
2930.56, 0.207279
2932.21, 0.207483
2933.87, 0.207653
2935.53, 0.207755
2937.2, 0.207874
2938.86, 0.207925
2940.53, 0.208061
2942.2, 0.208162
2943.87, 0.208332
2945.54, 0.208451
2947.22, 0.208604
2948.89, 0.208842
2950.57, 0.208995
2952.25, 0.209097
2953.93, 0.209266
2955.62, 0.209470
2957.3, 0.209674
2958.99, 0.209776
2960.68, 0.209963
2962.37, 0.210065
2964.07, 0.210234
2965.76, 0.210370
2967.46, 0.210591
2969.16, 0.210693
2970.86, 0.210812
2972.56, 0.211033
2974.27, 0.211236
2975.98, 0.211389
2977.69, 0.211593
2979.4, 0.211763
2981.11, 0.211899
2982.83, 0.212120
2984.54, 0.212391
2986.26, 0.212612
2987.98, 0.212782
2989.71, 0.212935
2991.43, 0.213020
2993.16, 0.213189
2994.89, 0.213478
2996.62, 0.213648
2998.35, 0.213852
3000.09, 0.214158
3001.83, 0.214395
3003.57, 0.214616
3005.31, 0.214837
3007.05, 0.214990
3008.79, 0.215227
3010.54, 0.215414
3012.29, 0.215686
3014.04, 0.215941
3015.8, 0.216111
3017.55, 0.216246
3019.31, 0.216399
3021.07, 0.216654
3022.83, 0.216909
3024.59, 0.217096
3026.36, 0.217299
3028.13, 0.217435
3029.9, 0.217656
3031.67, 0.217843
3033.44, 0.217979
3035.22, 0.218183
3037.0, 0.218403
3038.78, 0.218539
3040.56, 0.218658
3042.34, 0.218845
3044.13, 0.219066
3045.92, 0.219269
3047.71, 0.219405
3049.5, 0.219490
3051.3, 0.219660
3053.09, 0.219898
3054.89, 0.220102
3056.69, 0.220322
3058.5, 0.220492
3060.3, 0.220628
3062.11, 0.220764
3063.92, 0.220917
3065.73, 0.221053
3067.55, 0.221222
3069.36, 0.221358
3071.18, 0.221528
3073.0, 0.221749
3074.82, 0.221936
3076.65, 0.222072
3078.48, 0.222241
3080.31, 0.222394
3082.14, 0.222581
3083.97, 0.222802
3085.8, 0.222955
3087.64, 0.223074
3089.48, 0.223193
3091.33, 0.223379
3093.17, 0.223515
3095.02, 0.223753
3096.87, 0.223991
3098.72, 0.224178
3100.57, 0.224381
3102.43, 0.224704
3104.28, 0.224942
3106.14, 0.225112
3108.01, 0.225281
3109.87, 0.225468
3111.74, 0.225706
3113.61, 0.225961
3115.48, 0.226097
3117.35, 0.226317
3119.23, 0.226606
3121.1, 0.226895
3122.98, 0.227133
3124.87, 0.227421
3126.75, 0.227659
3128.64, 0.227846
3130.53, 0.228033
3132.42, 0.228237
3134.31, 0.228457
3136.21, 0.228712
3138.11, 0.228933
3140.01, 0.229137
3141.91, 0.229357
3143.82, 0.229629
3145.73, 0.229833
3147.64, 0.230020
3149.55, 0.230258
3151.46, 0.230461
3153.38, 0.230665
3155.3, 0.230886
3157.22, 0.231073
3159.14, 0.231277
3161.07, 0.231497
3163.0, 0.231752
3164.93, 0.231956
3166.86, 0.232194
3168.8, 0.232431
3170.74, 0.232669
3172.68, 0.232873
3174.62, 0.233060
3176.56, 0.233247
3178.51, 0.233484
3180.46, 0.233705
3182.42, 0.233926
3184.37, 0.234164
3186.33, 0.234401
3188.29, 0.234605
3190.25, 0.234758
3192.21, 0.234928
3194.18, 0.235268
3196.15, 0.235522
3198.12, 0.235709
3200.09, 0.235879
3202.07, 0.236066
3204.05, 0.236287
3206.03, 0.236473
3208.02, 0.236626
3210.0, 0.236830
3211.99, 0.237085
3213.98, 0.237238
3215.98, 0.237407
3217.97, 0.237645
3219.97, 0.237781
3221.97, 0.237832
3223.98, 0.238036
3225.98, 0.238325
3227.99, 0.238528
3230.0, 0.238681
3232.02, 0.238868
3234.03, 0.238987
3236.05, 0.239174
3238.07, 0.239310
3240.1, 0.239496
3242.12, 0.239700
3244.15, 0.239853
3246.18, 0.240006
3248.22, 0.240193
3250.25, 0.240447
3252.29, 0.240685
3254.33, 0.240906
3256.38, 0.240991
3258.43, 0.241042
3260.47, 0.241195
3262.53, 0.241331
3264.58, 0.241432
3266.64, 0.241636
3268.7, 0.241738
3270.76, 0.241908
3272.82, 0.242078
3274.89, 0.242197
3276.96, 0.242367
3279.04, 0.242468
3281.11, 0.242621
3283.19, 0.242774
3285.27, 0.242961
3287.35, 0.243029
3289.44, 0.243131
3291.53, 0.243233
3293.62, 0.243402
3295.71, 0.243521
3297.81, 0.243538
3299.91, 0.243521
3302.01, 0.243555
3304.11, 0.243606
3306.22, 0.243708
3308.33, 0.243759
3310.44, 0.243810
3312.56, 0.243895
3314.68, 0.243997
3316.8, 0.244218
3318.92, 0.244421
3321.05, 0.244625
3323.18, 0.244897
3325.31, 0.245135
3327.44, 0.245339
3329.58, 0.245542
3331.72, 0.245712
3333.86, 0.245848
3336.01, 0.245882
3338.16, 0.245882
3340.31, 0.245933
3342.46, 0.245899
3344.61, 0.245746
3346.77, 0.245542
3348.94, 0.245271
3351.1, 0.245135
3353.27, 0.245016
3355.44, 0.244897
3357.61, 0.244744
3359.79, 0.244659
3361.97, 0.244523
3364.15, 0.244421
3366.33, 0.244354
3368.52, 0.244303
3370.71, 0.244337
3372.9, 0.244286
3375.1, 0.244218
3377.3, 0.244269
3379.5, 0.244388
3381.71, 0.244659
3383.91, 0.244982
3386.12, 0.245322
3388.34, 0.245593
3390.55, 0.245882
3392.77, 0.246120
3394.99, 0.246273
3397.22, 0.246307
3399.45, 0.246358
3401.68, 0.246392
3403.91, 0.246425
3406.15, 0.246476
3408.39, 0.246578
3410.63, 0.246646
3412.87, 0.246799
3415.12, 0.247037
3417.37, 0.247207
3419.63, 0.247495
3421.88, 0.247920
3424.14, 0.248362
3426.41, 0.248769
3428.67, 0.249160
3430.94, 0.249550
3433.21, 0.249924
3435.49, 0.250196
3437.77, 0.250484
3440.05, 0.250739
3442.33, 0.251011
3444.62, 0.251198
3446.91, 0.251419
3449.2, 0.251639
3451.5, 0.251843
3453.8, 0.251945
3456.1, 0.252115
3458.41, 0.252251
3460.72, 0.252336
3463.03, 0.252387
3465.34, 0.252438
3467.66, 0.252488
3469.98, 0.252454
3472.31, 0.252336
3474.63, 0.252285
3476.96, 0.252251
3479.3, 0.252353
3481.64, 0.252488
3483.97, 0.252624
3486.32, 0.252794
3488.66, 0.252981
3491.01, 0.253321
3493.36, 0.253626
3495.72, 0.253847
3498.08, 0.254017
3500.44, 0.254187
3502.81, 0.254560
3505.18, 0.254951
3507.55, 0.255308
3509.92, 0.255749
3512.3, 0.256225
3514.68, 0.256632
3517.06, 0.257006
3519.45, 0.257431
3521.84, 0.257770
3524.24, 0.258059
3526.64, 0.258331
3529.04, 0.258568
3531.44, 0.258687
3533.85, 0.258738
3536.26, 0.258840
3538.67, 0.258942
3541.09, 0.259163
3543.51, 0.259503
3545.93, 0.259859
3548.36, 0.260182
3550.79, 0.260420
3553.22, 0.260674
3555.66, 0.260895
3558.1, 0.261082
3560.54, 0.261167
3562.99, 0.261252
3565.44, 0.261405
3567.9, 0.261540
3570.35, 0.261659
3572.81, 0.261727
3575.28, 0.261863
3577.75, 0.261999
3580.22, 0.262135
3582.69, 0.262186
3585.17, 0.262237
3587.65, 0.262339
3590.14, 0.262390
3592.62, 0.262441
3595.11, 0.262458
3597.61, 0.262559
3600.11, 0.262644
3602.61, 0.262644
3605.11, 0.262712
3607.62, 0.262814
3610.14, 0.262899
3612.65, 0.262933
3615.17, 0.262967
3617.69, 0.263001
3620.22, 0.263086
3622.75, 0.263120
3625.28, 0.263205
3627.82, 0.263290
3630.36, 0.263341
3632.9, 0.263358
3635.45, 0.263392
3638.0, 0.263460
3640.56, 0.263477
3643.12, 0.263443
3645.68, 0.263426
3648.24, 0.263375
3650.81, 0.263392
3653.39, 0.263595
3655.96, 0.263748
3658.54, 0.263850
3661.13, 0.264003
3663.71, 0.264173
3666.3, 0.264275
3668.9, 0.264326
3671.5, 0.264479
3674.1, 0.264597
3676.7, 0.264665
3679.31, 0.264699
3681.93, 0.264750
3684.54, 0.264869
3687.17, 0.264988
3689.79, 0.265073
3692.42, 0.265209
3695.05, 0.265345
3697.69, 0.265481
3700.32, 0.265498
3702.97, 0.265532
3705.61, 0.265667
3708.27, 0.265752
3710.92, 0.265820
3713.58, 0.265922
3716.24, 0.265956
3718.91, 0.265990
3721.58, 0.266058
3724.25, 0.266109
3726.93, 0.266160
3729.61, 0.266211
3732.29, 0.266245
3734.98, 0.266313
3737.67, 0.266398
3740.37, 0.266466
3743.07, 0.266517
3745.78, 0.266568
3748.49, 0.266584
3751.2, 0.266568
3753.91, 0.266602
3756.63, 0.266635
3759.36, 0.266618
3762.09, 0.266635
3764.82, 0.266669
3767.55, 0.266669
3770.29, 0.266703
3773.04, 0.266771
3775.78, 0.266737
3778.54, 0.266669
3781.29, 0.266669
3784.05, 0.266686
3786.82, 0.266754
3789.59, 0.266720
3792.36, 0.266652
3795.13, 0.266652
3797.92, 0.266669
3800.7, 0.266720
3803.49, 0.266771
3806.28, 0.266703
3809.08, 0.266703
3811.88, 0.266720
3814.68, 0.266686
3817.49, 0.266686
3820.31, 0.266703
3823.12, 0.266669
3825.94, 0.266669
3828.77, 0.266669
3831.6, 0.266618
3834.43, 0.266584
3837.27, 0.266635
3840.11, 0.266652
3842.96, 0.266669
3845.81, 0.266652
3848.67, 0.266584
3851.53, 0.266500
3854.39, 0.266483
3857.26, 0.266534
3860.13, 0.266500
3863.01, 0.266432
3865.89, 0.266381
3868.77, 0.266364
3871.66, 0.266364
3874.55, 0.266262
3877.45, 0.266177
3880.35, 0.266160
3883.26, 0.266194
3886.17, 0.266160
3889.09, 0.266058
3892.01, 0.266075
3894.93, 0.266058
3897.86, 0.265956
3900.79, 0.265905
3903.73, 0.265905
3906.67, 0.265888
3909.62, 0.265854
3912.57, 0.265735
3915.52, 0.265718
3918.48, 0.265701
3921.45, 0.265633
3924.42, 0.265566
3927.39, 0.265549
3930.37, 0.265549
3933.35, 0.265532
3936.34, 0.265515
3939.33, 0.265481
3942.32, 0.265498
3945.32, 0.265515
3948.33, 0.265447
3951.34, 0.265345
3954.35, 0.265345
3957.37, 0.265379
3960.39, 0.265396
3963.42, 0.265396
3966.45, 0.265413
3969.49, 0.265447
3972.53, 0.265532
3975.58, 0.265599
3978.63, 0.265701
3981.68, 0.265701
3984.75, 0.265701
3987.81, 0.265718
3990.88, 0.265718
3993.95, 0.265735
3997.03, 0.265752
4000.12, 0.265769
4003.21, 0.265769
4006.3, 0.265752
4009.4, 0.265735
4012.5, 0.265667
4015.61, 0.265633
4018.72, 0.265616
4021.84, 0.265566
4024.96, 0.265532
4028.09, 0.265447
4031.22, 0.265311
4034.36, 0.265243
4037.5, 0.265243
4040.65, 0.265209
4043.8, 0.265073
4046.96, 0.264920
4050.12, 0.264852
4053.29, 0.264818
4056.46, 0.264750
4059.64, 0.264648
4062.82, 0.264564
4066.0, 0.264445
4069.19, 0.264343
4072.39, 0.264275
4075.59, 0.264190
4078.8, 0.264139
4082.01, 0.264037
4085.23, 0.263918
4088.45, 0.263884
4091.68, 0.263799
4094.91, 0.263680
4098.15, 0.263612
4101.39, 0.263578
4104.63, 0.263511
4107.89, 0.263494
4111.14, 0.263392
4114.41, 0.263290
4117.67, 0.263154
4120.95, 0.263103
4124.23, 0.263103
4127.51, 0.263035
4130.8, 0.262933
4134.09, 0.262814
4137.39, 0.262746
4140.7, 0.262695
4144.01, 0.262661
4147.32, 0.262593
4150.64, 0.262526
4153.97, 0.262475
4157.3, 0.262390
4160.64, 0.262288
4163.98, 0.262186
4167.33, 0.262135
4170.68, 0.262067
4174.04, 0.261982
4177.4, 0.261948
4180.77, 0.261897
4184.14, 0.261761
4187.52, 0.261676
4190.91, 0.261608
4194.3, 0.261405
4197.69, 0.261133
4201.1, 0.260725
4204.5, 0.260165
4207.92, 0.259435
4211.34, 0.258602
4214.76, 0.257753
4218.19, 0.256955
4221.62, 0.256225
4225.06, 0.255596
4228.51, 0.255155
4231.96, 0.254832
4235.42, 0.254747
4238.88, 0.254849
4242.35, 0.255189
4245.83, 0.255817
4249.31, 0.256700
4252.79, 0.257889
4256.28, 0.258518
4259.78, 0.257855
4263.29, 0.256751
4266.79, 0.255970
4270.31, 0.255562
4273.83, 0.255342
4277.35, 0.255257
4280.89, 0.255206
4284.42, 0.255240
4287.97, 0.255274
4291.52, 0.255427
4295.07, 0.255596
4298.63, 0.255766
4302.2, 0.256004
4305.78, 0.256310
4309.35, 0.256598
4312.94, 0.256870
4316.53, 0.257159
4320.13, 0.257431
4323.73, 0.257634
4327.34, 0.257821
4330.96, 0.257957
4334.58, 0.258059
4338.21, 0.258127
4341.84, 0.258178
4345.48, 0.258212
4349.12, 0.258263
4352.77, 0.258314
4356.43, 0.258348
4360.1, 0.258331
4363.76, 0.258348
4367.44, 0.258348
4371.12, 0.258365
4374.81, 0.258331
4378.51, 0.258314
4382.21, 0.258263
4385.92, 0.258229
4389.63, 0.258178
4393.35, 0.258093
4397.08, 0.258008
4400.81, 0.257957
4404.55, 0.257872
4408.29, 0.257855
4412.04, 0.257821
4415.8, 0.257736
4419.57, 0.257719
4423.34, 0.257668
4427.12, 0.257583
4430.9, 0.257566
4434.69, 0.257499
4438.49, 0.257397
4442.29, 0.257329
4446.1, 0.257244
4449.92, 0.257142
4453.74, 0.257074
4457.57, 0.256972
4461.41, 0.256904
4465.25, 0.256819
4469.1, 0.256717
4472.95, 0.256598
4476.82, 0.256513
4480.69, 0.256378
4484.56, 0.256208
4488.44, 0.256038
4492.33, 0.255919
4496.23, 0.255783
4500.13, 0.255579
4504.04, 0.255359
4507.96, 0.255138
4511.88, 0.254849
4515.81, 0.254543
4519.75, 0.254170
4523.69, 0.253677
4527.65, 0.253168
4531.6, 0.252658
4535.57, 0.252047
4539.54, 0.251368
4543.52, 0.250671
4547.5, 0.250026
4551.5, 0.249313
4555.5, 0.248548
4559.5, 0.247801
4563.52, 0.246986
4567.54, 0.246188
4571.56, 0.245305
4575.6, 0.244404
4579.64, 0.243470
4583.69, 0.242485
4587.75, 0.241449
4591.81, 0.240396
4595.88, 0.239225
4599.96, 0.238036
4604.04, 0.236830
4608.14, 0.235539
4612.24, 0.234181
4616.34, 0.232805
4620.46, 0.231463
4624.58, 0.230088
4628.71, 0.228763
4632.84, 0.227455
4636.99, 0.226165
4641.14, 0.224908
4645.3, 0.223651
4649.47, 0.222445
4653.64, 0.221239
4657.82, 0.220000
4662.01, 0.218879
4666.21, 0.217945
4670.41, 0.217062
4674.62, 0.216263
4678.84, 0.215533
4683.07, 0.214905
4687.3, 0.214378
4691.54, 0.213784
4695.79, 0.213189
4700.05, 0.212595
4704.31, 0.212052
4708.59, 0.211491
4712.87, 0.210863
4717.15, 0.210234
4721.45, 0.209572
4725.76, 0.208859
4730.07, 0.208112
4734.39, 0.207279
4738.72, 0.206311
4743.05, 0.205309
4747.39, 0.204222
4751.75, 0.203068
4756.1, 0.201862
4760.47, 0.200571
4764.85, 0.199297
4769.23, 0.198074
4773.62, 0.196716
4778.02, 0.195357
4782.43, 0.193948
4786.85, 0.192572
4791.27, 0.191264
4795.7, 0.189923
4800.14, 0.188513
4804.59, 0.187205
4809.05, 0.185965
4813.51, 0.184811
4817.99, 0.183741
4822.47, 0.182790
4826.96, 0.181957
4831.46, 0.181244
4835.96, 0.180667
4840.48, 0.180106
4845.0, 0.179835
4849.54, 0.179733
4854.08, 0.179563
4858.63, 0.179529
4863.18, 0.179546
4867.75, 0.179597
4872.33, 0.179648
4876.91, 0.179733
4881.5, 0.179818
4886.1, 0.179919
4890.71, 0.180021
4895.33, 0.180106
4899.96, 0.180174
4904.59, 0.180276
4909.24, 0.180344
4913.89, 0.180327
4918.55, 0.180310
4923.22, 0.180293
4927.9, 0.180225
4932.59, 0.180174
4937.29, 0.180038
4942.0, 0.179886
4946.71, 0.179648
4951.44, 0.179257
4956.17, 0.178867
4960.91, 0.178714
4965.67, 0.178476
4970.43, 0.178136
4975.2, 0.177746
4979.98, 0.177321
4984.76, 0.176930
4989.56, 0.176472
4994.37, 0.175928
4999.18, 0.175334
5004.01, 0.174655
5008.84, 0.173941
5013.69, 0.173041
5018.54, 0.171954
5023.4, 0.171088
5028.28, 0.170188
5033.16, 0.169101
5038.05, 0.167946
5042.95, 0.166724
5047.86, 0.165416
5052.78, 0.163989
5057.71, 0.162529
5062.65, 0.161068
5067.6, 0.159574
5072.56, 0.158113
5077.53, 0.156636
5082.5, 0.155056
5087.49, 0.153731
5092.49, 0.152424
5097.5, 0.150946
5102.51, 0.149554
5107.54, 0.148263
5112.58, 0.146904
5117.62, 0.145614
5122.68, 0.144391
5127.75, 0.143253
5132.82, 0.142166
5137.91, 0.141249
5143.01, 0.140434
5148.12, 0.139958
5153.23, 0.140213
5158.36, 0.140722
5163.5, 0.141436
5168.65, 0.142387
5173.81, 0.143593
5178.98, 0.144934
5184.15, 0.146412
5189.34, 0.147906
5194.54, 0.149350
5199.75, 0.150742
5204.98, 0.152288
5210.21, 0.153358
5215.45, 0.154666
5220.7, 0.156347
5225.96, 0.157587
5231.23, 0.158555
5236.52, 0.159438
5241.81, 0.160559
5247.12, 0.161612
5252.44, 0.162512
5257.76, 0.163378
5263.1, 0.164346
5268.45, 0.165331
5273.81, 0.166333
5279.18, 0.167539
5284.56, 0.168812
5289.95, 0.169781
5295.36, 0.171275
5300.77, 0.172838
5306.2, 0.173975
5311.63, 0.175011
5317.08, 0.175844
5322.54, 0.176506
5328.01, 0.177049
5333.49, 0.177440
5338.98, 0.177542
5344.49, 0.176896
5350.0, 0.176132
5355.53, 0.176489
5361.07, 0.176727
5366.62, 0.176438
5372.18, 0.175844
5377.75, 0.175096
5383.34, 0.174196
5388.93, 0.173262
5394.54, 0.172192
5400.16, 0.171071
5405.79, 0.169848
5411.44, 0.168558
5417.09, 0.166554
5422.76, 0.165076
5428.43, 0.165552
5434.12, 0.165518
5439.83, 0.164923
5445.54, 0.164533
5451.26, 0.164397
5457.0, 0.163853
5462.75, 0.163004
5468.52, 0.163463
5474.29, 0.163887
5480.08, 0.164193
5485.88, 0.165365
5491.69, 0.166180
5497.51, 0.166910
5503.35, 0.167641
5509.2, 0.168609
5515.06, 0.169118
5520.93, 0.169458
5526.82, 0.169967
5532.71, 0.170358
5538.63, 0.170171
5544.55, 0.169322
5550.49, 0.167963
5556.44, 0.166944
5562.4, 0.166044
5568.37, 0.164737
5574.36, 0.162478
5580.36, 0.161153
5586.37, 0.161561
5592.4, 0.161527
5598.44, 0.160678
5604.49, 0.160185
5610.56, 0.159879
5616.63, 0.159421
5622.73, 0.159387
5628.83, 0.158911
5634.95, 0.157434
5641.08, 0.155752
5647.23, 0.156160
5653.39, 0.156330
5659.56, 0.156534
5665.74, 0.156619
5671.94, 0.155362
5678.15, 0.155005
5684.38, 0.155226
5690.62, 0.154649
5696.87, 0.154784
5703.14, 0.154088
5709.42, 0.152509
5715.72, 0.152390
5722.03, 0.152594
5728.35, 0.152594
5734.69, 0.152033
5741.03, 0.151269
5747.4, 0.150437
5753.78, 0.150844
5760.17, 0.149095
5766.58, 0.147431
5773.0, 0.149469
5779.44, 0.150725
5785.88, 0.151303
5792.35, 0.151660
5798.83, 0.151524
5805.32, 0.151507
5811.83, 0.150590
5818.35, 0.148229
5824.89, 0.147974
5831.45, 0.149401
5838.01, 0.150369
5844.59, 0.150691
5851.19, 0.150335
5857.8, 0.149571
5864.43, 0.149146
5871.07, 0.148908
5877.73, 0.145868
5884.4, 0.145953
5891.09, 0.146463
5897.79, 0.145630
5904.5, 0.147023
5911.23, 0.146293
5917.98, 0.144374
5924.75, 0.142081
5931.53, 0.137716
5938.32, 0.134405
5945.13, 0.134235
5951.96, 0.132401
5958.8, 0.129564
5965.65, 0.125336
5972.53, 0.122635
5979.42, 0.120495
5986.32, 0.117472
5993.24, 0.115893
6000.18, 0.115519
6007.13, 0.114076
6014.1, 0.112768
6021.08, 0.112751
6028.09, 0.112717
6035.1, 0.111902
6042.14, 0.109066
6049.19, 0.107164
6056.25, 0.109881
6063.34, 0.110679
6070.44, 0.109558
6077.55, 0.110238
6084.69, 0.111630
6091.84, 0.111817
6099.0, 0.111477
6106.19, 0.110017
6113.39, 0.108760
6120.61, 0.109796
6127.84, 0.110289
6135.09, 0.109321
6142.36, 0.108115
6149.65, 0.107045
6156.95, 0.105482
6164.27, 0.104650
6171.61, 0.104090
6178.97, 0.102035
6186.34, 0.100608
6193.73, 0.101203
6201.14, 0.101220
6208.57, 0.100846
6216.01, 0.100744
6223.47, 0.100965
6230.95, 0.101237
6238.45, 0.101559
6245.97, 0.101984
6253.5, 0.102306
6261.06, 0.102510
6268.63, 0.102663
6276.21, 0.102799
6283.82, 0.102969
6291.45, 0.103190
6299.1, 0.103614
6306.76, 0.104090
6314.44, 0.104803
6322.14, 0.105669
6329.86, 0.106688
6337.6, 0.106790
6345.35, 0.107843
6353.13, 0.111019
6360.92, 0.112938
6368.74, 0.113957
6376.57, 0.116403
6384.43, 0.118695
6392.3, 0.120428
6400.19, 0.121226
6408.1, 0.119459
6416.03, 0.120020
6423.98, 0.123756
6431.95, 0.125641
6439.94, 0.127238
6447.95, 0.128155
6455.98, 0.128919
6464.03, 0.129276
6472.1, 0.128681
6480.19, 0.128019
6488.31, 0.126762
6496.44, 0.127509
6504.59, 0.130482
6512.76, 0.130991
6520.95, 0.130193
6529.16, 0.130889
6537.4, 0.130634
6545.65, 0.129225
6553.92, 0.127832
6562.22, 0.126372
6570.54, 0.124079
6578.88, 0.123807
6587.23, 0.123501
6595.61, 0.122907
6604.02, 0.122873
6612.44, 0.122330
6620.89, 0.121752
6629.35, 0.119969
6637.84, 0.119493
6646.35, 0.122635
6654.88, 0.125064
6663.44, 0.125624
6672.01, 0.125743
6680.61, 0.126168
6689.23, 0.127917
6697.88, 0.128936
6706.54, 0.128325
6715.23, 0.128427
6723.94, 0.129259
6732.67, 0.130006
6741.42, 0.130244
6750.2, 0.130040
6759.0, 0.129887
6767.82, 0.129072
6776.67, 0.128036
6785.54, 0.126779
6794.44, 0.126830
6803.35, 0.127985
6812.29, 0.127832
6821.26, 0.126541
6830.24, 0.126015
6839.25, 0.126134
6848.29, 0.124707
6857.35, 0.121990
6866.43, 0.121311
6875.54, 0.122958
6884.67, 0.123026
6893.82, 0.122415
6903.0, 0.121396
6912.2, 0.121124
6921.43, 0.120971
6930.69, 0.120478
6939.96, 0.119850
6949.27, 0.118576
6958.59, 0.116878
6967.95, 0.117371
6977.33, 0.117744
6986.73, 0.117150
6996.16, 0.116759
7005.61, 0.116793
7015.09, 0.116267
7024.6, 0.115774
7034.13, 0.114942
7043.69, 0.113498
7053.27, 0.113736
7062.88, 0.114348
7072.52, 0.114195
7082.18, 0.113855
7091.87, 0.113413
7101.58, 0.112904
7111.32, 0.112004
7121.09, 0.111342
7130.88, 0.110781
7140.71, 0.109524
7150.56, 0.108420
7160.43, 0.107520
7170.33, 0.106450
7180.27, 0.106230
7190.23, 0.105669
7200.21, 0.104514
7210.23, 0.103563
7220.27, 0.103241
7230.34, 0.102561
7240.44, 0.101797
7250.56, 0.100829
7260.72, 0.0998100
7270.9, 0.0985360
7281.12, 0.0975510
7291.36, 0.0968720
7301.63, 0.0959040
7311.93, 0.0948340
7322.25, 0.0936280
7332.61, 0.0920830
7343.0, 0.0907750
7353.41, 0.0896370
7363.86, 0.0883120
7374.33, 0.0867670
7384.83, 0.0854590
7395.37, 0.0844910
7405.93, 0.0839650
7416.53, 0.0837780
7427.15, 0.0836760
7437.81, 0.0834380
7448.5, 0.0829970
7459.22, 0.0821640
7469.96, 0.0812640
7480.74, 0.0803470
7491.55, 0.0793450
7502.39, 0.0783260
7513.27, 0.0774260
7524.17, 0.0767470
7535.11, 0.0761860
7546.08, 0.0755240
7557.08, 0.0748450
7568.11, 0.0740470
7579.17, 0.0730950
7590.27, 0.0721100
7601.4, 0.0712610
7612.56, 0.0703950
7623.76, 0.0695290
7634.98, 0.0686120
7646.24, 0.0676950
7657.54, 0.0667610
7668.87, 0.0658100
7680.23, 0.0647570
7691.62, 0.0636700
7703.05, 0.0624980
7714.51, 0.0613260
7726.01, 0.0601200
7737.54, 0.0589320
7749.11, 0.0577260
7760.71, 0.0565880
7772.35, 0.0554500
7784.02, 0.0543460
7795.72, 0.0532080
7807.46, 0.0520870
7819.23, 0.0509830
7831.04, 0.0497950
7842.89, 0.0485380
7854.77, 0.0471960
7866.69, 0.0458210
7878.65, 0.0445300
7890.64, 0.0431370
7902.67, 0.0417960
7914.74, 0.0404540
7926.84, 0.0391290
7938.98, 0.0377200
7951.16, 0.0363780
7963.37, 0.0350360
7975.62, 0.0336780
7987.91, 0.0323020
8000.24, 0.0310110
8012.6, 0.0297040
8025.01, 0.0284130
8037.45, 0.0271220
8049.93, 0.0258990
8062.45, 0.0246770
8075.01, 0.0235390
8087.61, 0.0223160
8100.24, 0.0211270
8112.91, 0.0199210
8125.63, 0.0188000
8138.39, 0.0176790
8151.18, 0.0166600
8164.02, 0.0155740
8176.9, 0.0145890
8189.81, 0.0136200
8202.77, 0.0127710
8215.77, 0.0119390
8228.82, 0.0111580
8241.9, 0.0104280
8255.02, 0.00974800
8268.19, 0.00906900
8281.39, 0.00857600
8294.65, 0.00810100
8307.94, 0.00767600
8321.28, 0.00730300
8334.66, 0.00694600
8348.08, 0.00660600
8361.54, 0.00642000
8375.05, 0.00625000
8388.6, 0.00614800
8402.2, 0.00604600
8415.84, 0.00608000
8429.52, 0.00613100
8443.25, 0.00635200
8457.02, 0.00662300
8470.84, 0.00703100
8484.7, 0.00750700
8498.61, 0.00815200
8512.57, 0.00900100
8526.57, 0.0100710
8540.62, 0.0112090
8554.71, 0.0126520
8568.85, 0.0143340
8583.04, 0.0163040
8597.27, 0.0184950
8611.55, 0.0209910
8625.88, 0.0237250
8640.26, 0.0267140
8654.68, 0.0296700
8669.16, 0.0327940
8683.68, 0.0358680
8698.25, 0.0385010
8712.87, 0.0401310
8727.53, 0.0403520
8742.25, 0.0392650
8757.02, 0.0387390
8771.83, 0.0404370
8786.7, 0.0439690
8801.62, 0.0479260
8816.59, 0.0512040
8831.61, 0.0532930
8846.68, 0.0541080
8861.8, 0.0537690
8876.97, 0.0528350
8892.2, 0.0519680
8907.48, 0.0519680
8922.81, 0.0530210
8938.2, 0.0549400
8953.63, 0.0571650
8969.13, 0.0592710
8984.67, 0.0611220
9000.27, 0.0626170
9015.92, 0.0638230
9031.63, 0.0647570
9047.39, 0.0653170
9063.21, 0.0657420
9079.08, 0.0660470
9095.01, 0.0661660
9111.0, 0.0662000
9127.04, 0.0663190
9143.13, 0.0664040
9159.28, 0.0664890
9175.49, 0.0665400
9191.76, 0.0666760
9208.09, 0.0668120
9224.47, 0.0670160
9240.92, 0.0673210
9257.42, 0.0677630
9273.98, 0.0681360
9290.6, 0.0685440
9307.28, 0.0689690
9324.02, 0.0693930
9340.82, 0.0697330
9357.68, 0.0700550
9374.6, 0.0702420
9391.58, 0.0702420
9408.62, 0.0699200
9425.73, 0.0693590
9442.9, 0.0684930
9460.13, 0.0673890
9477.42, 0.0659630
9494.78, 0.0643150
9512.2, 0.0625320
9529.69, 0.0605280
9547.24, 0.0582520
9564.86, 0.0557390
9582.54, 0.0530210
9600.28, 0.0500490
9618.1, 0.0468060
9635.97, 0.0434600
9653.92, 0.0402500
9671.93, 0.0372950
9690.01, 0.0347480
9708.16, 0.0327100
9726.37, 0.0311640
9744.65, 0.0302130
9763.0, 0.0298220
9781.43, 0.0301620
9799.92, 0.0311810
9818.48, 0.0327440
9837.1, 0.0346120
9855.8, 0.0365480
9874.58, 0.0382460
9893.42, 0.0396730
9912.34, 0.0405390
9931.33, 0.0404880
9950.39, 0.0397070
9969.52, 0.0385520
9988.74, 0.0374310
10008.0, 0.0367690
10027.4, 0.0371080
10046.8, 0.0387560
10066.3, 0.0411500
10085.9, 0.0435960
10105.6, 0.0459900
10125.3, 0.0487760
10145.1, 0.0522060
10165.0, 0.0561460
10185.0, 0.0597470
10205.0, 0.0623620
10225.2, 0.0633810
10245.4, 0.0626340
10265.7, 0.0602730
10286.0, 0.0570460
10306.5, 0.0540910
10327.0, 0.0525290
10347.6, 0.0528520
10368.3, 0.0543800
10389.1, 0.0561800
10409.9, 0.0575900
10430.9, 0.0583030
10451.9, 0.0584730
10473.0, 0.0580990
10494.2, 0.0571820
10515.5, 0.0558070
10536.9, 0.0543120
10558.4, 0.0528010
10579.9, 0.0514250
10601.5, 0.0501680
10623.3, 0.0492850
10645.1, 0.0486740
10667.0, 0.0483850
10689.0, 0.0485890
10711.1, 0.0492170
10733.2, 0.0498120
10755.5, 0.0501340
10777.9, 0.0498960
10800.3, 0.0488100
10822.9, 0.0468730
10845.5, 0.0442580
10868.2, 0.0408950
10891.1, 0.0372780
10914.0, 0.0337620
10937.0, 0.0308070
10960.2, 0.0287190
10983.4, 0.0276830
11006.7, 0.0277330
11030.1, 0.0285320
11053.6, 0.0295340
11077.3, 0.0302300
11101.0, 0.0303150
11124.8, 0.0301450
11148.7, 0.0301620
11172.7, 0.0308410
11196.9, 0.0326760
11221.1, 0.0358000
11245.4, 0.0396390
11269.9, 0.0434260
11294.4, 0.0465510
11319.1, 0.0489110
11343.9, 0.0504400
11368.8, 0.0513060
11393.7, 0.0516630
11418.8, 0.0516460
11444.0, 0.0513230
11469.4, 0.0508480
11494.8, 0.0502190
11520.3, 0.0494890
11546.0, 0.0487080
11571.8, 0.0479600
11597.7, 0.0470770
11623.7, 0.0460750
11649.8, 0.0450560
11676.0, 0.0439350
11702.4, 0.0425430
11728.9, 0.0410480
11755.5, 0.0394690
11782.2, 0.0380930
11809.0, 0.0370060
11836.0, 0.0362250
11863.0, 0.0357500
11890.3, 0.0354440
11917.6, 0.0353080
11945.0, 0.0352740
11972.6, 0.0352060
12000.4, 0.0353760
12028.2, 0.0356310
12056.2, 0.0360890
12084.3, 0.0367350
12112.5, 0.0375160
12140.9, 0.0383650
12169.4, 0.0392990
12198.0, 0.0401650
12226.8, 0.0408440
12255.7, 0.0414220
12284.7, 0.0421860
12313.9, 0.0429160
12343.2, 0.0435620
12372.7, 0.0441730
12402.3, 0.0447510
12432.0, 0.0453110
12461.9, 0.0457870
12491.9, 0.0461600
12522.1, 0.0464150
12552.4, 0.0465340
12582.9, 0.0467380
12613.5, 0.0468730
12644.3, 0.0469410
12675.2, 0.0469750
12706.3, 0.0471790
12737.5, 0.0473150
12768.9, 0.0474510
12800.4, 0.0475870
12832.1, 0.0477740
12863.9, 0.0478420
12895.9, 0.0478420
12928.1, 0.0477400
12960.4, 0.0473150
12992.9, 0.0464490
13025.5, 0.0455320
13058.3, 0.0444280
13091.3, 0.0431200
13124.4, 0.0417960
13157.8, 0.0405050
13191.2, 0.0389760
13224.9, 0.0372270
13258.7, 0.0352400
13292.7, 0.0329640
13326.9, 0.0301790
13361.2, 0.0271900
13395.7, 0.0247270
13430.4, 0.0233350
13465.3, 0.0230970
13500.4, 0.0231990
13535.7, 0.0229100
13571.1, 0.0220270
13606.7, 0.0207530
13642.5, 0.0194630
13678.5, 0.0186980
13714.7, 0.0189020
13751.1, 0.0194120
13787.6, 0.0197170
13824.4, 0.0197000
13861.4, 0.0197850
13898.5, 0.0200740
13935.9, 0.0204480
13973.5, 0.0207700
14011.2, 0.0210590
14049.2, 0.0211270
14087.4, 0.0211440
14125.8, 0.0209570
14164.3, 0.0204650
14203.2, 0.0199210
14242.2, 0.0195990
14281.4, 0.0194800
14320.9, 0.0198530
14360.5, 0.0205500
14400.4, 0.0213820
14440.5, 0.0218230
14480.9, 0.0216540
14521.4, 0.0207360
14562.2, 0.0194630
14603.3, 0.0181890
14644.5, 0.0171870
14686.0, 0.0163550
14727.7, 0.0157770
14769.7, 0.0155230
14811.9, 0.0157090
14854.3, 0.0158450
14897.0, 0.0155060
14939.9, 0.0146220
14983.1, 0.0136370
15026.5, 0.0125340
15070.2, 0.0113960
15114.2, 0.0103260
15158.3, 0.00971400
15202.8, 0.00981600
15247.5, 0.0105810
15292.5, 0.0115830
15337.7, 0.0126690
15383.2, 0.0136370
15429.0, 0.0145890
15475.1, 0.0150640
15521.4, 0.0150300
15568.0, 0.0149960
15614.9, 0.0147580
15662.1, 0.0142490
15709.6, 0.0137900
15757.3, 0.0137220
15805.4, 0.0139260
15853.7, 0.0142830
15902.3, 0.0149620
15951.2, 0.0160150
16000.5, 0.0174760
16050.0, 0.0192420
16099.8, 0.0215350
16150.0, 0.0242180
16200.5, 0.0270710
16251.3, 0.0300090
16302.4, 0.0332020
16353.8, 0.0363270
16405.5, 0.0391120
16457.6, 0.0414560
16510.0, 0.0438170
16562.8, 0.0461090
16615.9, 0.0480450
16669.3, 0.0495400
16723.1, 0.0511190
16777.2, 0.0524950
16831.7, 0.0535140
16886.5, 0.0544480
16941.7, 0.0553480
16997.2, 0.0559760
17053.1, 0.0565880
17109.4, 0.0572840
17166.1, 0.0580650
17223.1, 0.0589320
17280.5, 0.0593900
17338.3, 0.0595090
17396.5, 0.0594580
17455.1, 0.0588130
17514.0, 0.0573180
17573.4, 0.0553480
17633.2, 0.0534970
17693.4, 0.0518500
17754.0, 0.0507970
17815.0, 0.0507460
17876.4, 0.0520700
17938.3, 0.0540400
18000.5, 0.0557050
18063.3, 0.0574540
18126.4, 0.0593390
18190.0, 0.0609530
18254.1, 0.0623110
18318.6, 0.0624470
18383.5, 0.0612410
18449.0, 0.0593390
18514.9, 0.0574710
18581.2, 0.0558410
18648.0, 0.0548220
18715.4, 0.0535480
18783.2, 0.0518500
18851.5, 0.0511700
18920.3, 0.0526480
18989.6, 0.0566220
19059.4, 0.0623110
19129.7, 0.0688330
19200.6, 0.0743860
19272.0, 0.0782240
19343.9, 0.0806020
19416.3, 0.0819610
19489.3, 0.0828270
19562.8, 0.0828440
19637.0, 0.0823340
19711.6, 0.0814850
19786.8, 0.0805000
19862.6, 0.0787680
19939.0, 0.0766790
20016.0, 0.0742330
20093.6, 0.0711250
20171.8, 0.0676610
20250.6, 0.0646210
20330.0, 0.0616830
20410.0, 0.0585240
20490.7, 0.0556540
20572.0, 0.0533780
20654.0, 0.0513740
20736.6, 0.0491320
20819.9, 0.0462790
20903.8, 0.0439180
20988.5, 0.0416600
21073.8, 0.0394860
21159.8, 0.0390950
21246.5, 0.0402840
21334.0, 0.0416940
21422.1, 0.0430010
21511.0, 0.0443940
21600.7, 0.0468400
21691.0, 0.0499470
21782.1, 0.0529190
21874.0, 0.0550930
21966.7, 0.0568090
22060.2, 0.0577770
22154.5, 0.0583880
22249.6, 0.0573180
22345.5, 0.0562630
22442.2, 0.0542630
22539.8, 0.0511000
22638.2, 0.0472940
22737.5, 0.0449060
22837.7, 0.0436100
22938.7, 0.0412580
23040.7, 0.0393430
23143.5, 0.0384460
23247.3, 0.0381800
23352.1, 0.0364220
23457.7, 0.0340830
23564.4, 0.0326410
23672.0, 0.0318280
23780.5, 0.0299860
23890.1, 0.0286170
24000.7, 0.0275500
24112.3, 0.0271140
24225.0, 0.0267860
24338.7, 0.0264470
24453.5, 0.0285070
24569.4, 0.0303620
24686.4, 0.0323380
24804.5, 0.0355980
24923.8, 0.0368950
25044.2, 0.0361430
25165.8, 0.0382400
25288.6, 0.0403010
25412.5, 0.0389800
25537.7, 0.0378400
25664.1, 0.0366890
25791.8, 0.0351980
25920.8, 0.0334160
26051.1, 0.0313680
26182.6, 0.0304830
26315.5, 0.0305070
26449.8, 0.0309800
26585.4, 0.0313560
26722.5, 0.0322160
26860.9, 0.0337310
27000.8, 0.0352460
27142.1, 0.0355010
27285.0, 0.0354040
27429.4, 0.0346040
27575.3, 0.0351620
27722.7, 0.0368710
27871.8, 0.0400460
28022.4, 0.0459000
28174.7, 0.0496820
28328.7, 0.0522760
28484.4, 0.0540940
28641.7, 0.0561180
28800.9, 0.0569180
28961.8, 0.0551480
29124.5, 0.0532450
29289.0, 0.0511610
29455.4, 0.0488210
29623.8, 0.0479970
29794.0, 0.0495490
29966.3, 0.0518150
30140.5, 0.0533300
30316.7, 0.0527970
30495.1, 0.0505060
30675.5, 0.0487370
30858.1, 0.0447970
31042.8, 0.0429790
31229.8, 0.0436940
31419.1, 0.0440340
31610.7, 0.0432460
31804.6, 0.0429190
32000.9, 0.0438400
32199.7, 0.0443490
32400.9, 0.0450760
32604.8, 0.0449060
32811.1, 0.0427130
33020.1, 0.0400220
33231.8, 0.0400580
33446.2, 0.0414520
33663.4, 0.0411850
33883.4, 0.0403730
34106.3, 0.0411130
34332.1, 0.0405790
34561.0, 0.0397790
34792.9, 0.0402890
35028.0, 0.0412100
35266.3, 0.0403730
35507.8, 0.0375250
35752.7, 0.0357310
36001.0, 0.0345680
36252.8, 0.0358280
36508.1, 0.0371610
36767.0, 0.0387730
37029.7, 0.0411010
37296.1, 0.0431970
37566.3, 0.0434640
37840.5, 0.0444340
38118.8, 0.0457550
38401.2, 0.0441670
38687.8, 0.0437670
38978.6, 0.0443490
39273.9, 0.0432100
39573.7, 0.0456220
39878.1, 0.0481180
40187.3, 0.0462880
40501.2, 0.0450400
40820.0, 0.0444340
41144.0, 0.0427490
41473.2, 0.0399730
41807.6, 0.0354650
42147.5, 0.0322040
42493.0, 0.0303500
42844.2, 0.0285800
43201.2, 0.0285920
43564.3, 0.0302650
43933.5, 0.0317680
44309.0, 0.0364100
44691.0, 0.0414640
45079.6, 0.0427130
45475.0, 0.0460090
45877.5, 0.0477910
46287.1, 0.0462030
46704.2, 0.0455850
47128.7, 0.0471370
47561.1, 0.0461550
48001.5, 0.0454280
48450.1, 0.0480580
48907.2, 0.0475610
49373.0, 0.0439610
49847.7, 0.0444580
50331.5, 0.0463970
50825.0, 0.0468700
51328.2, 0.0441670
51841.5, 0.0438040
52365.1, 0.0465670
52899.4, 0.0455120
53444.8, 0.0447000
54001.5, 0.0441190
54570.1, 0.0439730
55150.6, 0.0453550
55743.6, 0.0450030
56349.5, 0.0438160
56968.7, 0.0463850
57601.7, 0.0491490
58248.9, 0.0496580
58910.9, 0.0524210
59588.1, 0.0536700
60281.0, 0.0536210
60990.2, 0.0568090
61716.3, 0.0574150
62459.8, 0.0570510
63221.6, 0.0595360
64002.1, 0.0633660
64802.1, 0.0626990
65622.1, 0.0592570
66463.4, 0.0591480
67326.6, 0.0665540
68212.4, 0.0707960
69121.9, 0.0675110
70056.0, 0.0589900
71015.7, 0.0493910
72002.0, 0.0457550
73016.3, 0.0484820
74059.4, 0.0499360
75132.7, 0.0533420
76237.6, 0.0650270
77375.5, 0.0774380
78547.9, 0.0837530
79756.3, 0.0890740
81002.5, 0.0910370
82288.5, 0.0874370
83615.7, 0.0907100
84986.5, 0.0994240
86402.9, 0.108054
87867.4, 0.109303
89382.4, 0.101509
90950.5, 0.0995940
92574.6, 0.102346
94257.2, 0.101958
96002.7, 0.104745
97814.1, 0.103848
99695.1, 0.0954000
101650.0, 0.0940430
103683.0, 0.0972190
105799.0, 0.0992790
108003.0, 0.0977030
110301.0, 0.0891580
112699.0, 0.0760200
115204.0, 0.0761890
117822.0, 0.0827590
120562.0, 0.0777890
123433.0, 0.0698140
126443.0, 0.0679350
129604.0, 0.0691350
132926.0, 0.0655960
136424.0, 0.0575000
140111.0, 0.0619360
144003.0, 0.0609420
148118.0, 0.0579480
152474.0, 0.0586750
157095.0, 0.0436580
162004.0, 0.0394760
167231.0, 0.0347130
172805.0, 0.0388830
178764.0, 0.0358890
185148.0, 0.0191140
192005.0, 0.0164960
199390.0, 0.0236230
207366.0, 0.0593900
216006.0, 0.111884
