Database of Origin, USGS Spectral Database
Sample Description, See USGS database for additional info
Date Added,2016-08-10 02:53:51.617036

Data ID,USGS_hec01          
Sample ID, hectorite_shca-1.9093
Mineral Name, hectorite
Material Class,Phyllosilicate

Wavelength
253.6, 0.310134
258.6, 0.313433
263.6, 0.317119
268.6, 0.319079
273.1, 0.328052
277.1, 0.346520
281.1, 0.352424
285.1, 0.361325
289.1, 0.373927
293.1, 0.396205
297.1, 0.411082
301.1, 0.421240
305.1, 0.441500
309.1, 0.458558
313.1, 0.479942
317.1, 0.483340
321.1, 0.488052
325.1, 0.506221
329.1, 0.507474
333.1, 0.524650
337.1, 0.524125
341.1, 0.535210
345.1, 0.541753
349.1, 0.542034
353.1, 0.545336
357.1, 0.549110
360.6, 0.552128
363.6, 0.555150
366.6, 0.557294
369.6, 0.561091
372.6, 0.563088
375.6, 0.568542
378.6, 0.571674
381.1, 0.573861
383.1, 0.575424
385.1, 0.575496
387.1, 0.587480
389.1, 0.587259
391.1, 0.586799
393.1, 0.588280
395.1, 0.590906
397.1, 0.592890
399.1, 0.591478
401.1, 0.594423
403.1, 0.597170
405.1, 0.601428
409.1, 0.597685
411.1, 0.605993
412.8, 0.607819
415.8, 0.605472
418.8, 0.609499
421.8, 0.613201
424.8, 0.613346
427.8, 0.614965
430.8, 0.617919
433.8, 0.618296
436.8, 0.624872
439.8, 0.626636
442.8, 0.629837
445.8, 0.632288
448.8, 0.636235
451.3, 0.643093
453.3, 0.639884
455.3, 0.640435
457.3, 0.646110
459.3, 0.648481
461.3, 0.641682
463.3, 0.647300
465.3, 0.644681
467.3, 0.651745
469.3, 0.645375
471.3, 0.648499
473.3, 0.652569
475.3, 0.649247
477.3, 0.649746
479.3, 0.655716
481.3, 0.651689
483.3, 0.657902
485.3, 0.655087
487.3, 0.657378
489.3, 0.657651
491.3, 0.658968
493.3, 0.662919
495.3, 0.660090
497.3, 0.665790
499.3, 0.660004
501.3, 0.667678
503.3, 0.663780
505.3, 0.665711
507.3, 0.673260
509.3, 0.672801
511.3, 0.670637
513.3, 0.672501
515.3, 0.673158
517.3, 0.669120
519.3, 0.677408
521.3, 0.679462
523.3, 0.680966
525.3, 0.683992
527.3, 0.684559
529.3, 0.680508
531.3, 0.689474
533.3, 0.689118
535.3, 0.684954
537.3, 0.694503
539.3, 0.688652
541.3, 0.692927
543.3, 0.696653
545.3, 0.693305
547.3, 0.699327
549.3, 0.698056
551.3, 0.699959
553.3, 0.703296
555.3, 0.705906
557.3, 0.707306
559.3, 0.705938
561.3, 0.711050
563.3, 0.712044
565.3, 0.716187
567.3, 0.713560
569.3, 0.714340
571.3, 0.719227
573.3, 0.726568
575.3, 0.725644
577.3, 0.725879
579.3, 0.728649
581.3, 0.727701
583.3, 0.728481
585.3, 0.731161
587.3, 0.734208
589.3, 0.737182
591.3, 0.739833
593.3, 0.737076
595.3, 0.738358
597.3, 0.737564
599.3, 0.741488
601.1, 0.742176
602.7, 0.743532
604.3, 0.740954
605.9, 0.743797
607.5, 0.743623
609.1, 0.743133
610.7, 0.749877
612.3, 0.743626
613.9, 0.748784
615.5, 0.748160
617.1, 0.744635
618.7, 0.745338
620.3, 0.746256
621.9, 0.749502
623.5, 0.751790
625.1, 0.753994
626.7, 0.747039
628.3, 0.749324
629.9, 0.753039
631.7, 0.751892
633.7, 0.753165
635.7, 0.756708
637.7, 0.752683
639.7, 0.755750
641.7, 0.753860
643.7, 0.753300
645.7, 0.754167
647.7, 0.757026
649.7, 0.752776
651.7, 0.756920
653.7, 0.758621
655.7, 0.757482
657.7, 0.759510
659.7, 0.760191
661.7, 0.761553
663.7, 0.761042
665.7, 0.762107
667.7, 0.759330
670.2, 0.761752
673.2, 0.760761
676.2, 0.763142
679.2, 0.762432
682.2, 0.766591
685.2, 0.764915
688.2, 0.766945
691.2, 0.770722
694.2, 0.765439
697.2, 0.768875
700.2, 0.768443
702.0, 0.770864
704.0, 0.769203
708.0, 0.773379
710.0, 0.771293
712.0, 0.769214
714.0, 0.768860
716.0, 0.774460
718.0, 0.771503
720.0, 0.775338
722.0, 0.773092
724.0, 0.774662
726.0, 0.775953
728.0, 0.774584
730.0, 0.774356
732.0, 0.776197
734.0, 0.777823
736.0, 0.777301
738.0, 0.778583
740.0, 0.779492
742.0, 0.776652
744.0, 0.779659
746.0, 0.779492
748.0, 0.775451
750.5, 0.780581
753.5, 0.780630
756.5, 0.781471
759.5, 0.780529
762.5, 0.783028
765.5, 0.776752
768.5, 0.780729
771.5, 0.781157
774.5, 0.781170
777.5, 0.786583
781.0, 0.783114
785.0, 0.781526
789.0, 0.784948
793.0, 0.785916
797.0, 0.786147
801.5, 0.784968
806.5, 0.786662
811.5, 0.786200
816.5, 0.786981
822.0, 0.786164
828.0, 0.787652
835.0, 0.788162
851.0, 0.787884
859.0, 0.784991
871.0, 0.784171
883.0, 0.785292
894.0, 0.782650
904.0, 0.785538
914.0, 0.781299
924.0, 0.783747
933.0, 0.782261
941.0, 0.782951
949.0, 0.779866
957.0, 0.778912
964.0, 0.780973
970.0, 0.781582
976.0, 0.782677
982.0, 0.779558
988.0, 0.785213
994.0, 0.780708
1000.0, 0.782803
1006.0, 0.782969
1012.0, 0.781624
1018.0, 0.784326
1023.5, 0.781258
1028.5, 0.783699
1033.5, 0.781362
1038.5, 0.781102
1043.5, 0.784951
1048.5, 0.784151
1053.5, 0.785774
1058.5, 0.781722
1063.5, 0.784952
1068.5, 0.784042
1073.5, 0.782878
1078.5, 0.783216
1083.5, 0.784499
1088.5, 0.781528
1093.5, 0.785214
1098.5, 0.784056
1103.5, 0.783623
1108.5, 0.782928
1113.5, 0.783208
1118.5, 0.783945
1123.5, 0.782250
1128.5, 0.782410
1133.5, 0.782083
1138.5, 0.782054
1143.5, 0.779005
1148.5, 0.779169
1153.5, 0.775958
1158.5, 0.778340
1163.5, 0.780054
1168.5, 0.781956
1173.5, 0.778457
1178.5, 0.782135
1183.5, 0.778815
1188.5, 0.781045
1193.5, 0.780185
1198.5, 0.780292
1203.5, 0.782247
1208.5, 0.780587
1213.5, 0.781767
1218.5, 0.782222
1223.5, 0.783055
1228.5, 0.782683
1233.5, 0.781275
1238.5, 0.780476
1243.5, 0.779767
1248.5, 0.783066
1253.5, 0.781127
1258.5, 0.781041
1263.5, 0.782669
1268.5, 0.779349
1273.5, 0.777993
1278.5, 0.779069
1283.5, 0.778424
1288.5, 0.776709
1293.5, 0.775141
1298.5, 0.775231
1303.5, 0.775585
1308.5, 0.777287
1313.5, 0.775051
1318.5, 0.772962
1323.5, 0.772535
1328.5, 0.774494
1333.5, 0.771830
1338.5, 0.771481
1343.5, 0.771129
1348.5, 0.770420
1353.5, 0.766692
1358.5, 0.767989
1363.5, 0.767483
1368.5, 0.760099
1373.5, 0.750878
1378.5, 0.729203
1383.5, 0.702088
1388.5, 0.689117
1393.5, 0.704239
1398.5, 0.700249
1403.5, 0.689193
1408.5, 0.675702
1413.5, 0.678824
1418.5, 0.687233
1423.5, 0.692992
1428.5, 0.701069
1433.5, 0.708221
1438.5, 0.711873
1443.5, 0.716391
1448.5, 0.717132
1453.5, 0.717355
1458.5, 0.716565
1463.5, 0.720510
1468.5, 0.726149
1473.5, 0.731853
1478.5, 0.733803
1483.5, 0.737060
1488.5, 0.742127
1493.5, 0.742861
1498.5, 0.743913
1503.5, 0.749694
1508.5, 0.744958
1513.5, 0.753126
1518.5, 0.753231
1523.5, 0.756188
1528.5, 0.756258
1534.0, 0.761281
1540.0, 0.760025
1546.0, 0.761117
1552.0, 0.764165
1558.0, 0.763845
1564.0, 0.763300
1570.5, 0.763224
1577.5, 0.763586
1584.5, 0.766577
1591.5, 0.770063
1598.5, 0.768822
1605.5, 0.767804
1612.5, 0.769538
1619.5, 0.772596
1626.5, 0.770959
1633.5, 0.770642
1640.5, 0.770308
1647.5, 0.769992
1654.5, 0.774372
1661.5, 0.772309
1668.5, 0.774043
1676.0, 0.769607
1684.0, 0.773457
1692.0, 0.774522
1700.0, 0.770264
1708.0, 0.770867
1716.0, 0.769935
1724.0, 0.768133
1732.0, 0.768048
1740.0, 0.768236
1748.0, 0.762529
1756.0, 0.766735
1764.0, 0.759085
1772.0, 0.760096
1780.0, 0.757515
1788.0, 0.755792
1796.0, 0.754438
1805.0, 0.750500
1815.0, 0.750165
1825.0, 0.751093
1835.0, 0.746391
1845.0, 0.740502
1855.0, 0.732094
1865.0, 0.718531
1875.0, 0.679347
1885.0, 0.618848
1895.0, 0.539609
1905.0, 0.502619
1915.0, 0.533178
1925.0, 0.571982
1935.0, 0.591346
1945.0, 0.604435
1955.0, 0.609517
1965.0, 0.625174
1975.0, 0.631192
1985.0, 0.643420
1995.0, 0.652244
2005.0, 0.669771
2015.0, 0.676741
2025.0, 0.689423
2035.0, 0.696404
2045.0, 0.700228
2055.0, 0.705905
2065.0, 0.707776
2075.0, 0.710669
2085.0, 0.711661
2095.0, 0.712771
2105.0, 0.721006
2115.0, 0.720586
2125.0, 0.725554
2135.0, 0.729013
2145.0, 0.726085
2155.0, 0.722948
2165.0, 0.722486
2175.0, 0.719952
2185.0, 0.721839
2195.0, 0.711655
2205.0, 0.711729
2215.0, 0.712715
2225.0, 0.704538
2235.0, 0.700797
2245.0, 0.700856
2255.0, 0.699056
2265.0, 0.690376
2275.0, 0.677474
2285.0, 0.652296
2295.0, 0.624810
2305.0, 0.590598
2315.0, 0.600123
2325.0, 0.643972
2335.0, 0.638147
2345.0, 0.635281
2355.0, 0.639087
2365.0, 0.637923
2375.0, 0.624748
2386.0, 0.610784
2400.0, 0.609941
2418.0, 0.597510
2440.0, 0.576455
2466.0, 0.549728
2496.0, 0.525270
2528.0, 0.503917
2560.0, 0.498375
2592.0, 0.499524
2624.0, 0.482623
2656.0, 0.439388
2688.0, 0.314827
2720.0, 0.132711
2752.0, 0.0980840
2784.0, 0.0760790
2816.0, 0.0921860
2848.0, 0.0851590
2880.0, 0.0801400
2912.0, 0.0778000
2944.0, 0.0821480
2976.0, 0.0886680
