Database of Origin,USGS Spectral Database
Sample Description,See USGS database for additional info
Date Added,2017-02-22 02:49:16.320742

Data ID,USGS_thu02          
Sample ID,thuringite_smr15.21765
Mineral Name,thuringite

Wavelength
1374.38, 0.165830
1374.74, 0.166368
1375.11, 0.166829
1375.47, 0.166752
1375.84, 0.166214
1376.2, 0.166137
1376.57, 0.166521
1376.93, 0.167597
1377.3, 0.168289
1377.67, 0.168135
1378.03, 0.167674
1378.4, 0.167136
1378.76, 0.167828
1379.13, 0.167905
1379.5, 0.167828
1379.87, 0.167751
1380.23, 0.168443
1380.6, 0.169134
1380.97, 0.168827
1381.34, 0.168519
1381.7, 0.168212
1382.07, 0.168519
1382.44, 0.169057
1382.81, 0.169365
1383.18, 0.169518
1383.55, 0.169211
1383.92, 0.169134
1384.29, 0.169365
1384.66, 0.169903
1385.03, 0.170133
1385.4, 0.170517
1385.77, 0.170364
1386.14, 0.169672
1386.51, 0.169595
1386.88, 0.170210
1387.25, 0.170517
1387.62, 0.170825
1387.99, 0.171055
1388.36, 0.170978
1388.74, 0.170902
1389.11, 0.171209
1389.48, 0.170594
1389.85, 0.170133
1390.23, 0.170825
1390.6, 0.171516
1390.97, 0.171516
1391.35, 0.171286
1391.72, 0.170517
1392.09, 0.170594
1392.47, 0.170902
1392.84, 0.170671
1393.21, 0.170978
1393.59, 0.171055
1393.96, 0.170517
1394.34, 0.170210
1394.71, 0.169442
1395.09, 0.169134
1395.46, 0.169442
1395.84, 0.169595
1396.22, 0.169134
1396.59, 0.168827
1396.97, 0.169288
1397.35, 0.169518
1397.72, 0.169057
1398.1, 0.168596
1398.48, 0.168443
1398.85, 0.168058
1399.23, 0.167213
1399.61, 0.166829
1399.99, 0.166906
1400.37, 0.166598
1400.74, 0.166214
1401.12, 0.165984
1401.5, 0.165215
1401.88, 0.163678
1402.26, 0.163063
1402.64, 0.162910
1403.02, 0.162141
1403.4, 0.161373
1403.78, 0.160835
1404.16, 0.160374
1404.54, 0.159298
1404.92, 0.159221
1405.3, 0.158991
1405.68, 0.158683
1406.06, 0.158530
1406.44, 0.158453
1406.83, 0.158376
1407.21, 0.158607
1407.59, 0.158453
1407.97, 0.158222
1408.35, 0.157838
1408.74, 0.157608
1409.12, 0.157454
1409.5, 0.157146
1409.89, 0.156839
1410.27, 0.156455
1410.65, 0.155610
1411.04, 0.154841
1411.42, 0.154534
1411.81, 0.154226
1412.19, 0.153227
1412.58, 0.152690
1412.96, 0.152920
1413.35, 0.152920
1413.73, 0.152843
1414.12, 0.153458
1414.5, 0.153842
1414.89, 0.154303
1415.28, 0.155302
1415.66, 0.156071
1416.05, 0.157223
1416.44, 0.158376
1416.82, 0.159144
1417.21, 0.160604
1417.6, 0.162064
1417.98, 0.162833
1418.37, 0.163755
1418.76, 0.164677
1419.15, 0.165676
1419.54, 0.166983
1419.93, 0.168135
1420.32, 0.168519
1420.71, 0.169211
1421.09, 0.170441
1421.48, 0.170978
1421.88, 0.171286
1422.27, 0.171824
1422.66, 0.172208
1423.05, 0.172746
1423.44, 0.173284
1423.83, 0.173899
1424.22, 0.174436
1424.61, 0.174590
1425.0, 0.174821
1425.39, 0.174667
1425.78, 0.174821
1426.18, 0.175282
1426.57, 0.175973
1426.96, 0.176050
1427.36, 0.176204
1427.75, 0.176588
1428.14, 0.176972
1428.54, 0.177049
1428.93, 0.176972
1429.32, 0.176819
1429.72, 0.176588
1430.11, 0.176511
1430.51, 0.176742
1430.9, 0.177356
1431.3, 0.177433
1431.69, 0.177356
1432.09, 0.177587
1432.48, 0.177356
1432.88, 0.177280
1433.28, 0.177971
1433.67, 0.178279
1434.07, 0.178202
1434.46, 0.178432
1434.86, 0.178355
1435.26, 0.178125
1435.66, 0.177818
1436.05, 0.177356
1436.45, 0.177741
1436.85, 0.178355
1437.25, 0.178202
1437.65, 0.178202
1438.05, 0.178202
1438.44, 0.178279
1438.84, 0.178355
1439.24, 0.178048
1439.64, 0.178279
1440.04, 0.178509
1440.44, 0.178355
1440.84, 0.178740
1441.24, 0.178970
1441.65, 0.178663
1442.05, 0.178817
1442.45, 0.179431
1442.85, 0.179585
1443.25, 0.179585
1443.65, 0.179662
1444.05, 0.179278
1444.46, 0.179124
1444.86, 0.179278
1445.26, 0.179662
1445.67, 0.179969
1446.07, 0.179739
1446.47, 0.179816
1446.88, 0.180123
1447.28, 0.180277
1447.68, 0.180353
1448.09, 0.180353
1448.49, 0.180507
1448.9, 0.180353
1449.3, 0.180507
1449.71, 0.180661
1450.11, 0.180584
1450.52, 0.180891
1450.93, 0.181276
1451.33, 0.181506
1451.74, 0.181660
1452.14, 0.181890
1452.55, 0.181583
1452.96, 0.181813
1453.36, 0.182198
1453.77, 0.182351
1454.18, 0.182275
1454.59, 0.182198
1455.0, 0.182351
1455.41, 0.182505
1455.81, 0.182275
1456.22, 0.182736
1456.63, 0.182966
1457.04, 0.183120
1457.45, 0.183274
1457.86, 0.183197
1458.27, 0.183581
1458.68, 0.183965
1459.09, 0.184272
1459.5, 0.184272
1459.91, 0.184580
1460.32, 0.185041
1460.74, 0.184887
1461.15, 0.184887
1461.56, 0.184810
1461.97, 0.184964
1462.39, 0.185425
1462.8, 0.185733
1463.21, 0.185425
1463.62, 0.185041
1464.04, 0.185579
1464.45, 0.186117
1464.86, 0.186117
1465.28, 0.186194
1465.69, 0.186578
1466.11, 0.186732
1466.52, 0.186347
1466.94, 0.186424
1467.35, 0.186655
1467.77, 0.186655
1468.18, 0.187116
1468.6, 0.187423
1469.02, 0.187423
1469.43, 0.187730
1469.85, 0.188192
1470.27, 0.187961
1470.68, 0.187730
1471.1, 0.187654
1471.52, 0.187577
1471.94, 0.187884
1472.35, 0.188115
1472.77, 0.188806
1473.19, 0.189344
1473.61, 0.189267
1474.03, 0.189652
1474.45, 0.189575
1474.87, 0.188960
1475.29, 0.189191
1475.71, 0.189882
1476.13, 0.190189
1476.55, 0.189959
1476.97, 0.189959
1477.39, 0.189959
1477.81, 0.190497
1478.23, 0.190727
1478.65, 0.190574
1479.07, 0.190497
1479.5, 0.190958
1479.92, 0.190958
1480.34, 0.191265
1480.76, 0.191726
1481.19, 0.191803
1481.61, 0.192034
1482.03, 0.192418
1482.46, 0.192418
1482.88, 0.192187
1483.31, 0.192187
1483.73, 0.192264
1484.16, 0.192034
1484.58, 0.192034
1485.01, 0.192264
1485.43, 0.192649
1485.86, 0.192879
1486.28, 0.193033
1486.71, 0.193571
1487.14, 0.193878
1487.56, 0.193647
1487.99, 0.193647
1488.42, 0.193878
1488.84, 0.194185
1489.27, 0.194646
1489.7, 0.194339
1490.13, 0.193955
1490.56, 0.194493
1490.98, 0.194954
1491.41, 0.195031
1491.84, 0.195031
1492.27, 0.195261
1492.7, 0.195645
1493.13, 0.195722
1493.56, 0.195569
1493.99, 0.195492
1494.42, 0.195645
1494.85, 0.196183
1495.29, 0.196414
1495.72, 0.196568
1496.15, 0.196568
1496.58, 0.196568
1497.01, 0.196568
1497.44, 0.196952
1497.88, 0.196952
1498.31, 0.197182
1498.74, 0.197567
1499.18, 0.197490
1499.61, 0.197490
1500.04, 0.197720
1500.48, 0.197413
1500.91, 0.197336
1501.35, 0.197643
1501.78, 0.198258
1502.22, 0.198566
1502.65, 0.198566
1503.09, 0.199027
1503.53, 0.199718
1503.96, 0.199718
1504.4, 0.199334
1504.83, 0.199103
1505.27, 0.199411
1505.71, 0.199641
1506.15, 0.199257
1506.58, 0.198950
1507.02, 0.198950
1507.46, 0.198873
1507.9, 0.199488
1508.34, 0.200256
1508.78, 0.200333
1509.21, 0.200487
1509.66, 0.200948
1510.09, 0.200871
1510.53, 0.200948
1510.97, 0.201101
1511.42, 0.201178
1511.86, 0.201025
1512.3, 0.201025
1512.74, 0.201486
1513.18, 0.201947
1513.62, 0.201793
1514.06, 0.202024
1514.51, 0.202561
1514.95, 0.202638
1515.39, 0.202561
1515.83, 0.202638
1516.28, 0.202638
1516.72, 0.202715
1517.16, 0.202869
1517.61, 0.202792
1518.05, 0.202715
1518.5, 0.202715
1518.94, 0.202715
1519.39, 0.203099
1519.83, 0.203484
1520.28, 0.203868
1520.73, 0.204175
1521.17, 0.204329
1521.62, 0.204098
1522.07, 0.203868
1522.51, 0.203868
1522.96, 0.204098
1523.41, 0.204329
1523.85, 0.204406
1524.3, 0.204483
1524.75, 0.204944
1525.2, 0.205174
1525.65, 0.205174
1526.1, 0.205328
1526.55, 0.205405
1527.0, 0.205866
1527.45, 0.205712
1527.9, 0.205174
1528.35, 0.205328
1528.8, 0.205789
1529.25, 0.206096
1529.7, 0.206327
1530.15, 0.206557
1530.6, 0.206634
1531.05, 0.206788
1531.51, 0.206942
1531.96, 0.206942
1532.41, 0.206711
1532.87, 0.206788
1533.32, 0.207018
1533.77, 0.207095
1534.23, 0.207172
1534.68, 0.207479
1535.14, 0.208094
1535.59, 0.207787
1536.05, 0.207864
1536.5, 0.208171
1536.96, 0.208555
1537.41, 0.208632
1537.87, 0.208555
1538.32, 0.208709
1538.78, 0.209170
1539.24, 0.209247
1539.7, 0.209170
1540.15, 0.209477
1540.61, 0.209631
1541.07, 0.209862
1541.53, 0.210092
1541.98, 0.210015
1542.44, 0.210323
1542.9, 0.210707
1543.36, 0.210707
1543.82, 0.210630
1544.28, 0.210630
1544.74, 0.210937
1545.2, 0.211168
1545.66, 0.211475
1546.12, 0.211398
1546.59, 0.211629
1547.05, 0.211783
1547.51, 0.211860
1547.97, 0.212013
1548.43, 0.212321
1548.9, 0.212628
1549.36, 0.212859
1549.82, 0.212705
1550.29, 0.212705
1550.75, 0.212859
1551.21, 0.213166
1551.68, 0.213550
1552.14, 0.213781
1552.61, 0.213934
1553.07, 0.214395
1553.54, 0.214472
1554.0, 0.214395
1554.47, 0.214626
1554.93, 0.214703
1555.4, 0.214780
1555.87, 0.215164
1556.34, 0.215702
1556.8, 0.215702
1557.27, 0.215625
1557.74, 0.215779
1558.21, 0.216163
1558.68, 0.216624
1559.14, 0.216624
1559.61, 0.216701
1560.08, 0.216854
1560.55, 0.216931
1561.02, 0.217546
1561.49, 0.218084
1561.96, 0.217546
1562.43, 0.217700
1562.9, 0.218007
1563.38, 0.218161
1563.85, 0.218699
1564.32, 0.219083
1564.79, 0.219467
1565.26, 0.219083
1565.74, 0.219006
1566.21, 0.219237
1566.68, 0.219467
1567.16, 0.219544
1567.63, 0.219851
1568.1, 0.220312
1568.58, 0.220159
1569.05, 0.220236
1569.53, 0.220312
1570.0, 0.220697
1570.48, 0.221235
1570.96, 0.221465
1571.43, 0.221542
1571.91, 0.221772
1572.39, 0.221849
1572.86, 0.222003
1573.34, 0.222464
1573.82, 0.222695
1574.3, 0.222618
1574.77, 0.223002
1575.25, 0.223617
1575.73, 0.223847
1576.21, 0.223924
1576.69, 0.224231
1577.17, 0.224462
1577.65, 0.224462
1578.13, 0.224923
1578.61, 0.225154
1579.09, 0.225154
1579.57, 0.225154
1580.05, 0.225538
1580.54, 0.225922
1581.02, 0.225692
1581.5, 0.225692
1581.98, 0.225999
1582.47, 0.226229
1582.95, 0.226537
1583.43, 0.226767
1583.92, 0.227152
1584.4, 0.227382
1584.88, 0.227459
1585.37, 0.227689
1585.85, 0.228151
1586.34, 0.228151
1586.82, 0.227997
1587.31, 0.228304
1587.8, 0.228381
1588.28, 0.228612
1588.77, 0.229303
1589.26, 0.229457
1589.74, 0.229226
1590.23, 0.229534
1590.72, 0.229841
1591.21, 0.230302
1591.7, 0.230610
1592.19, 0.230840
1592.67, 0.230994
1593.16, 0.231071
1593.65, 0.231301
1594.14, 0.231685
1594.63, 0.231762
1595.12, 0.231993
1595.61, 0.232300
1596.11, 0.232300
1596.6, 0.232915
1597.09, 0.233530
1597.58, 0.233606
1598.08, 0.233453
1598.57, 0.233453
1599.06, 0.233914
1599.55, 0.234068
1600.05, 0.234144
1600.54, 0.234759
1601.04, 0.235220
1601.53, 0.235143
1602.03, 0.235297
1602.52, 0.235681
1603.02, 0.235835
1603.51, 0.235989
1604.01, 0.236219
1604.5, 0.236603
1605.0, 0.236603
1605.5, 0.236680
1606.0, 0.236911
1606.49, 0.237141
1606.99, 0.237372
1607.49, 0.237449
1607.99, 0.237910
1608.49, 0.238448
1608.99, 0.238371
1609.49, 0.238294
1609.99, 0.238909
1610.49, 0.239370
1610.99, 0.239600
1611.49, 0.239677
1611.99, 0.239523
1612.49, 0.239600
1612.99, 0.240138
1613.49, 0.240907
1614.0, 0.241214
1614.5, 0.241445
1615.0, 0.241675
1615.51, 0.241983
1616.01, 0.242136
1616.51, 0.242136
1617.02, 0.242520
1617.52, 0.242828
1618.03, 0.242905
1618.53, 0.243058
1619.04, 0.243673
1619.54, 0.243980
1620.05, 0.243673
1620.55, 0.243596
1621.06, 0.243980
1621.57, 0.244518
1622.08, 0.244979
1622.58, 0.245210
1623.09, 0.245440
1623.6, 0.245825
1624.11, 0.246055
1624.62, 0.246286
1625.13, 0.246593
1625.64, 0.246516
1626.15, 0.246670
1626.66, 0.246977
1627.17, 0.247285
1627.68, 0.247592
1628.19, 0.247900
1628.7, 0.248130
1629.21, 0.248361
1629.72, 0.248514
1630.24, 0.248745
1630.75, 0.249129
1631.26, 0.249513
1631.78, 0.249744
1632.29, 0.249974
1632.8, 0.250205
1633.32, 0.250435
1633.83, 0.250743
1634.35, 0.251050
1634.86, 0.251357
1635.38, 0.251665
1635.9, 0.251819
1636.41, 0.251972
1636.93, 0.252280
1637.45, 0.252510
1637.96, 0.253125
1638.48, 0.253663
1639.0, 0.253740
1639.52, 0.253663
1640.04, 0.253740
1640.56, 0.254124
1641.08, 0.254431
1641.59, 0.254662
1642.11, 0.254969
1642.63, 0.255507
1643.16, 0.255891
1643.68, 0.255968
1644.2, 0.256199
1644.72, 0.256352
1645.24, 0.256506
1645.76, 0.256660
1646.29, 0.257198
1646.81, 0.257428
1647.33, 0.257275
1647.86, 0.257505
1648.38, 0.257582
1648.9, 0.257889
1649.43, 0.258504
1649.95, 0.258888
1650.48, 0.259042
1651.0, 0.259119
1651.53, 0.259119
1652.06, 0.259349
1652.58, 0.259887
1653.11, 0.260041
1653.64, 0.260118
1654.17, 0.260502
1654.69, 0.260502
1655.22, 0.260733
1655.75, 0.260963
1656.28, 0.261270
1656.81, 0.261885
1657.34, 0.262039
1657.87, 0.261962
1658.4, 0.262193
1658.93, 0.262577
1659.46, 0.262577
1659.99, 0.262654
1660.52, 0.263192
1661.05, 0.263422
1661.59, 0.263576
1662.12, 0.263960
1662.65, 0.264267
1663.19, 0.264344
1663.72, 0.264498
1664.26, 0.264805
1664.79, 0.264959
1665.32, 0.265420
1665.86, 0.265881
1666.39, 0.265881
1666.93, 0.266188
1667.47, 0.266496
1668.0, 0.266650
1668.54, 0.266650
1669.08, 0.267111
1669.61, 0.267495
1670.15, 0.267802
1670.69, 0.267956
1671.23, 0.268110
1671.77, 0.268263
1672.31, 0.268647
1672.85, 0.268878
1673.39, 0.268955
1673.93, 0.269416
1674.47, 0.269877
1675.01, 0.269800
1675.55, 0.270107
1676.09, 0.270184
1676.64, 0.270107
1677.18, 0.270338
1677.72, 0.270722
1678.26, 0.271030
1678.81, 0.271337
1679.35, 0.271568
1679.89, 0.271875
1680.44, 0.271875
1680.98, 0.272029
1681.53, 0.272566
1682.07, 0.272874
1682.62, 0.273028
1683.17, 0.273181
1683.71, 0.273412
1684.26, 0.273796
1684.81, 0.274103
1685.36, 0.274257
1685.9, 0.274564
1686.45, 0.274795
1687.0, 0.275026
1687.55, 0.275410
1688.1, 0.275640
1688.65, 0.275640
1689.2, 0.276101
1689.75, 0.276716
1690.3, 0.276716
1690.85, 0.276870
1691.41, 0.277331
1691.96, 0.277408
1692.51, 0.277408
1693.06, 0.277946
1693.61, 0.278253
1694.17, 0.278484
1694.72, 0.278484
1695.28, 0.278868
1695.83, 0.279252
1696.39, 0.279559
1696.94, 0.280020
1697.5, 0.280020
1698.05, 0.280020
1698.61, 0.280328
1699.17, 0.280712
1699.72, 0.280943
1700.28, 0.281327
1700.84, 0.281480
1701.4, 0.281480
1701.95, 0.281711
1702.51, 0.281942
1703.07, 0.282326
1703.63, 0.282633
1704.19, 0.282940
1704.75, 0.283478
1705.31, 0.283786
1705.88, 0.283709
1706.44, 0.284093
1707.0, 0.284708
1707.56, 0.284938
1708.12, 0.284862
1708.69, 0.285169
1709.25, 0.285476
1709.81, 0.285476
1710.38, 0.285707
1710.94, 0.286168
1711.51, 0.286168
1712.07, 0.286398
1712.64, 0.286552
1713.2, 0.286629
1713.77, 0.287167
1714.34, 0.287859
1714.9, 0.288243
1715.47, 0.288550
1716.04, 0.288704
1716.61, 0.288627
1717.18, 0.288627
1717.74, 0.288858
1718.31, 0.289395
1718.88, 0.289780
1719.45, 0.289856
1720.02, 0.290010
1720.59, 0.290318
1721.17, 0.290471
1721.74, 0.290318
1722.31, 0.290394
1722.88, 0.290702
1723.45, 0.291240
1724.03, 0.291470
1724.6, 0.291701
1725.18, 0.291931
1725.75, 0.291854
1726.33, 0.292162
1726.9, 0.292777
1727.48, 0.293161
1728.05, 0.293468
1728.63, 0.293545
1729.2, 0.293545
1729.78, 0.293622
1730.36, 0.293622
1730.94, 0.294083
1731.51, 0.294544
1732.09, 0.294775
1732.67, 0.295005
1733.25, 0.295005
1733.83, 0.295312
1734.41, 0.295620
1734.99, 0.295697
1735.57, 0.295850
1736.15, 0.296235
1736.73, 0.296619
1737.32, 0.296696
1737.9, 0.296926
1738.48, 0.297080
1739.07, 0.297157
1739.65, 0.297310
1740.23, 0.297618
1740.82, 0.297848
1741.4, 0.298156
1741.99, 0.298309
1742.57, 0.298386
1743.16, 0.299001
1743.74, 0.299462
1744.33, 0.299616
1744.92, 0.299693
1745.51, 0.299693
1746.09, 0.299616
1746.68, 0.300000
1747.27, 0.300384
1747.86, 0.300615
1748.45, 0.300922
1749.04, 0.300922
1749.63, 0.301076
1750.22, 0.301383
1750.81, 0.301691
1751.4, 0.301921
1751.99, 0.302075
1752.59, 0.302459
1753.18, 0.302843
1753.77, 0.303227
1754.37, 0.303381
1754.96, 0.303381
1755.56, 0.303612
1756.15, 0.303919
1756.74, 0.303842
1757.34, 0.304150
1757.94, 0.304534
1758.53, 0.304764
1759.13, 0.304841
1759.73, 0.305072
1760.32, 0.305302
1760.92, 0.305379
1761.52, 0.305533
1762.12, 0.305686
1762.72, 0.305994
1763.32, 0.306608
1763.92, 0.306839
1764.52, 0.307070
1765.12, 0.307146
1765.72, 0.307223
1766.32, 0.307454
1766.92, 0.307531
1767.53, 0.307838
1768.13, 0.308299
1768.73, 0.308530
1769.34, 0.308837
1769.94, 0.309068
1770.55, 0.309221
1771.15, 0.309452
1771.76, 0.309759
1772.36, 0.310220
1772.97, 0.310451
1773.57, 0.310451
1774.18, 0.310528
1774.79, 0.310604
1775.4, 0.310989
1776.0, 0.311450
1776.61, 0.311911
1777.22, 0.312064
1777.83, 0.312218
1778.44, 0.312295
1779.05, 0.312449
1779.66, 0.312756
1780.27, 0.312833
1780.88, 0.312910
1781.5, 0.313524
1782.11, 0.313832
1782.72, 0.313909
1783.33, 0.313986
1783.95, 0.314293
1784.56, 0.314523
1785.18, 0.314908
1785.79, 0.315369
1786.41, 0.315522
1787.02, 0.315676
1787.64, 0.315907
1788.26, 0.315984
1788.87, 0.315907
1789.49, 0.316060
1790.11, 0.316368
1790.73, 0.316675
1791.35, 0.316675
1791.96, 0.316829
1792.58, 0.317290
1793.21, 0.317520
1793.83, 0.317444
1794.45, 0.317367
1795.07, 0.317751
1795.69, 0.318058
1796.31, 0.318212
1796.93, 0.318289
1797.56, 0.318596
1798.18, 0.319288
1798.8, 0.319441
1799.43, 0.319595
1800.05, 0.319826
1800.68, 0.319595
1801.3, 0.319672
1801.93, 0.320133
1802.56, 0.320440
1803.18, 0.320517
1803.81, 0.320671
1804.44, 0.321055
1805.07, 0.321363
1805.7, 0.321286
1806.33, 0.321286
1806.95, 0.321363
1807.58, 0.321286
1808.22, 0.321439
1808.85, 0.321977
1809.48, 0.322285
1810.11, 0.322285
1810.74, 0.322362
1811.38, 0.322823
1812.01, 0.323130
1812.64, 0.322976
1813.28, 0.322900
1813.91, 0.323053
1814.55, 0.323130
1815.18, 0.323284
1815.82, 0.323591
1816.45, 0.323975
1817.09, 0.324206
1817.73, 0.324206
1818.36, 0.324283
1819.0, 0.324436
1819.64, 0.324436
1820.28, 0.324821
1820.92, 0.325051
1821.56, 0.325205
1822.2, 0.325359
1822.84, 0.325666
1823.48, 0.325896
1824.12, 0.325743
1824.76, 0.325820
1825.41, 0.326127
1826.05, 0.326511
1826.69, 0.326742
1827.34, 0.326588
1827.98, 0.326511
1828.63, 0.326742
1829.27, 0.326819
1829.92, 0.327126
1830.56, 0.327280
1831.21, 0.327356
1831.86, 0.327433
1832.5, 0.327433
1833.15, 0.327587
1833.8, 0.328048
1834.45, 0.328432
1835.1, 0.328893
1835.75, 0.328663
1836.4, 0.328663
1837.05, 0.328740
1837.7, 0.328817
1838.35, 0.329124
1839.01, 0.329124
1839.66, 0.329508
1840.31, 0.329892
1840.96, 0.329739
1841.62, 0.329969
1842.27, 0.330430
1842.93, 0.330507
1843.58, 0.330353
1844.24, 0.330353
1844.9, 0.330584
1845.55, 0.330814
1846.21, 0.330738
1846.87, 0.330968
1847.53, 0.331352
1848.18, 0.331506
1848.84, 0.331429
1849.5, 0.331429
1850.16, 0.331506
1850.82, 0.331737
1851.48, 0.332044
1852.14, 0.332044
1852.81, 0.331967
1853.47, 0.332121
1854.13, 0.332351
1854.8, 0.332428
1855.46, 0.332505
1856.12, 0.332582
1856.79, 0.332736
1857.45, 0.332812
1858.12, 0.332966
1858.79, 0.332966
1859.45, 0.333350
1860.12, 0.333581
1860.79, 0.333427
1861.46, 0.333504
1862.12, 0.333427
1862.79, 0.333273
1863.46, 0.333273
1864.13, 0.333350
1864.8, 0.333581
1865.48, 0.333965
1866.15, 0.334119
1866.82, 0.333965
1867.49, 0.334119
1868.16, 0.334503
1868.84, 0.334503
1869.51, 0.334426
1870.19, 0.334657
1870.86, 0.335041
1871.54, 0.334964
1872.21, 0.334964
1872.89, 0.335271
1873.56, 0.335271
1874.24, 0.335195
1874.92, 0.335118
1875.6, 0.335195
1876.28, 0.335348
1876.96, 0.335348
1877.64, 0.335425
1878.32, 0.335579
1879.0, 0.335809
1879.68, 0.335809
1880.36, 0.335656
1881.04, 0.335886
1881.73, 0.336040
1882.41, 0.336117
1883.09, 0.336270
1883.78, 0.336424
1884.46, 0.336578
1885.15, 0.336655
1885.83, 0.336655
1886.52, 0.336808
1887.21, 0.336962
1887.89, 0.337193
1888.58, 0.337269
1889.27, 0.337116
1889.96, 0.337500
1890.65, 0.337654
1891.34, 0.337577
1892.03, 0.337961
1892.72, 0.338422
1893.41, 0.338422
1894.1, 0.338576
1894.79, 0.338422
1895.49, 0.338653
1896.18, 0.338960
1896.87, 0.339037
1897.57, 0.339344
1898.26, 0.339421
1898.96, 0.339498
1899.65, 0.339882
1900.35, 0.340189
1901.05, 0.340266
1901.74, 0.340343
1902.44, 0.340574
1903.14, 0.340804
1903.84, 0.340958
1904.54, 0.341188
1905.24, 0.341496
1905.94, 0.341726
1906.64, 0.341803
1907.34, 0.341803
1908.04, 0.342187
1908.75, 0.342418
1909.45, 0.342648
1910.15, 0.342879
1910.86, 0.343186
1911.56, 0.343571
1912.27, 0.343724
1912.97, 0.344032
1913.68, 0.344416
1914.39, 0.344416
1915.09, 0.344339
1915.8, 0.344723
1916.51, 0.344800
1917.22, 0.344954
1917.93, 0.345415
1918.64, 0.345569
1919.35, 0.345722
1920.06, 0.346337
1920.77, 0.346875
1921.48, 0.346875
1922.19, 0.346952
1922.91, 0.347105
1923.62, 0.347336
1924.33, 0.347413
1925.05, 0.347490
1925.76, 0.347720
1926.48, 0.348028
1927.19, 0.348412
1927.91, 0.348642
1928.63, 0.349103
1929.35, 0.349411
1930.07, 0.349488
1930.78, 0.349564
1931.5, 0.349488
1932.22, 0.349641
1932.94, 0.350026
1933.66, 0.350256
1934.39, 0.350256
1935.11, 0.350410
1935.83, 0.350717
1936.55, 0.350871
1937.28, 0.350948
1938.0, 0.350948
1938.73, 0.350871
1939.45, 0.351024
1940.18, 0.351332
1940.9, 0.351332
1941.63, 0.351332
1942.36, 0.351332
1943.09, 0.351332
1943.81, 0.351486
1944.54, 0.351639
1945.27, 0.351562
1946.0, 0.351332
1946.73, 0.351255
1947.47, 0.351409
1948.2, 0.351486
1948.93, 0.351332
1949.66, 0.351178
1950.4, 0.351101
1951.13, 0.351101
1951.86, 0.350948
1952.6, 0.350871
1953.34, 0.351024
1954.07, 0.351024
1954.81, 0.350640
1955.55, 0.350563
1956.29, 0.350794
1957.02, 0.350871
1957.76, 0.350871
1958.5, 0.350640
1959.24, 0.350640
1959.98, 0.350717
1960.72, 0.350717
1961.47, 0.350640
1962.21, 0.350717
1962.95, 0.350717
1963.7, 0.350487
1964.44, 0.350487
1965.18, 0.350717
1965.93, 0.350948
1966.67, 0.350948
1967.42, 0.350794
1968.17, 0.350563
1968.92, 0.350333
1969.66, 0.350256
1970.41, 0.350410
1971.16, 0.350717
1971.91, 0.350717
1972.66, 0.350640
1973.41, 0.350410
1974.16, 0.350102
1974.92, 0.350102
1975.67, 0.350102
1976.42, 0.349795
1977.18, 0.349641
1977.93, 0.349488
1978.69, 0.349488
1979.44, 0.349180
1980.2, 0.349027
1980.95, 0.349027
1981.71, 0.348719
1982.47, 0.348258
1983.23, 0.347951
1983.99, 0.347797
1984.74, 0.347566
1985.51, 0.347413
1986.27, 0.347182
1987.03, 0.346721
1987.79, 0.346260
1988.55, 0.345953
1989.32, 0.345645
1990.08, 0.345569
1990.84, 0.345645
1991.61, 0.345415
1992.37, 0.345031
1993.14, 0.344723
1993.9, 0.344646
1994.67, 0.344339
1995.44, 0.344032
1996.21, 0.343801
1996.98, 0.343571
1997.75, 0.343417
1998.52, 0.343263
1999.29, 0.343186
2000.06, 0.343186
2000.83, 0.342956
2001.6, 0.342956
2002.38, 0.343033
2003.15, 0.342956
2003.93, 0.343110
2004.7, 0.343186
2005.48, 0.343186
2006.25, 0.343186
2007.03, 0.343033
2007.81, 0.343263
2008.58, 0.343801
2009.36, 0.344032
2010.14, 0.343878
2010.92, 0.343955
2011.7, 0.344262
2012.48, 0.344493
2013.26, 0.344570
2014.05, 0.345031
2014.83, 0.345492
2015.61, 0.345722
2016.4, 0.345645
2017.18, 0.345876
2017.97, 0.346491
2018.75, 0.346798
2019.54, 0.347182
2020.32, 0.347951
2021.11, 0.348565
2021.9, 0.348796
2022.69, 0.349411
2023.48, 0.350102
2024.27, 0.350640
2025.06, 0.351101
2025.85, 0.351562
2026.64, 0.352254
2027.44, 0.352792
2028.23, 0.353407
2029.02, 0.354175
2029.82, 0.354867
2030.61, 0.355635
2031.41, 0.356250
2032.2, 0.356865
2033.0, 0.357479
2033.8, 0.358171
2034.6, 0.359016
2035.4, 0.360015
2036.2, 0.360707
2037.0, 0.361322
2037.8, 0.361936
2038.6, 0.362628
2039.4, 0.363396
2040.2, 0.364165
2041.01, 0.365087
2041.81, 0.365855
2042.61, 0.366624
2043.42, 0.367162
2044.22, 0.367700
2045.03, 0.368468
2045.84, 0.369083
2046.65, 0.369698
2047.46, 0.370466
2048.26, 0.371235
2049.07, 0.371772
2049.88, 0.372541
2050.69, 0.373232
2051.51, 0.373694
2052.32, 0.374385
2053.13, 0.375384
2053.94, 0.375922
2054.76, 0.376460
2055.57, 0.376767
2056.39, 0.377228
2057.2, 0.377997
2058.02, 0.378688
2058.84, 0.379149
2059.66, 0.379687
2060.48, 0.380225
2061.29, 0.380610
2062.11, 0.380917
2062.94, 0.381301
2063.76, 0.381916
2064.58, 0.382454
2065.4, 0.382684
2066.22, 0.383145
2067.05, 0.383837
2067.87, 0.384144
2068.7, 0.384375
2069.52, 0.384913
2070.35, 0.385528
2071.18, 0.385835
2072.0, 0.386065
2072.83, 0.386603
2073.66, 0.387064
2074.49, 0.387372
2075.32, 0.387833
2076.15, 0.388371
2076.98, 0.388678
2077.82, 0.388986
2078.65, 0.389293
2079.48, 0.389600
2080.32, 0.389831
2081.15, 0.390215
2081.99, 0.390676
2082.83, 0.390830
2083.66, 0.391060
2084.5, 0.391368
2085.34, 0.391752
2086.18, 0.391906
2087.02, 0.392213
2087.86, 0.392520
2088.7, 0.392905
2089.54, 0.393135
2090.39, 0.393289
2091.23, 0.393596
2092.07, 0.393904
2092.92, 0.393980
2093.76, 0.394365
2094.61, 0.394672
2095.45, 0.394979
2096.3, 0.395364
2097.15, 0.395517
2098.0, 0.395517
2098.85, 0.395825
2099.7, 0.396055
2100.55, 0.396132
2101.4, 0.396209
2102.25, 0.396363
2103.1, 0.396439
2103.96, 0.396670
2104.81, 0.396900
2105.67, 0.396977
2106.52, 0.396747
2107.38, 0.396747
2108.24, 0.397131
2109.09, 0.397131
2109.95, 0.396977
2110.81, 0.396977
2111.67, 0.396977
2112.53, 0.396900
2113.39, 0.396900
2114.25, 0.396900
2115.12, 0.396824
2115.98, 0.396670
2116.84, 0.396363
2117.71, 0.396363
2118.58, 0.396439
2119.44, 0.396209
2120.31, 0.395902
2121.18, 0.395825
2122.04, 0.395671
2122.91, 0.395671
2123.78, 0.395517
2124.65, 0.395133
2125.52, 0.395133
2126.4, 0.395210
2127.27, 0.395056
2128.14, 0.395210
2129.02, 0.395287
2129.89, 0.395133
2130.77, 0.395133
2131.64, 0.395133
2132.52, 0.394979
2133.4, 0.395056
2134.27, 0.395517
2135.15, 0.395517
2136.03, 0.395364
2136.91, 0.395364
2137.79, 0.395440
2138.68, 0.395671
2139.56, 0.395825
2140.44, 0.396055
2141.33, 0.395978
2142.21, 0.395748
2143.1, 0.395748
2143.99, 0.395902
2144.87, 0.395902
2145.76, 0.395978
2146.65, 0.396132
2147.54, 0.396209
2148.43, 0.396209
2149.32, 0.396286
2150.21, 0.396286
2151.1, 0.396439
2151.99, 0.396363
2152.89, 0.396286
2153.78, 0.396209
2154.68, 0.396132
2155.57, 0.396132
2156.47, 0.396439
2157.37, 0.396516
2158.27, 0.396363
2159.16, 0.396209
2160.06, 0.396055
2160.96, 0.396132
2161.86, 0.396286
2162.77, 0.395844
2163.67, 0.395476
2164.57, 0.395329
2165.48, 0.395844
2166.38, 0.395697
2167.29, 0.395771
2168.2, 0.396065
2169.1, 0.395697
2170.01, 0.395182
2170.92, 0.395108
2171.83, 0.395034
2172.74, 0.395034
2173.65, 0.395255
2174.56, 0.395108
2175.47, 0.395402
2176.39, 0.395476
2177.3, 0.395108
2178.22, 0.394814
2179.13, 0.394446
2180.05, 0.394666
2180.96, 0.394740
2181.88, 0.394593
2182.8, 0.394446
2183.72, 0.394225
2184.64, 0.394151
2185.56, 0.394004
2186.48, 0.393562
2187.41, 0.393047
2188.33, 0.393342
2189.25, 0.393710
2190.18, 0.393562
2191.1, 0.392679
2192.03, 0.391796
2192.96, 0.391133
2193.89, 0.391428
2194.82, 0.391207
2195.74, 0.391207
2196.68, 0.390913
2197.61, 0.389956
2198.54, 0.389514
2199.47, 0.388999
2200.4, 0.388410
2201.34, 0.387674
2202.28, 0.386496
2203.21, 0.385687
2204.15, 0.385319
2205.08, 0.384730
2206.02, 0.384067
2206.96, 0.383184
2207.9, 0.382301
2208.84, 0.382007
2209.78, 0.381712
2210.73, 0.381344
2211.67, 0.380829
2212.61, 0.380019
2213.56, 0.379578
2214.5, 0.378989
2215.45, 0.378400
2216.4, 0.377075
2217.35, 0.375750
2218.3, 0.375014
2219.24, 0.374204
2220.2, 0.373100
2221.15, 0.372291
2222.1, 0.370892
2223.05, 0.369788
2224.0, 0.368537
2224.96, 0.367065
2225.91, 0.365298
2226.87, 0.363532
2227.83, 0.361471
2228.79, 0.359263
2229.74, 0.357423
2230.7, 0.355509
2231.66, 0.352786
2232.63, 0.349768
2233.59, 0.347192
2234.55, 0.344395
2235.51, 0.340788
2236.48, 0.337476
2237.44, 0.334753
2238.41, 0.331146
2239.38, 0.326950
2240.34, 0.323123
2241.31, 0.318928
2242.28, 0.314659
2243.25, 0.310021
2244.22, 0.305458
2245.19, 0.300526
2246.17, 0.295742
2247.14, 0.290590
2248.12, 0.285511
2249.09, 0.280653
2250.07, 0.276163
2251.04, 0.271453
2252.02, 0.267405
2253.0, 0.263651
2253.98, 0.259971
2254.96, 0.257100
2255.94, 0.255039
2256.92, 0.253199
2257.91, 0.251212
2258.89, 0.249740
2259.88, 0.249298
2260.86, 0.249445
2261.85, 0.249960
2262.83, 0.250770
2263.82, 0.251874
2264.81, 0.253125
2265.8, 0.255113
2266.79, 0.257174
2267.78, 0.259971
2268.78, 0.262694
2269.77, 0.265049
2270.76, 0.267184
2271.76, 0.269392
2272.75, 0.272336
2273.75, 0.274691
2274.75, 0.276973
2275.75, 0.279181
2276.75, 0.281389
2277.75, 0.283450
2278.75, 0.285217
2279.75, 0.286763
2280.75, 0.287793
2281.76, 0.289118
2282.76, 0.290737
2283.77, 0.291694
2284.77, 0.292136
2285.78, 0.293240
2286.79, 0.294123
2287.8, 0.294270
2288.81, 0.294638
2289.82, 0.295227
2290.83, 0.295374
2291.84, 0.295374
2292.86, 0.295448
2293.87, 0.295521
2294.89, 0.295374
2295.91, 0.294933
2296.92, 0.294712
2297.94, 0.294638
2298.96, 0.293976
2299.98, 0.293313
2301.0, 0.292577
2302.02, 0.291694
2303.04, 0.290884
2304.07, 0.290001
2305.09, 0.288603
2306.12, 0.287719
2307.15, 0.286910
2308.17, 0.285806
2309.2, 0.284849
2310.23, 0.283966
2311.26, 0.283009
2312.29, 0.281905
2313.32, 0.280433
2314.35, 0.279108
2315.39, 0.277783
2316.42, 0.276900
2317.46, 0.276090
2318.5, 0.275207
2319.53, 0.274397
2320.57, 0.273219
2321.61, 0.271894
2322.65, 0.270790
2323.69, 0.269539
2324.73, 0.268067
2325.78, 0.267331
2326.82, 0.266080
2327.86, 0.264828
2328.91, 0.264019
2329.96, 0.262547
2331.01, 0.261001
2332.05, 0.259382
2333.1, 0.257983
2334.15, 0.256806
2335.21, 0.255333
2336.26, 0.253861
2337.31, 0.252536
2338.36, 0.250623
2339.42, 0.249077
2340.48, 0.247605
2341.53, 0.245986
2342.59, 0.244366
2343.65, 0.242968
2344.71, 0.241569
2345.77, 0.239950
2346.83, 0.238699
2347.9, 0.237742
2348.96, 0.236859
2350.02, 0.236049
2351.09, 0.234871
2352.16, 0.233841
2353.23, 0.233105
2354.29, 0.232737
2355.36, 0.232590
2356.43, 0.232811
2357.51, 0.232663
2358.58, 0.232663
2359.65, 0.232442
2360.73, 0.232442
2361.8, 0.232884
2362.88, 0.233326
2363.96, 0.233988
2365.03, 0.234945
2366.11, 0.236196
2367.19, 0.237595
2368.27, 0.238846
2369.36, 0.240024
2370.44, 0.241496
2371.53, 0.243262
2372.61, 0.245176
2373.7, 0.247458
2374.78, 0.249371
2375.87, 0.251212
2376.96, 0.253641
2378.05, 0.256217
2379.14, 0.258793
2380.24, 0.261737
2381.33, 0.264092
2382.42, 0.266153
2383.52, 0.268803
2384.61, 0.271379
2385.71, 0.273440
2386.81, 0.275869
2387.91, 0.278298
2389.01, 0.280212
2390.11, 0.281905
2391.22, 0.283598
2392.32, 0.285364
2393.42, 0.287131
2394.53, 0.288971
2395.64, 0.290811
2396.74, 0.292062
2397.85, 0.293092
2398.96, 0.294197
2400.07, 0.295227
2401.18, 0.296110
2402.3, 0.297067
2403.41, 0.298171
2404.52, 0.298466
2405.64, 0.298539
2406.76, 0.298981
2407.88, 0.299202
2408.99, 0.299422
2410.11, 0.299864
2411.23, 0.300600
2412.36, 0.300821
2413.48, 0.300674
2414.6, 0.300674
2415.73, 0.300674
2416.85, 0.300453
2417.98, 0.300379
2419.11, 0.300379
2420.24, 0.300306
2421.37, 0.300379
2422.5, 0.300600
2423.64, 0.300232
2424.77, 0.300011
2425.9, 0.300600
2427.04, 0.301115
2428.18, 0.300674
2429.31, 0.300379
2430.45, 0.300085
2431.59, 0.299938
2432.73, 0.300232
2433.88, 0.300747
2435.02, 0.300600
2436.16, 0.300306
2437.31, 0.300159
2438.45, 0.299864
2439.6, 0.299790
2440.75, 0.299790
2441.9, 0.299349
2443.05, 0.298907
2444.2, 0.298760
2445.35, 0.298392
2446.51, 0.298539
2447.67, 0.298392
2448.82, 0.298098
2449.98, 0.298245
2451.14, 0.297950
2452.3, 0.297730
2453.46, 0.297877
2454.62, 0.297656
2455.78, 0.296920
2456.94, 0.296552
2458.11, 0.295889
2459.28, 0.295153
2460.44, 0.294859
2461.61, 0.294049
2462.78, 0.293240
2463.95, 0.292798
2465.12, 0.291547
2466.3, 0.290516
2467.47, 0.289559
2468.65, 0.288382
2469.82, 0.287425
2471.0, 0.286763
2472.18, 0.286026
2473.36, 0.284996
2474.54, 0.283450
2475.72, 0.282273
2476.9, 0.281242
2478.08, 0.280506
2479.27, 0.279549
2480.46, 0.278519
2481.64, 0.277562
2482.83, 0.276679
2484.02, 0.275648
2485.21, 0.274544
2486.4, 0.273661
2487.6, 0.272778
2488.79, 0.271894
2489.99, 0.271306
2491.18, 0.270864
2492.38, 0.270054
2493.58, 0.268950
2494.78, 0.268141
2495.98, 0.267331
2497.18, 0.266227
2498.39, 0.265417
2499.59, 0.265123
2500.8, 0.264608
2502.01, 0.263798
2503.21, 0.263062
2504.42, 0.262915
2505.63, 0.262473
2506.84, 0.261958
2508.06, 0.261369
2509.27, 0.260927
2510.49, 0.260707
2511.7, 0.260486
2512.92, 0.260118
2514.14, 0.259823
2515.36, 0.259087
2516.58, 0.258646
2517.8, 0.258646
2519.03, 0.258204
2520.25, 0.257468
2521.48, 0.257100
2522.7, 0.256806
2523.93, 0.256364
2525.16, 0.256069
2526.39, 0.255628
2527.62, 0.255186
2528.86, 0.255113
2530.09, 0.254818
2531.33, 0.253935
2532.56, 0.253273
2533.8, 0.253052
2535.04, 0.252463
2536.28, 0.251874
2537.52, 0.251874
2538.76, 0.251506
2540.01, 0.250844
2541.25, 0.250328
2542.5, 0.249960
2543.75, 0.249740
2544.99, 0.249151
2546.24, 0.248488
2547.49, 0.247899
2548.75, 0.246943
2550.0, 0.246207
2551.26, 0.246280
2552.51, 0.245912
2553.77, 0.245323
2555.03, 0.244808
2556.29, 0.244514
2557.55, 0.244366
2558.81, 0.243851
2560.08, 0.242821
2561.34, 0.242158
2562.61, 0.241937
2563.88, 0.241864
2565.14, 0.241937
2566.41, 0.241569
2567.68, 0.240465
2568.96, 0.239656
2570.23, 0.239582
2571.51, 0.239067
2572.78, 0.238478
2574.06, 0.238920
2575.34, 0.238552
2576.62, 0.238036
2577.9, 0.238110
2579.18, 0.237742
2580.47, 0.237006
2581.75, 0.236712
2583.04, 0.236049
2584.32, 0.236785
2585.61, 0.236785
2586.9, 0.235976
2588.2, 0.235828
2589.49, 0.235902
2590.78, 0.235460
2592.08, 0.234209
2593.37, 0.232590
2594.67, 0.232737
2595.97, 0.234651
2597.27, 0.234651
2598.57, 0.233988
2599.88, 0.233252
2601.18, 0.232737
2602.49, 0.232442
2603.79, 0.232001
2605.1, 0.232001
2606.41, 0.232516
2607.72, 0.232222
2609.03, 0.231633
2610.35, 0.231559
2611.66, 0.231338
2612.98, 0.230970
2614.3, 0.230602
2615.62, 0.229572
2616.94, 0.229793
2618.26, 0.230161
2619.58, 0.229498
2620.91, 0.230087
2622.23, 0.230087
2623.56, 0.229204
2624.89, 0.228247
2626.22, 0.227732
2627.55, 0.227879
2628.88, 0.226922
2630.21, 0.226186
2631.55, 0.226775
2632.89, 0.225965
2634.22, 0.225303
2635.56, 0.224640
2636.9, 0.223831
2638.25, 0.223168
2639.59, 0.222506
2640.93, 0.221623
2642.28, 0.220519
2643.63, 0.219415
2644.98, 0.218605
2646.33, 0.217942
2647.68, 0.216838
2649.03, 0.215513
2650.39, 0.214115
2651.74, 0.212864
2653.1, 0.212275
2654.46, 0.211392
2655.82, 0.210067
2657.18, 0.209036
2658.54, 0.207564
2659.9, 0.206387
2661.27, 0.205503
2662.64, 0.204399
2664.01, 0.202706
2665.38, 0.201897
2666.74, 0.201381
2668.12, 0.200572
2669.49, 0.198658
2670.87, 0.198584
2672.24, 0.198143
2673.62, 0.196229
2675.0, 0.194463
2676.38, 0.193138
2677.76, 0.191739
2679.15, 0.190046
2680.54, 0.188648
2681.92, 0.186734
2683.31, 0.184526
2684.7, 0.182171
2686.09, 0.179447
2687.48, 0.176356
2688.88, 0.172749
2690.27, 0.168848
2691.67, 0.164211
2693.07, 0.158691
2694.47, 0.153171
2695.87, 0.147209
2697.27, 0.140216
2698.67, 0.133003
2700.08, 0.126452
2701.49, 0.121226
2702.9, 0.118282
2704.31, 0.117473
2705.72, 0.118650
2707.13, 0.120490
2708.54, 0.122110
2709.96, 0.122919
2711.38, 0.123508
2712.8, 0.122846
2714.22, 0.120785
2715.64, 0.117914
2717.06, 0.114087
2718.49, 0.109891
2719.91, 0.105549
2721.34, 0.101206
2722.77, 0.0967900
2724.2, 0.0924470
2725.63, 0.0885460
2727.07, 0.0844980
2728.5, 0.0808180
2729.94, 0.0772850
2731.38, 0.0741200
2732.82, 0.0713960
2734.26, 0.0688200
2735.7, 0.0663180
2737.15, 0.0636680
2738.59, 0.0607970
2740.04, 0.0584420
2741.49, 0.0563070
2742.94, 0.0540990
2744.39, 0.0521120
2745.84, 0.0509340
2747.3, 0.0499770
2748.76, 0.0490200
2750.21, 0.0482840
2751.67, 0.0475480
2753.14, 0.0466650
2754.6, 0.0454870
2756.06, 0.0445310
2757.53, 0.0435000
2759.0, 0.0426170
2760.46, 0.0421020
2761.94, 0.0421020
2763.41, 0.0428380
2764.88, 0.0437210
2766.36, 0.0443100
2767.83, 0.0448990
2769.31, 0.0452670
2770.79, 0.0451190
2772.27, 0.0449720
2773.76, 0.0448990
2775.24, 0.0444570
2776.73, 0.0438680
2778.22, 0.0432060
2779.71, 0.0422490
2781.2, 0.0415130
2782.69, 0.0409980
2784.18, 0.0401880
2785.68, 0.0393780
2787.18, 0.0387890
2788.68, 0.0379800
2790.18, 0.0372440
2791.68, 0.0369490
2793.19, 0.0364340
2794.69, 0.0354040
2796.2, 0.0346680
2797.71, 0.0341520
2799.22, 0.0338580
2800.73, 0.0336370
2802.24, 0.0331960
2803.76, 0.0328280
2805.28, 0.0326800
2806.8, 0.0323860
2808.32, 0.0322390
2809.84, 0.0320180
2811.36, 0.0318710
2812.89, 0.0317970
2814.42, 0.0314290
2815.94, 0.0312820
2817.48, 0.0312080
2819.01, 0.0312080
2820.54, 0.0313550
2822.08, 0.0312820
2823.61, 0.0310610
2825.15, 0.0311350
2826.69, 0.0312820
2828.23, 0.0312820
2829.78, 0.0312080
2831.32, 0.0312820
2832.87, 0.0313550
2834.42, 0.0313550
2835.97, 0.0315030
2837.52, 0.0315760
2839.08, 0.0320180
2840.63, 0.0319440
2842.19, 0.0318710
2843.75, 0.0321650
2845.31, 0.0323860
2846.87, 0.0323120
2848.44, 0.0320180
2850.0, 0.0320910
2851.57, 0.0323860
2853.14, 0.0326070
2854.71, 0.0326070
2856.28, 0.0323860
2857.86, 0.0324600
2859.43, 0.0327540
2861.01, 0.0328280
2862.59, 0.0326800
2864.17, 0.0327540
2865.76, 0.0324600
2867.34, 0.0320180
2868.93, 0.0321650
2870.52, 0.0325330
2872.11, 0.0327540
2873.7, 0.0326800
2875.29, 0.0324600
2876.89, 0.0323120
2878.49, 0.0320910
2880.08, 0.0317970
2881.69, 0.0315760
2883.29, 0.0314290
2884.89, 0.0315760
2886.5, 0.0315760
2888.11, 0.0313550
2889.72, 0.0312080
2891.33, 0.0309870
2892.94, 0.0309140
2894.56, 0.0309140
2896.17, 0.0306930
2897.79, 0.0302510
2899.42, 0.0298830
2901.04, 0.0299570
2902.66, 0.0298100
2904.29, 0.0298100
2905.92, 0.0298830
2907.55, 0.0298100
2909.18, 0.0295890
2910.81, 0.0294420
2912.45, 0.0295150
2914.08, 0.0295150
2915.72, 0.0292210
2917.36, 0.0290000
2919.01, 0.0290740
2920.65, 0.0290000
2922.3, 0.0290000
2923.94, 0.0291470
2925.59, 0.0290000
2927.25, 0.0289270
2928.9, 0.0287060
2930.56, 0.0287060
2932.21, 0.0287060
2933.87, 0.0286320
2935.53, 0.0285580
2937.2, 0.0287060
2938.86, 0.0287790
2940.53, 0.0290000
2942.2, 0.0290000
2943.87, 0.0289270
2945.54, 0.0290740
2947.22, 0.0292210
2948.89, 0.0295150
2950.57, 0.0295150
2952.25, 0.0290000
2953.93, 0.0290000
2955.62, 0.0292210
2957.3, 0.0294420
2958.99, 0.0295890
2960.68, 0.0295890
2962.37, 0.0294420
2964.07, 0.0294420
2965.76, 0.0296630
2967.46, 0.0298100
2969.16, 0.0297360
2970.86, 0.0298100
2972.56, 0.0297360
2974.27, 0.0299570
2975.98, 0.0302510
2977.69, 0.0301780
2979.4, 0.0301780
2981.11, 0.0303250
2982.83, 0.0305460
2984.54, 0.0305460
2986.26, 0.0306930
2987.98, 0.0309140
2989.71, 0.0310610
2991.43, 0.0312080
2993.16, 0.0312080
2994.89, 0.0312080
2996.62, 0.0314290
2998.35, 0.0315760
3000.09, 0.0317230
3001.83, 0.0318710
3003.57, 0.0321650
3005.31, 0.0323860
3007.05, 0.0323120
3008.79, 0.0323860
3010.54, 0.0325330
3012.29, 0.0329750
3014.04, 0.0331220
3015.8, 0.0332690
3017.55, 0.0333430
3019.31, 0.0335640
3021.07, 0.0338580
3022.83, 0.0340050
3024.59, 0.0341520
3026.36, 0.0343730
3028.13, 0.0345940
3029.9, 0.0346680
3031.67, 0.0349620
3033.44, 0.0353300
3035.22, 0.0354040
3037.0, 0.0354040
3038.78, 0.0356980
3040.56, 0.0361400
3042.34, 0.0363610
3044.13, 0.0365810
3045.92, 0.0368020
3047.71, 0.0370230
3049.5, 0.0373170
3051.3, 0.0375380
3053.09, 0.0377590
3054.89, 0.0381270
3056.69, 0.0384210
3058.5, 0.0384210
3060.3, 0.0385690
3062.11, 0.0389370
3063.92, 0.0393050
3065.73, 0.0396730
3067.55, 0.0398940
3069.36, 0.0400410
3071.18, 0.0403350
3073.0, 0.0407030
3074.82, 0.0412180
3076.65, 0.0412920
3078.48, 0.0413660
3080.31, 0.0418070
3082.14, 0.0422490
3083.97, 0.0425430
3085.8, 0.0429850
3087.64, 0.0433530
3089.48, 0.0435740
3091.33, 0.0438680
3093.17, 0.0442360
3095.02, 0.0445310
3096.87, 0.0449720
3098.72, 0.0454140
3100.57, 0.0456350
3102.43, 0.0457820
3104.28, 0.0460760
3106.14, 0.0464440
3108.01, 0.0470330
3109.87, 0.0474010
3111.74, 0.0474750
3113.61, 0.0479900
3115.48, 0.0485790
3117.35, 0.0488000
3119.23, 0.0489470
3121.1, 0.0493150
3122.98, 0.0498300
3124.87, 0.0502720
3126.75, 0.0506400
3128.64, 0.0509340
3130.53, 0.0513760
3132.42, 0.0519650
3134.31, 0.0524800
3136.21, 0.0528480
3138.11, 0.0530690
3140.01, 0.0534370
3141.91, 0.0538780
3143.82, 0.0543940
3145.73, 0.0549820
3147.64, 0.0551300
3149.55, 0.0554240
3151.46, 0.0558660
3153.38, 0.0563810
3155.3, 0.0566750
3157.22, 0.0568960
3159.14, 0.0571910
3161.07, 0.0577790
3163.0, 0.0582210
3164.93, 0.0586630
3166.86, 0.0589570
3168.8, 0.0596200
3170.74, 0.0602820
3172.68, 0.0606500
3174.62, 0.0609440
3176.56, 0.0613120
3178.51, 0.0617540
3180.46, 0.0622690
3182.42, 0.0627110
3184.37, 0.0632260
3186.33, 0.0636680
3188.29, 0.0642570
3190.25, 0.0647720
3192.21, 0.0652130
3194.18, 0.0656550
3196.15, 0.0661700
3198.12, 0.0664650
3200.09, 0.0668330
3202.07, 0.0673480
3204.05, 0.0678630
3206.03, 0.0683050
3208.02, 0.0687460
3210.0, 0.0693350
3211.99, 0.0698510
3213.98, 0.0701450
3215.98, 0.0705870
3217.97, 0.0711750
3219.97, 0.0716910
3221.97, 0.0721320
3223.98, 0.0726470
3225.98, 0.0730160
3227.99, 0.0736040
3230.0, 0.0742670
3232.02, 0.0747080
3234.03, 0.0750760
3236.05, 0.0753710
3238.07, 0.0756650
3240.1, 0.0762540
3242.12, 0.0768430
3244.15, 0.0773580
3246.18, 0.0777260
3248.22, 0.0782410
3250.25, 0.0789040
3252.29, 0.0793450
3254.33, 0.0797140
3256.38, 0.0802290
3258.43, 0.0805970
3260.47, 0.0809650
3262.53, 0.0815540
3264.58, 0.0822900
3266.64, 0.0827310
3268.7, 0.0830260
3270.76, 0.0833940
3272.82, 0.0839090
3274.89, 0.0843510
3276.96, 0.0848660
3279.04, 0.0853070
3281.11, 0.0856020
3283.19, 0.0861910
3285.27, 0.0868530
3287.35, 0.0871480
3289.44, 0.0875890
3291.53, 0.0881040
3293.62, 0.0886200
3295.71, 0.0889140
3297.81, 0.0892820
3299.91, 0.0900180
3302.01, 0.0904600
3304.11, 0.0908280
3306.22, 0.0912690
3308.33, 0.0917110
3310.44, 0.0922260
3312.56, 0.0927410
3314.68, 0.0933300
3316.8, 0.0937720
3318.92, 0.0941400
3321.05, 0.0945820
3323.18, 0.0950230
3325.31, 0.0956120
3327.44, 0.0962010
3329.58, 0.0965690
3331.72, 0.0970110
3333.86, 0.0974520
3336.01, 0.0979670
3338.16, 0.0984830
3340.31, 0.0989240
3342.46, 0.0992920
3344.61, 0.0998810
3346.77, 0.100396
3348.94, 0.100691
3351.1, 0.101059
3353.27, 0.101574
3355.44, 0.102089
3357.61, 0.102457
3359.79, 0.102752
3361.97, 0.103193
3364.15, 0.103782
3366.33, 0.104297
3368.52, 0.104739
3370.71, 0.105107
3372.9, 0.105254
3375.1, 0.105696
3377.3, 0.106211
3379.5, 0.106800
3381.71, 0.107242
3383.91, 0.107610
3386.12, 0.108198
3388.34, 0.108566
3390.55, 0.109082
3392.77, 0.109597
3394.99, 0.109818
3397.22, 0.110186
3399.45, 0.110627
3401.68, 0.111143
3403.91, 0.111658
3406.15, 0.112026
3408.39, 0.112320
3410.63, 0.112688
3412.87, 0.113351
3415.12, 0.113866
3417.37, 0.114308
3419.63, 0.114823
3421.88, 0.115191
3424.14, 0.115632
3426.41, 0.116148
3428.67, 0.116663
3430.94, 0.117105
3433.21, 0.117546
3435.49, 0.117914
3437.77, 0.118429
3440.05, 0.118945
3442.33, 0.119313
3444.62, 0.119828
3446.91, 0.120196
3449.2, 0.120564
3451.5, 0.121079
3453.8, 0.121521
3456.1, 0.122036
3458.41, 0.122478
3460.72, 0.122919
3463.03, 0.123287
3465.34, 0.123582
3467.66, 0.123950
3469.98, 0.124465
3472.31, 0.124833
3474.63, 0.125275
3476.96, 0.125569
3479.3, 0.126084
3481.64, 0.126526
3483.97, 0.126967
3486.32, 0.127336
3488.66, 0.127777
3491.01, 0.128292
3493.36, 0.128660
3495.72, 0.128955
3498.08, 0.129323
3500.44, 0.129617
3502.81, 0.130132
3505.18, 0.130427
3507.55, 0.130869
3509.92, 0.131384
3512.3, 0.131678
3514.68, 0.131973
3517.06, 0.132414
3519.45, 0.132782
3521.84, 0.133297
3524.24, 0.133739
3526.64, 0.134328
3529.04, 0.134696
3531.44, 0.135138
3533.85, 0.135653
3536.26, 0.136168
3538.67, 0.136462
3541.09, 0.136830
3543.51, 0.137198
3545.93, 0.137787
3548.36, 0.138376
3550.79, 0.138965
3553.22, 0.139480
3555.66, 0.139922
3558.1, 0.140658
3560.54, 0.141320
3562.99, 0.141762
3565.44, 0.142277
3567.9, 0.143013
3570.35, 0.143676
3572.81, 0.144265
3575.28, 0.144927
3577.75, 0.145589
3580.22, 0.146252
3582.69, 0.146988
3585.17, 0.147724
3587.65, 0.148386
3590.14, 0.149049
3592.62, 0.149711
3595.11, 0.150447
3597.61, 0.151110
3600.11, 0.151772
3602.61, 0.152508
3605.11, 0.153097
3607.62, 0.153612
3610.14, 0.154348
3612.65, 0.154937
3615.17, 0.155452
3617.69, 0.156188
3620.22, 0.156556
3622.75, 0.156998
3625.28, 0.157734
3627.82, 0.158249
3630.36, 0.158691
3632.9, 0.159280
3635.45, 0.159942
3638.0, 0.160531
3640.56, 0.161120
3643.12, 0.161488
3645.68, 0.161930
3648.24, 0.162445
3650.81, 0.162960
3653.39, 0.163475
3655.96, 0.163917
3658.54, 0.164432
3661.13, 0.164947
3663.71, 0.165389
3666.3, 0.165610
3668.9, 0.165978
3671.5, 0.166567
3674.1, 0.167155
3676.7, 0.167597
3679.31, 0.168039
3681.93, 0.168480
3684.54, 0.168848
3687.17, 0.169364
3689.79, 0.169805
3692.42, 0.170173
3695.05, 0.170468
3697.69, 0.170836
3700.32, 0.171351
3702.97, 0.171719
3705.61, 0.172087
3708.27, 0.172676
3710.92, 0.172897
3713.58, 0.173265
3716.24, 0.173706
3718.91, 0.174074
3721.58, 0.174295
3724.25, 0.174516
3726.93, 0.175031
3729.61, 0.175546
3732.29, 0.175988
3734.98, 0.176209
3737.67, 0.176503
3740.37, 0.176945
3743.07, 0.177313
3745.78, 0.177681
3748.49, 0.178196
3751.2, 0.178785
3753.91, 0.179079
3756.63, 0.179374
3759.36, 0.179742
3762.09, 0.180183
3764.82, 0.180699
3767.55, 0.181067
3770.29, 0.181508
3773.04, 0.181876
3775.78, 0.182097
3778.54, 0.182392
3781.29, 0.182686
3784.05, 0.183128
3786.82, 0.183496
3789.59, 0.183864
3792.36, 0.184158
3795.13, 0.184526
3797.92, 0.184820
3800.7, 0.185041
3803.49, 0.185409
3806.28, 0.185777
3809.08, 0.186072
3811.88, 0.186440
3814.68, 0.186881
3817.49, 0.187249
3820.31, 0.187397
3823.12, 0.187544
3825.94, 0.187912
3828.77, 0.188280
3831.6, 0.188574
3834.43, 0.189090
3837.27, 0.189531
3840.11, 0.189899
3842.96, 0.190046
3845.81, 0.190341
3848.67, 0.190782
3851.53, 0.191224
3854.39, 0.191592
3857.26, 0.191886
3860.13, 0.192328
3863.01, 0.192770
3865.89, 0.193064
3868.77, 0.193432
3871.66, 0.193800
3874.55, 0.194168
3877.45, 0.194536
3880.35, 0.194831
3883.26, 0.195125
3886.17, 0.195420
3889.09, 0.195788
3892.01, 0.196082
3894.93, 0.196303
3897.86, 0.196597
3900.79, 0.196965
3903.73, 0.197333
3906.67, 0.197554
3909.62, 0.197775
3912.57, 0.197996
3915.52, 0.198364
3918.48, 0.198732
3921.45, 0.198805
3924.42, 0.198879
3927.39, 0.199026
3930.37, 0.199026
3933.35, 0.199247
3936.34, 0.199394
3939.33, 0.199615
3942.32, 0.199762
3945.32, 0.199909
3948.33, 0.200057
3951.34, 0.200130
3954.35, 0.200130
3957.37, 0.200130
3960.39, 0.200204
3963.42, 0.200277
3966.45, 0.200498
3969.49, 0.200719
3972.53, 0.200793
3975.58, 0.200793
3978.63, 0.200866
3981.68, 0.200940
3984.75, 0.201013
3987.81, 0.201013
3990.88, 0.201161
3993.95, 0.201308
3997.03, 0.201381
4000.12, 0.201381
4003.21, 0.201455
4006.3, 0.201455
4009.4, 0.201602
4012.5, 0.201676
4015.61, 0.201676
4018.72, 0.201676
4021.84, 0.201749
4024.96, 0.201823
4028.09, 0.201970
4031.22, 0.201970
4034.36, 0.202044
4037.5, 0.202118
4040.65, 0.202044
4043.8, 0.202044
4046.96, 0.202118
4050.12, 0.202191
4053.29, 0.202118
4056.46, 0.202118
4059.64, 0.202044
4062.82, 0.202044
4066.0, 0.202044
4069.19, 0.201970
4072.39, 0.202044
4075.59, 0.201897
4078.8, 0.201823
4082.01, 0.201749
4085.23, 0.201749
4088.45, 0.201602
4091.68, 0.201455
4094.91, 0.201308
4098.15, 0.201308
4101.39, 0.201234
4104.63, 0.201013
4107.89, 0.200940
4111.14, 0.200866
4114.41, 0.200645
4117.67, 0.200277
4120.95, 0.200204
4124.23, 0.200130
4127.51, 0.199909
4130.8, 0.199615
4134.09, 0.199394
4137.39, 0.199100
4140.7, 0.198953
4144.01, 0.198879
4147.32, 0.198732
4150.64, 0.198511
4153.97, 0.198216
4157.3, 0.197922
4160.64, 0.197701
4163.98, 0.197480
4167.33, 0.197039
4170.68, 0.196818
4174.04, 0.196671
4177.4, 0.196376
4180.77, 0.195935
4184.14, 0.195493
4187.52, 0.195199
4190.91, 0.194831
4194.3, 0.194536
4197.69, 0.194242
4201.1, 0.193947
4204.5, 0.193432
4207.92, 0.193064
4211.34, 0.192770
4214.76, 0.192549
4218.19, 0.192107
4221.62, 0.191666
4225.06, 0.191445
4228.51, 0.191077
4231.96, 0.190635
4235.42, 0.190267
4238.88, 0.189973
4242.35, 0.189752
4245.83, 0.189384
4249.31, 0.189016
4252.79, 0.188795
4256.28, 0.188280
4259.78, 0.187691
4263.29, 0.187249
4266.79, 0.186661
4270.31, 0.186219
4273.83, 0.185925
4277.35, 0.185483
4280.89, 0.184968
4284.42, 0.184673
4287.97, 0.184379
4291.52, 0.183937
4295.07, 0.183348
4298.63, 0.182907
4302.2, 0.182465
4305.78, 0.182024
4309.35, 0.181582
4312.94, 0.181140
4316.53, 0.180551
4320.13, 0.180183
4323.73, 0.179742
4327.34, 0.179153
4330.96, 0.178491
4334.58, 0.177975
4338.21, 0.177534
4341.84, 0.177018
4345.48, 0.176577
4349.12, 0.175988
4352.77, 0.175326
4356.43, 0.174663
4360.1, 0.173927
4363.76, 0.173412
4367.44, 0.172823
4371.12, 0.172234
4374.81, 0.171645
4378.51, 0.170983
4382.21, 0.170247
4385.92, 0.169658
4389.63, 0.169069
4393.35, 0.168186
4397.08, 0.167376
4400.81, 0.166787
4404.55, 0.166125
4408.29, 0.165389
4412.04, 0.164800
4415.8, 0.164211
4419.57, 0.163328
4423.34, 0.162666
4427.12, 0.161856
4430.9, 0.161194
4434.69, 0.160531
4438.49, 0.159869
4442.29, 0.159206
4446.1, 0.158470
4449.92, 0.157660
4453.74, 0.156924
4457.57, 0.156115
4461.41, 0.155158
4465.25, 0.154422
4469.1, 0.153612
4472.95, 0.152876
4476.82, 0.152287
4480.69, 0.151551
4484.56, 0.150815
4488.44, 0.150079
4492.33, 0.149343
4496.23, 0.148607
4500.13, 0.147945
4504.04, 0.147356
4507.96, 0.146841
4511.88, 0.146031
4515.81, 0.145369
4519.75, 0.144780
4523.69, 0.143970
4527.65, 0.143160
4531.6, 0.142424
4535.57, 0.141615
4539.54, 0.140731
4543.52, 0.139922
4547.5, 0.139186
4551.5, 0.138303
4555.5, 0.137419
4559.5, 0.136536
4563.52, 0.135432
4567.54, 0.134402
4571.56, 0.133445
4575.6, 0.132414
4579.64, 0.131384
4583.69, 0.130353
4587.75, 0.129249
4591.81, 0.128072
4595.88, 0.126967
4599.96, 0.125937
4604.04, 0.124907
4608.14, 0.123803
4612.24, 0.122772
4616.34, 0.121815
4620.46, 0.120858
4624.58, 0.119975
4628.71, 0.119092
4632.84, 0.118282
4636.99, 0.117325
4641.14, 0.116516
4645.3, 0.115632
4649.47, 0.114896
4653.64, 0.114160
4657.82, 0.113351
4662.01, 0.112467
4666.21, 0.111658
4670.41, 0.110848
4674.62, 0.109965
4678.84, 0.109155
4683.07, 0.108419
4687.3, 0.107536
4691.54, 0.106800
4695.79, 0.106137
4700.05, 0.105328
4704.31, 0.104518
4708.59, 0.103856
4712.87, 0.103193
4717.15, 0.102310
4721.45, 0.101500
4725.76, 0.100691
4730.07, 0.0996600
4734.39, 0.0988510
4738.72, 0.0980410
4743.05, 0.0971580
4747.39, 0.0962740
4751.75, 0.0954650
4756.1, 0.0945080
4760.47, 0.0935510
4764.85, 0.0926680
4769.23, 0.0917850
4773.62, 0.0910490
4778.02, 0.0902390
4782.43, 0.0893560
4786.85, 0.0886200
4791.27, 0.0878840
4795.7, 0.0870740
4800.14, 0.0863380
4804.59, 0.0856020
4809.05, 0.0847920
4813.51, 0.0840560
4817.99, 0.0833940
4822.47, 0.0826580
4826.96, 0.0819950
4831.46, 0.0814800
4835.96, 0.0807440
4840.48, 0.0801550
4845.0, 0.0794930
4849.54, 0.0788300
4854.08, 0.0782410
4858.63, 0.0776530
4863.18, 0.0769900
4867.75, 0.0762540
4872.33, 0.0756650
4876.91, 0.0750760
4881.5, 0.0743400
4886.1, 0.0736040
4890.71, 0.0730160
4895.33, 0.0724270
4899.96, 0.0717640
4904.59, 0.0710280
4909.24, 0.0702920
4913.89, 0.0696300
4918.55, 0.0690410
4923.22, 0.0685260
4927.9, 0.0680840
4932.59, 0.0677160
4937.29, 0.0672740
4942.0, 0.0666120
4946.71, 0.0660970
4951.44, 0.0656550
4956.17, 0.0652130
4960.91, 0.0647720
4965.67, 0.0644040
4970.43, 0.0640360
4975.2, 0.0636680
4979.98, 0.0633000
4984.76, 0.0630050
4989.56, 0.0627110
4994.37, 0.0624160
4999.18, 0.0622690
5004.01, 0.0619750
5008.84, 0.0616800
5013.69, 0.0615330
5018.54, 0.0613860
5023.4, 0.0612390
5028.28, 0.0610920
5033.16, 0.0610920
5038.05, 0.0608710
5042.95, 0.0607240
5047.86, 0.0605760
5052.78, 0.0605030
5057.71, 0.0605030
5062.65, 0.0603560
5067.6, 0.0602080
5072.56, 0.0601350
5077.53, 0.0599880
5082.5, 0.0599140
5087.49, 0.0598400
5092.49, 0.0597670
5097.5, 0.0596930
5102.51, 0.0595460
5107.54, 0.0593990
5112.58, 0.0592510
5117.62, 0.0591040
5122.68, 0.0588830
5127.75, 0.0588100
5132.82, 0.0587360
5137.91, 0.0585890
5143.01, 0.0585150
5148.12, 0.0586630
5153.23, 0.0585890
5158.36, 0.0584420
5163.5, 0.0583680
5168.65, 0.0582210
5173.81, 0.0581470
5178.98, 0.0580000
5184.15, 0.0579270
5189.34, 0.0580740
5194.54, 0.0580740
5199.75, 0.0580000
5204.98, 0.0578530
5210.21, 0.0576320
5215.45, 0.0576320
5220.7, 0.0574850
5225.96, 0.0572640
5231.23, 0.0570430
5236.52, 0.0567490
5241.81, 0.0566020
5247.12, 0.0564550
5252.44, 0.0562340
5257.76, 0.0559390
5263.1, 0.0557180
5268.45, 0.0555710
5273.81, 0.0554240
5279.18, 0.0552030
5284.56, 0.0549820
5289.95, 0.0549820
5295.36, 0.0548350
5300.77, 0.0546140
5306.2, 0.0544670
5311.63, 0.0543940
5317.08, 0.0543200
5322.54, 0.0541730
5328.01, 0.0540990
5333.49, 0.0538050
5338.98, 0.0537310
5344.49, 0.0535840
5350.0, 0.0535840
5355.53, 0.0536580
5361.07, 0.0536580
5366.62, 0.0536580
5372.18, 0.0535840
5377.75, 0.0535100
5383.34, 0.0535100
5388.93, 0.0535100
5394.54, 0.0535100
5400.16, 0.0535100
5405.79, 0.0535840
5411.44, 0.0536580
5417.09, 0.0535840
5422.76, 0.0537310
5428.43, 0.0539520
5434.12, 0.0540260
5439.83, 0.0539520
5445.54, 0.0538050
5451.26, 0.0537310
5457.0, 0.0535840
5462.75, 0.0532900
5468.52, 0.0530690
5474.29, 0.0527740
5480.08, 0.0527010
5485.88, 0.0526270
5491.69, 0.0523330
5497.51, 0.0519650
5503.35, 0.0516700
5509.2, 0.0513760
5515.06, 0.0508610
5520.93, 0.0504190
5526.82, 0.0501250
5532.71, 0.0498300
5538.63, 0.0496090
5544.55, 0.0492410
5550.49, 0.0488000
5556.44, 0.0483580
5562.4, 0.0479900
5568.37, 0.0476960
5574.36, 0.0474010
5580.36, 0.0472540
5586.37, 0.0469600
5592.4, 0.0466650
5598.44, 0.0465180
5604.49, 0.0464440
5610.56, 0.0462240
5616.63, 0.0460030
5622.73, 0.0459290
5628.83, 0.0456350
5634.95, 0.0454140
5641.08, 0.0454140
5647.23, 0.0455610
5653.39, 0.0454870
5659.56, 0.0454870
5665.74, 0.0454870
5671.94, 0.0453400
5678.15, 0.0452670
5684.38, 0.0452670
5690.62, 0.0451930
5696.87, 0.0451190
5703.14, 0.0449720
5709.42, 0.0448990
5715.72, 0.0447510
5722.03, 0.0445310
5728.35, 0.0443100
5734.69, 0.0441630
5741.03, 0.0438680
5747.4, 0.0436470
5753.78, 0.0433530
5760.17, 0.0429110
5766.58, 0.0425430
5773.0, 0.0423220
5779.44, 0.0420280
5785.88, 0.0416600
5792.35, 0.0413660
5798.83, 0.0409240
5805.32, 0.0405560
5811.83, 0.0401140
5818.35, 0.0395990
5824.89, 0.0394520
5831.45, 0.0392310
5838.01, 0.0388630
5844.59, 0.0385690
5851.19, 0.0382740
5857.8, 0.0379060
5864.43, 0.0376120
5871.07, 0.0373170
5877.73, 0.0370230
5884.4, 0.0368760
5891.09, 0.0365080
5897.79, 0.0362870
5904.5, 0.0362130
5911.23, 0.0359930
5917.98, 0.0358450
5924.75, 0.0356250
5931.53, 0.0354770
5938.32, 0.0354770
5945.13, 0.0352560
5951.96, 0.0350360
5958.8, 0.0350360
5965.65, 0.0348880
5972.53, 0.0348880
5979.42, 0.0347410
5986.32, 0.0345200
5993.24, 0.0345940
6000.18, 0.0345940
6007.13, 0.0343730
6014.1, 0.0342260
6021.08, 0.0341520
6028.09, 0.0340790
6035.1, 0.0339320
6042.14, 0.0336370
6049.19, 0.0336370
6056.25, 0.0337840
6063.34, 0.0335640
6070.44, 0.0331960
6077.55, 0.0331220
6084.69, 0.0331220
6091.84, 0.0327540
6099.0, 0.0325330
6106.19, 0.0323860
6113.39, 0.0322390
6120.61, 0.0320910
6127.84, 0.0319440
6135.09, 0.0316500
6142.36, 0.0315760
6149.65, 0.0315030
6156.95, 0.0313550
6164.27, 0.0312080
6171.61, 0.0310610
6178.97, 0.0307670
6186.34, 0.0307670
6193.73, 0.0308400
6201.14, 0.0306930
6208.57, 0.0305460
6216.01, 0.0305460
6223.47, 0.0305460
6230.95, 0.0304720
6238.45, 0.0304720
6245.97, 0.0304720
6253.5, 0.0306190
6261.06, 0.0306190
6268.63, 0.0306930
6276.21, 0.0306930
6283.82, 0.0307670
6291.45, 0.0308400
6299.1, 0.0307670
6306.76, 0.0308400
6314.44, 0.0309870
6322.14, 0.0310610
6329.86, 0.0312080
6337.6, 0.0312820
6345.35, 0.0315030
6353.13, 0.0317230
6360.92, 0.0317230
6368.74, 0.0318710
6376.57, 0.0321650
6384.43, 0.0323860
6392.3, 0.0325330
6400.19, 0.0326070
6408.1, 0.0326070
6416.03, 0.0327540
6423.98, 0.0329750
6431.95, 0.0331960
6439.94, 0.0333430
6447.95, 0.0334900
6455.98, 0.0336370
6464.03, 0.0336370
6472.1, 0.0337110
6480.19, 0.0337110
6488.31, 0.0335640
6496.44, 0.0336370
6504.59, 0.0338580
6512.76, 0.0339320
6520.95, 0.0339320
6529.16, 0.0339320
6537.4, 0.0341520
6545.65, 0.0343730
6553.92, 0.0343730
6562.22, 0.0343730
6570.54, 0.0345200
6578.88, 0.0347410
6587.23, 0.0348150
6595.61, 0.0349620
6604.02, 0.0351830
6612.44, 0.0354770
6620.89, 0.0356250
6629.35, 0.0355510
6637.84, 0.0356250
6646.35, 0.0358450
6654.88, 0.0358450
6663.44, 0.0358450
6672.01, 0.0358450
6680.61, 0.0358450
6689.23, 0.0359190
6697.88, 0.0359930
6706.54, 0.0360660
6715.23, 0.0361400
6723.94, 0.0362130
6732.67, 0.0362130
6741.42, 0.0362130
6750.2, 0.0362870
6759.0, 0.0363610
6767.82, 0.0363610
6776.67, 0.0364340
6785.54, 0.0364340
6794.44, 0.0365080
6803.35, 0.0365810
6812.29, 0.0365810
6821.26, 0.0365080
6830.24, 0.0365080
6839.25, 0.0365080
6848.29, 0.0362870
6857.35, 0.0361400
6866.43, 0.0362870
6875.54, 0.0363610
6884.67, 0.0362130
6893.82, 0.0361400
6903.0, 0.0361400
6912.2, 0.0360660
6921.43, 0.0359190
6930.69, 0.0359190
6939.96, 0.0358450
6949.27, 0.0355510
6958.59, 0.0354040
6967.95, 0.0353300
6977.33, 0.0351090
6986.73, 0.0348880
6996.16, 0.0346680
7005.61, 0.0345940
7015.09, 0.0344470
7024.6, 0.0343000
7034.13, 0.0343000
7043.69, 0.0343000
7053.27, 0.0342260
7062.88, 0.0340790
7072.52, 0.0338580
7082.18, 0.0337840
7091.87, 0.0336370
7101.58, 0.0335640
7111.32, 0.0334900
7121.09, 0.0334160
7130.88, 0.0333430
7140.71, 0.0331960
7150.56, 0.0329750
7160.43, 0.0326800
7170.33, 0.0326070
7180.27, 0.0324600
7190.23, 0.0321650
7200.21, 0.0320180
7210.23, 0.0319440
7220.27, 0.0317970
7230.34, 0.0315030
7240.44, 0.0312080
7250.56, 0.0310610
7260.72, 0.0308400
7270.9, 0.0305460
7281.12, 0.0303990
7291.36, 0.0301040
7301.63, 0.0298830
7311.93, 0.0295890
7322.25, 0.0291470
7332.61, 0.0290000
7343.0, 0.0290000
7353.41, 0.0288530
7363.86, 0.0286320
7374.33, 0.0283380
7384.83, 0.0281170
7395.37, 0.0278960
7405.93, 0.0277490
7416.53, 0.0275280
7427.15, 0.0273070
7437.81, 0.0271600
7448.5, 0.0269390
7459.22, 0.0266450
7469.96, 0.0264240
7480.74, 0.0262770
7491.55, 0.0260560
7502.39, 0.0258350
7513.27, 0.0258350
7524.17, 0.0257620
7535.11, 0.0256140
7546.08, 0.0256140
7557.08, 0.0254670
7568.11, 0.0253200
7579.17, 0.0250990
7590.27, 0.0249520
7601.4, 0.0248780
7612.56, 0.0248780
7623.76, 0.0248780
7634.98, 0.0248780
7646.24, 0.0250250
7657.54, 0.0251730
7668.87, 0.0252460
7680.23, 0.0252460
7691.62, 0.0251730
7703.05, 0.0251730
7714.51, 0.0253930
7726.01, 0.0254670
7737.54, 0.0255410
7749.11, 0.0256880
7760.71, 0.0256140
7772.35, 0.0256140
7784.02, 0.0257620
7795.72, 0.0257620
7807.46, 0.0257620
7819.23, 0.0258350
7831.04, 0.0259820
7842.89, 0.0262770
7854.77, 0.0262770
7866.69, 0.0264240
7878.65, 0.0267180
7890.64, 0.0269390
7902.67, 0.0272340
7914.74, 0.0275280
7926.84, 0.0278220
7938.98, 0.0281170
7951.16, 0.0284850
7963.37, 0.0287060
7975.62, 0.0289270
7987.91, 0.0290740
8000.24, 0.0292210
8012.6, 0.0292950
8025.01, 0.0294420
8037.45, 0.0295150
8049.93, 0.0295890
8062.45, 0.0298100
8075.01, 0.0300310
8087.61, 0.0301780
8100.24, 0.0303990
8112.91, 0.0307670
8125.63, 0.0309870
8138.39, 0.0311350
8151.18, 0.0312820
8164.02, 0.0314290
8176.9, 0.0314290
8189.81, 0.0312820
8202.77, 0.0310610
8215.77, 0.0309870
8228.82, 0.0307670
8241.9, 0.0306190
8255.02, 0.0302510
8268.19, 0.0298830
8281.39, 0.0296630
8294.65, 0.0294420
8307.94, 0.0291470
8321.28, 0.0287060
8334.66, 0.0283380
8348.08, 0.0279700
8361.54, 0.0275280
8375.05, 0.0273070
8388.6, 0.0270860
8402.2, 0.0267180
8415.84, 0.0265710
8429.52, 0.0262030
8443.25, 0.0257620
8457.02, 0.0254670
8470.84, 0.0253200
8484.7, 0.0250250
8498.61, 0.0246570
8512.57, 0.0243630
8526.57, 0.0239210
8540.62, 0.0234800
8554.71, 0.0228910
8568.85, 0.0221550
8583.04, 0.0211240
8597.27, 0.0199470
8611.55, 0.0187690
8625.88, 0.0181070
8640.26, 0.0184010
8654.68, 0.0192110
8669.16, 0.0199470
8683.68, 0.0203150
8698.25, 0.0206830
8712.87, 0.0207560
8727.53, 0.0207560
8742.25, 0.0206830
8757.02, 0.0206830
8771.83, 0.0207560
8786.7, 0.0208300
8801.62, 0.0209770
8816.59, 0.0211240
8831.61, 0.0213450
8846.68, 0.0214920
8861.8, 0.0217130
8876.97, 0.0217130
8892.2, 0.0217870
8907.48, 0.0220810
8922.81, 0.0222290
8938.2, 0.0224490
8953.63, 0.0229650
8969.13, 0.0234060
8984.67, 0.0238480
9000.27, 0.0247310
9015.92, 0.0259090
9031.63, 0.0271600
9047.39, 0.0287060
9063.21, 0.0303250
9079.08, 0.0320180
9095.01, 0.0337840
9111.0, 0.0362870
9127.04, 0.0389370
9143.13, 0.0414390
9159.28, 0.0440890
9175.49, 0.0471070
9191.76, 0.0503450
9208.09, 0.0540260
9224.47, 0.0580740
9240.92, 0.0624900
9257.42, 0.0668330
9273.98, 0.0715430
9290.6, 0.0768430
9307.28, 0.0822900
9324.02, 0.0878100
9340.82, 0.0932570
9357.68, 0.0987030
9374.6, 0.103856
9391.58, 0.108346
9408.62, 0.112173
9425.73, 0.115117
9442.9, 0.117473
9460.13, 0.119092
9477.42, 0.119975
9494.78, 0.120196
9512.2, 0.120343
9529.69, 0.120564
9547.24, 0.120711
9564.86, 0.121226
9582.54, 0.121815
9600.28, 0.122478
9618.1, 0.123140
9635.97, 0.124023
9653.92, 0.125201
9671.93, 0.126305
9690.01, 0.127041
9708.16, 0.127924
9726.37, 0.129102
9744.65, 0.130427
9763.0, 0.132046
9781.43, 0.133297
9799.92, 0.134328
9818.48, 0.134843
9837.1, 0.135064
9855.8, 0.135064
9874.58, 0.134917
9893.42, 0.134475
9912.34, 0.133886
9931.33, 0.132929
9950.39, 0.131752
9969.52, 0.130500
9988.74, 0.128955
10008.0, 0.127409
10027.4, 0.125054
10046.8, 0.122036
10066.3, 0.119386
10085.9, 0.116589
10105.6, 0.113498
10125.3, 0.110407
10145.1, 0.107610
10165.0, 0.104960
10185.0, 0.102310
10205.0, 0.0998070
10225.2, 0.0976730
10245.4, 0.0956120
10265.7, 0.0934780
10286.0, 0.0917110
10306.5, 0.0904600
10327.0, 0.0890610
10347.6, 0.0875160
10368.3, 0.0856750
10389.1, 0.0836880
10409.9, 0.0817740
10430.9, 0.0794930
10451.9, 0.0772850
10473.0, 0.0747820
10494.2, 0.0724270
10515.5, 0.0701450
10536.9, 0.0680840
10558.4, 0.0660970
10579.9, 0.0641090
10601.5, 0.0622690
10623.3, 0.0605030
10645.1, 0.0592510
10667.0, 0.0579270
10689.0, 0.0563070
10711.1, 0.0543940
10733.2, 0.0529950
10755.5, 0.0517440
10777.9, 0.0501250
10800.3, 0.0485050
10822.9, 0.0474750
10845.5, 0.0464440
10868.2, 0.0449720
10891.1, 0.0434270
10914.0, 0.0424700
10937.0, 0.0419540
10960.2, 0.0412920
10983.4, 0.0402620
11006.7, 0.0391580
11030.1, 0.0382010
11053.6, 0.0378330
11077.3, 0.0370970
11101.0, 0.0359190
11124.8, 0.0351830
11148.7, 0.0348150
11172.7, 0.0343000
11196.9, 0.0334900
11221.1, 0.0327540
11245.4, 0.0322390
11269.9, 0.0318710
11294.4, 0.0311350
11319.1, 0.0304720
11343.9, 0.0300310
11368.8, 0.0295150
11393.7, 0.0289270
11418.8, 0.0284850
11444.0, 0.0278960
11469.4, 0.0272340
11494.8, 0.0265710
11520.3, 0.0262030
11546.0, 0.0261300
11571.8, 0.0257620
11597.7, 0.0248780
11623.7, 0.0241420
11649.8, 0.0238480
11676.0, 0.0234800
11702.4, 0.0228910
11728.9, 0.0224490
11755.5, 0.0220080
11782.2, 0.0215660
11809.0, 0.0210510
11836.0, 0.0206090
11863.0, 0.0203150
11890.3, 0.0200200
11917.6, 0.0195790
11945.0, 0.0191370
11972.6, 0.0189900
12000.4, 0.0188430
12028.2, 0.0189160
12056.2, 0.0191370
12084.3, 0.0191370
12112.5, 0.0192110
12140.9, 0.0194320
12169.4, 0.0198000
12198.0, 0.0201680
12226.8, 0.0201680
12255.7, 0.0205360
12284.7, 0.0209040
12313.9, 0.0210510
12343.2, 0.0217130
12372.7, 0.0224490
12402.3, 0.0234060
12432.0, 0.0239210
12461.9, 0.0242890
12491.9, 0.0245840
12522.1, 0.0246570
12552.4, 0.0245100
12582.9, 0.0244370
12613.5, 0.0245840
12644.3, 0.0245100
12675.2, 0.0242890
12706.3, 0.0246570
12737.5, 0.0256140
12768.9, 0.0264980
12800.4, 0.0270130
12832.1, 0.0270130
12863.9, 0.0269390
12895.9, 0.0267180
12928.1, 0.0267180
12960.4, 0.0268660
12992.9, 0.0270860
13025.5, 0.0276750
13058.3, 0.0276020
13091.3, 0.0273070
13124.4, 0.0276020
13157.8, 0.0281900
13191.2, 0.0286320
13224.9, 0.0293680
13258.7, 0.0296630
13292.7, 0.0297360
13326.9, 0.0301040
13361.2, 0.0304720
13395.7, 0.0301780
13430.4, 0.0294420
13465.3, 0.0290000
13500.4, 0.0286320
13535.7, 0.0285580
13571.1, 0.0286320
13606.7, 0.0279700
13642.5, 0.0272340
13678.5, 0.0266450
13714.7, 0.0262770
13751.1, 0.0256140
13787.6, 0.0246570
13824.4, 0.0239210
13861.4, 0.0238480
13898.5, 0.0237740
13935.9, 0.0237740
13973.5, 0.0235530
14011.2, 0.0229650
14049.2, 0.0225230
14087.4, 0.0222290
14125.8, 0.0220080
14164.3, 0.0217130
14203.2, 0.0216400
14242.2, 0.0216400
14281.4, 0.0213450
14320.9, 0.0214190
14360.5, 0.0216400
14400.4, 0.0221550
14440.5, 0.0226700
14480.9, 0.0230380
14521.4, 0.0231850
14562.2, 0.0237010
14603.3, 0.0249520
14644.5, 0.0263500
14686.0, 0.0270860
14727.7, 0.0278960
14769.7, 0.0290740
14811.9, 0.0301780
14854.3, 0.0313550
14897.0, 0.0326800
14939.9, 0.0333430
14983.1, 0.0333430
15026.5, 0.0333430
15070.2, 0.0333430
15114.2, 0.0329750
15158.3, 0.0329010
15202.8, 0.0326800
15247.5, 0.0319440
15292.5, 0.0315030
15337.7, 0.0311350
15383.2, 0.0304720
15429.0, 0.0301040
15475.1, 0.0292950
15521.4, 0.0283380
15568.0, 0.0280430
15614.9, 0.0271600
15662.1, 0.0264240
15709.6, 0.0262030
15757.3, 0.0260560
15805.4, 0.0259090
15853.7, 0.0252460
15902.3, 0.0250990
15951.2, 0.0250250
16000.5, 0.0246570
16050.0, 0.0242890
16099.8, 0.0242160
16150.0, 0.0239210
16200.5, 0.0236270
16251.3, 0.0227440
16302.4, 0.0225970
16353.8, 0.0219340
16405.5, 0.0203880
16457.6, 0.0191370
16510.0, 0.0188430
16562.8, 0.0182540
16615.9, 0.0173710
16669.3, 0.0164870
16723.1, 0.0156780
16777.2, 0.0153830
16831.7, 0.0147940
16886.5, 0.0141320
16941.7, 0.0140580
16997.2, 0.0139850
17053.1, 0.0137640
17109.4, 0.0136170
17166.1, 0.0136900
17223.1, 0.0140580
17280.5, 0.0142060
17338.3, 0.0151620
17396.5, 0.0162670
17455.1, 0.0172230
17514.0, 0.0192110
17573.4, 0.0218600
17633.2, 0.0245840
17693.4, 0.0281900
17754.0, 0.0320180
17815.0, 0.0351090
17876.4, 0.0394520
17938.3, 0.0443830
18000.5, 0.0485790
18063.3, 0.0522590
18126.4, 0.0549090
18190.0, 0.0558660
18254.1, 0.0560870
18318.6, 0.0560870
18383.5, 0.0554980
18449.0, 0.0548350
18514.9, 0.0548350
18581.2, 0.0534370
18648.0, 0.0515230
18715.4, 0.0507130
18783.2, 0.0502720
18851.5, 0.0497570
18920.3, 0.0496090
18989.6, 0.0489470
19059.4, 0.0498300
19129.7, 0.0534370
19200.6, 0.0589570
19272.0, 0.0658760
19343.9, 0.0736040
19416.3, 0.0821420
19489.3, 0.0899450
19562.8, 0.0989240
19637.0, 0.107757
19711.6, 0.113940
19786.8, 0.119975
19862.6, 0.125937
19939.0, 0.130132
20016.0, 0.133297
20093.6, 0.137419
20171.8, 0.141320
20250.6, 0.143970
20330.0, 0.146988
20410.0, 0.150962
20490.7, 0.155084
20572.0, 0.157660
20654.0, 0.157881
20736.6, 0.160531
20819.9, 0.165610
20903.8, 0.167523
20988.5, 0.168480
21073.8, 0.169732
21159.8, 0.172602
21246.5, 0.175399
21334.0, 0.176650
21422.1, 0.175326
21511.0, 0.173706
21600.7, 0.172087
21691.0, 0.170468
21782.1, 0.167744
21874.0, 0.165904
21966.7, 0.164064
22060.2, 0.159869
22154.5, 0.155158
22249.6, 0.151551
22345.5, 0.148092
22442.2, 0.146105
22539.8, 0.143381
22638.2, 0.142645
22737.5, 0.144485
22837.7, 0.145001
22938.7, 0.143823
23040.7, 0.143087
23143.5, 0.144117
23247.3, 0.149196
23352.1, 0.153391
23457.7, 0.153391
23564.4, 0.150889
23672.0, 0.146693
23780.5, 0.141026
23890.1, 0.130721
24000.7, 0.120638
24112.3, 0.110995
24225.0, 0.104592
24338.7, 0.0996600
24453.5, 0.0982620
24569.4, 0.0997340
24686.4, 0.0947290
24804.5, 0.0901650
24923.8, 0.0926680
