Database of Origin, USGS Spectral Database
Sample Description, See USGS database for additional info
Date Added,2017-07-03 06:06:55.358201

Data ID,USGS_ilm02          
Sample ID, ilmenite_hs231.11112
Mineral Name, ilmenite
Material Class,Oxide

Wavelength
1499.61, 0.0230870
1500.04, 0.0232050
1500.48, 0.0230090
1500.91, 0.0229300
1501.35, 0.0233220
1501.78, 0.0232050
1502.22, 0.0229300
1502.65, 0.0233220
1503.09, 0.0236750
1503.53, 0.0240280
1503.96, 0.0239880
1504.4, 0.0237530
1504.83, 0.0240670
1505.27, 0.0246550
1505.71, 0.0247720
1506.15, 0.0245760
1506.58, 0.0243800
1507.02, 0.0246160
1507.46, 0.0250860
1507.9, 0.0253600
1508.34, 0.0253210
1508.78, 0.0251250
1509.21, 0.0256740
1509.66, 0.0260660
1510.09, 0.0252820
1510.53, 0.0250860
1510.97, 0.0256350
1511.42, 0.0257520
1511.86, 0.0259880
1512.3, 0.0261050
1512.74, 0.0261840
1513.18, 0.0265360
1513.62, 0.0266930
1514.06, 0.0268110
1514.51, 0.0270850
1514.95, 0.0270460
1515.39, 0.0271630
1515.83, 0.0270850
1516.28, 0.0275160
1516.72, 0.0277120
1517.16, 0.0273590
1517.61, 0.0271240
1518.05, 0.0276340
1518.5, 0.0277120
1518.94, 0.0278690
1519.39, 0.0283390
1519.83, 0.0284180
1520.28, 0.0284960
1520.73, 0.0286920
1521.17, 0.0287310
1521.62, 0.0288490
1522.07, 0.0287310
1522.51, 0.0287700
1522.96, 0.0289660
1523.41, 0.0291230
1523.85, 0.0293580
1524.3, 0.0297900
1524.75, 0.0301420
1525.2, 0.0303780
1525.65, 0.0301030
1526.1, 0.0299860
1526.55, 0.0300640
1527.0, 0.0303380
1527.45, 0.0301030
1527.9, 0.0295540
1528.35, 0.0293980
1528.8, 0.0295540
1529.25, 0.0302210
1529.7, 0.0306130
1530.15, 0.0308480
1530.6, 0.0310440
1531.05, 0.0311620
1531.51, 0.0311220
1531.96, 0.0309260
1532.41, 0.0310440
1532.87, 0.0311620
1533.32, 0.0317490
1533.77, 0.0320630
1534.23, 0.0317100
1534.68, 0.0312400
1535.14, 0.0316320
1535.59, 0.0320630
1536.05, 0.0320240
1536.5, 0.0319060
1536.96, 0.0320240
1537.41, 0.0320630
1537.87, 0.0321410
1538.32, 0.0321410
1538.78, 0.0322200
1539.24, 0.0326120
1539.7, 0.0328860
1540.15, 0.0330040
1540.61, 0.0332000
1541.07, 0.0329650
1541.53, 0.0327690
1541.98, 0.0329250
1542.44, 0.0331210
1542.9, 0.0332390
1543.36, 0.0333170
1543.82, 0.0334740
1544.28, 0.0337090
1544.74, 0.0335530
1545.2, 0.0338270
1545.66, 0.0342580
1546.12, 0.0347280
1546.59, 0.0343760
1547.05, 0.0337880
1547.51, 0.0337480
1547.97, 0.0340620
1548.43, 0.0342190
1548.9, 0.0341400
1549.36, 0.0340230
1549.82, 0.0341400
1550.29, 0.0341400
1550.75, 0.0344930
1551.21, 0.0348070
1551.68, 0.0348070
1552.14, 0.0348070
1552.61, 0.0347280
1553.07, 0.0347680
1553.54, 0.0353160
1554.0, 0.0352770
1554.47, 0.0352770
1554.93, 0.0351990
1555.4, 0.0353160
1555.87, 0.0355910
1556.34, 0.0355910
1556.8, 0.0356300
1557.27, 0.0355910
1557.74, 0.0357870
1558.21, 0.0360220
1558.68, 0.0355910
1559.14, 0.0354340
1559.61, 0.0357080
1560.08, 0.0359830
1560.55, 0.0360220
1561.02, 0.0361400
1561.49, 0.0358650
1561.96, 0.0360220
1562.43, 0.0361400
1562.9, 0.0358650
1563.38, 0.0358650
1563.85, 0.0364140
1564.32, 0.0363750
1564.79, 0.0362960
1565.26, 0.0361000
1565.74, 0.0361790
1566.21, 0.0367670
1566.68, 0.0367670
1567.16, 0.0361790
1567.63, 0.0362180
1568.1, 0.0366100
1568.58, 0.0371190
1569.05, 0.0370410
1569.53, 0.0367270
1570.0, 0.0368060
1570.48, 0.0370800
1570.96, 0.0374330
1571.43, 0.0374330
1571.91, 0.0372760
1572.39, 0.0371190
1572.86, 0.0369230
1573.34, 0.0368840
1573.82, 0.0369630
1574.3, 0.0373550
1574.77, 0.0375110
1575.25, 0.0377070
1575.73, 0.0377470
1576.21, 0.0377070
1576.69, 0.0377860
1577.17, 0.0377860
1577.65, 0.0379430
1578.13, 0.0377470
1578.61, 0.0375110
1579.09, 0.0380600
1579.57, 0.0381780
1580.05, 0.0380990
1580.54, 0.0380600
1581.02, 0.0380600
1581.5, 0.0380210
1581.98, 0.0378640
1582.47, 0.0375900
1582.95, 0.0375510
1583.43, 0.0378250
1583.92, 0.0378250
1584.4, 0.0381390
1584.88, 0.0384520
1585.37, 0.0382170
1585.85, 0.0381390
1586.34, 0.0382950
1586.82, 0.0386090
1587.31, 0.0387660
1587.8, 0.0386480
1588.28, 0.0385310
1588.77, 0.0388050
1589.26, 0.0388440
1589.74, 0.0388440
1590.23, 0.0388050
1590.72, 0.0385700
1591.21, 0.0387660
1591.7, 0.0391580
1592.19, 0.0392750
1592.67, 0.0392360
1593.16, 0.0390400
1593.65, 0.0389620
1594.14, 0.0390010
1594.63, 0.0392360
1595.12, 0.0391180
1595.61, 0.0391180
1596.11, 0.0392360
1596.6, 0.0393540
1597.09, 0.0392750
1597.58, 0.0391580
1598.08, 0.0393540
1598.57, 0.0397850
1599.06, 0.0398240
1599.55, 0.0395500
1600.05, 0.0394710
1600.54, 0.0394320
1601.04, 0.0394320
1601.53, 0.0393930
1602.03, 0.0393140
1602.52, 0.0395890
1603.02, 0.0397460
1603.51, 0.0395500
1604.01, 0.0393930
1604.5, 0.0395100
1605.0, 0.0395500
1605.5, 0.0398630
1606.0, 0.0400590
1606.49, 0.0398630
1606.99, 0.0397460
1607.49, 0.0399420
1607.99, 0.0399810
1608.49, 0.0399020
1608.99, 0.0400980
1609.49, 0.0402940
1609.99, 0.0401380
1610.49, 0.0402550
1610.99, 0.0403340
1611.49, 0.0402160
1611.99, 0.0402160
1612.49, 0.0401380
1612.99, 0.0400980
1613.49, 0.0403340
1614.0, 0.0403730
1614.5, 0.0403340
1615.0, 0.0404510
1615.51, 0.0404900
1616.01, 0.0405690
1616.51, 0.0407650
1617.02, 0.0404120
1617.52, 0.0402550
1618.03, 0.0403730
1618.53, 0.0404510
1619.04, 0.0406860
1619.54, 0.0411180
1620.05, 0.0408820
1620.55, 0.0406470
1621.06, 0.0406860
1621.57, 0.0406860
1622.08, 0.0406080
1622.58, 0.0408430
1623.09, 0.0412350
1623.6, 0.0412740
1624.11, 0.0409220
1624.62, 0.0406860
1625.13, 0.0407260
1625.64, 0.0410390
1626.15, 0.0411570
1626.66, 0.0411180
1627.17, 0.0411180
1627.68, 0.0412350
1628.19, 0.0412350
1628.7, 0.0411960
1629.21, 0.0410390
1629.72, 0.0408820
1630.24, 0.0408820
1630.75, 0.0408820
1631.26, 0.0410390
1631.78, 0.0414700
1632.29, 0.0415880
1632.8, 0.0413530
1633.32, 0.0412740
1633.83, 0.0414700
1634.35, 0.0413530
1634.86, 0.0413130
1635.38, 0.0415090
1635.9, 0.0415880
1636.41, 0.0414310
1636.93, 0.0413920
1637.45, 0.0415490
1637.96, 0.0417840
1638.48, 0.0417450
1639.0, 0.0417450
1639.52, 0.0417050
1640.04, 0.0416660
1640.56, 0.0415880
1641.08, 0.0417450
1641.59, 0.0420970
1642.11, 0.0422150
1642.63, 0.0418620
1643.16, 0.0416660
1643.68, 0.0415090
1644.2, 0.0419410
1644.72, 0.0420190
1645.24, 0.0417450
1645.76, 0.0418230
1646.29, 0.0420970
1646.81, 0.0421370
1647.33, 0.0422540
1647.86, 0.0423720
1648.38, 0.0424890
1648.9, 0.0422540
1649.43, 0.0419410
1649.95, 0.0419800
1650.48, 0.0420580
1651.0, 0.0422150
1651.53, 0.0424890
1652.06, 0.0424890
1652.58, 0.0425290
1653.11, 0.0422150
1653.64, 0.0420970
1654.17, 0.0421760
1654.69, 0.0421370
1655.22, 0.0422540
1655.75, 0.0426070
1656.28, 0.0426460
1656.81, 0.0424500
1657.34, 0.0424500
1657.87, 0.0426460
1658.4, 0.0425680
1658.93, 0.0424890
1659.46, 0.0425290
1659.99, 0.0424110
1660.52, 0.0423720
1661.05, 0.0425680
1661.59, 0.0428420
1662.12, 0.0428030
1662.65, 0.0426460
1663.19, 0.0426460
1663.72, 0.0426070
1664.26, 0.0428420
1664.79, 0.0428810
1665.32, 0.0426850
1665.86, 0.0427640
1666.39, 0.0427640
1666.93, 0.0426460
1667.47, 0.0427640
1668.0, 0.0427250
1668.54, 0.0428420
1669.08, 0.0431950
1669.61, 0.0433130
1670.15, 0.0431950
1670.69, 0.0431170
1671.23, 0.0429600
1671.77, 0.0429990
1672.31, 0.0433130
1672.85, 0.0434690
1673.39, 0.0432340
1673.93, 0.0431170
1674.47, 0.0430770
1675.01, 0.0430380
1675.55, 0.0431170
1676.09, 0.0435870
1676.64, 0.0436260
1677.18, 0.0434300
1677.72, 0.0433520
1678.26, 0.0433910
1678.81, 0.0433520
1679.35, 0.0432340
1679.89, 0.0429600
1680.44, 0.0431170
1680.98, 0.0433910
1681.53, 0.0435870
1682.07, 0.0436260
1682.62, 0.0435090
1683.17, 0.0435870
1683.71, 0.0436650
1684.26, 0.0435090
1684.81, 0.0435870
1685.36, 0.0436260
1685.9, 0.0435870
1686.45, 0.0435480
1687.0, 0.0435870
1687.55, 0.0436260
1688.1, 0.0436650
1688.65, 0.0437440
1689.2, 0.0436650
1689.75, 0.0435090
1690.3, 0.0435480
1690.85, 0.0436650
1691.41, 0.0437050
1691.96, 0.0437830
1692.51, 0.0440570
1693.06, 0.0439000
1693.61, 0.0436260
1694.17, 0.0436260
1694.72, 0.0438220
1695.28, 0.0441750
1695.83, 0.0443320
1696.39, 0.0442530
1696.94, 0.0440960
1697.5, 0.0440960
1698.05, 0.0441360
1698.61, 0.0439400
1699.17, 0.0438610
1699.72, 0.0438610
1700.28, 0.0440180
1700.84, 0.0440180
1701.4, 0.0440570
1701.95, 0.0442140
1702.51, 0.0442920
1703.07, 0.0442530
1703.63, 0.0442530
1704.19, 0.0441750
1704.75, 0.0442530
1705.31, 0.0444490
1705.88, 0.0444100
1706.44, 0.0442140
1707.0, 0.0441360
1707.56, 0.0442140
1708.12, 0.0444100
1708.69, 0.0444880
1709.25, 0.0445670
1709.81, 0.0445280
1710.38, 0.0445280
1710.94, 0.0444490
1711.51, 0.0444100
1712.07, 0.0443320
1712.64, 0.0443710
1713.2, 0.0444100
1713.77, 0.0445280
1714.34, 0.0445280
1714.9, 0.0446450
1715.47, 0.0446060
1716.04, 0.0445280
1716.61, 0.0445670
1717.18, 0.0445670
1717.74, 0.0445670
1718.31, 0.0446060
1718.88, 0.0444490
1719.45, 0.0445670
1720.02, 0.0447240
1720.59, 0.0447630
1721.17, 0.0447630
1721.74, 0.0448800
1722.31, 0.0449590
1722.88, 0.0448410
1723.45, 0.0446840
1724.03, 0.0448020
1724.6, 0.0449980
1725.18, 0.0450370
1725.75, 0.0449200
1726.33, 0.0448800
1726.9, 0.0448800
1727.48, 0.0448800
1728.05, 0.0448410
1728.63, 0.0448410
1729.2, 0.0449590
1729.78, 0.0449590
1730.36, 0.0449980
1730.94, 0.0452720
1731.51, 0.0451940
1732.09, 0.0451160
1732.67, 0.0451940
1733.25, 0.0452330
1733.83, 0.0452330
1734.41, 0.0450760
1734.99, 0.0449980
1735.57, 0.0453120
1736.15, 0.0453510
1736.73, 0.0454680
1737.32, 0.0455080
1737.9, 0.0453900
1738.48, 0.0453510
1739.07, 0.0454290
1739.65, 0.0454290
1740.23, 0.0453900
1740.82, 0.0455080
1741.4, 0.0457040
1741.99, 0.0456640
1742.57, 0.0455080
1743.16, 0.0455470
1743.74, 0.0456640
1744.33, 0.0456250
1744.92, 0.0456640
1745.51, 0.0456250
1746.09, 0.0456640
1746.68, 0.0458600
1747.27, 0.0459780
1747.86, 0.0459000
1748.45, 0.0457430
1749.04, 0.0456250
1749.63, 0.0456250
1750.22, 0.0458210
1750.81, 0.0459390
1751.4, 0.0457430
1751.99, 0.0456640
1752.59, 0.0456640
1753.18, 0.0457430
1753.77, 0.0459390
1754.37, 0.0461350
1754.96, 0.0461350
1755.56, 0.0461350
1756.15, 0.0461350
1756.74, 0.0462130
1757.34, 0.0462130
1757.94, 0.0463310
1758.53, 0.0463310
1759.13, 0.0462130
1759.73, 0.0461350
1760.32, 0.0461350
1760.92, 0.0460560
1761.52, 0.0459390
1762.12, 0.0459780
1762.72, 0.0462130
1763.32, 0.0462910
1763.92, 0.0463700
1764.52, 0.0464090
1765.12, 0.0463700
1765.72, 0.0464090
1766.32, 0.0465270
1766.92, 0.0464870
1767.53, 0.0464480
1768.13, 0.0464870
1768.73, 0.0465270
1769.34, 0.0464090
1769.94, 0.0464870
1770.55, 0.0466440
1771.15, 0.0466440
1771.76, 0.0466050
1772.36, 0.0467230
1772.97, 0.0465660
1773.57, 0.0463700
1774.18, 0.0463310
1774.79, 0.0464870
1775.4, 0.0466440
1776.0, 0.0465660
1776.61, 0.0465270
1777.22, 0.0466050
1777.83, 0.0465660
1778.44, 0.0466440
1779.05, 0.0467230
1779.66, 0.0466830
1780.27, 0.0466050
1780.88, 0.0466050
1781.5, 0.0466830
1782.11, 0.0468400
1782.72, 0.0468010
1783.33, 0.0467620
1783.95, 0.0468010
1784.56, 0.0468400
1785.18, 0.0467620
1785.79, 0.0468400
1786.41, 0.0469190
1787.02, 0.0469970
1787.64, 0.0469580
1788.26, 0.0467620
1788.87, 0.0468010
1789.49, 0.0469970
1790.11, 0.0470750
1790.73, 0.0471540
1791.35, 0.0471150
1791.96, 0.0470360
1792.58, 0.0471150
1793.21, 0.0470360
1793.83, 0.0471930
1794.45, 0.0473500
1795.07, 0.0472320
1795.69, 0.0472320
1796.31, 0.0473500
1796.93, 0.0473890
1797.56, 0.0473110
1798.18, 0.0472320
1798.8, 0.0471930
1799.43, 0.0472320
1800.05, 0.0472710
1800.68, 0.0474280
1801.3, 0.0474670
1801.93, 0.0475460
1802.56, 0.0476240
1803.18, 0.0475460
1803.81, 0.0474280
1804.44, 0.0474670
1805.07, 0.0475070
1805.7, 0.0475070
1806.33, 0.0475850
1806.95, 0.0475850
1807.58, 0.0476240
1808.22, 0.0477420
1808.85, 0.0477030
1809.48, 0.0475460
1810.11, 0.0474670
1810.74, 0.0476630
1811.38, 0.0477420
1812.01, 0.0477420
1812.64, 0.0478200
1813.28, 0.0477030
1813.91, 0.0476630
1814.55, 0.0478990
1815.18, 0.0479380
1815.82, 0.0478200
1816.45, 0.0479380
1817.09, 0.0480160
1817.73, 0.0478200
1818.36, 0.0478200
1819.0, 0.0478200
1819.64, 0.0478590
1820.28, 0.0477420
1820.92, 0.0477030
1821.56, 0.0477420
1822.2, 0.0478590
1822.84, 0.0478990
1823.48, 0.0478990
1824.12, 0.0479770
1824.76, 0.0480950
1825.41, 0.0480550
1826.05, 0.0481340
1826.69, 0.0483300
1827.34, 0.0482510
1827.98, 0.0480950
1828.63, 0.0482910
1829.27, 0.0484080
1829.92, 0.0483690
1830.56, 0.0484080
1831.21, 0.0484470
1831.86, 0.0484870
1832.5, 0.0484870
1833.15, 0.0483690
1833.8, 0.0484870
1834.45, 0.0484470
1835.1, 0.0484470
1835.75, 0.0484470
1836.4, 0.0484870
1837.05, 0.0484870
1837.7, 0.0486040
1838.35, 0.0486820
1839.01, 0.0486820
1839.66, 0.0485650
1840.31, 0.0486040
1840.96, 0.0486040
1841.62, 0.0485650
1842.27, 0.0486820
1842.93, 0.0488000
1843.58, 0.0489180
1844.24, 0.0489180
1844.9, 0.0488390
1845.55, 0.0489180
1846.21, 0.0488390
1846.87, 0.0485650
1847.53, 0.0485650
1848.18, 0.0486430
1848.84, 0.0486820
1849.5, 0.0488000
1850.16, 0.0488780
1850.82, 0.0488780
1851.48, 0.0488780
1852.14, 0.0487610
1852.81, 0.0487610
1853.47, 0.0488780
1854.13, 0.0489570
1854.8, 0.0491920
1855.46, 0.0491920
1856.12, 0.0488780
1856.79, 0.0489180
1857.45, 0.0490350
1858.12, 0.0489570
1858.79, 0.0491140
1859.45, 0.0489570
1860.12, 0.0489180
1860.79, 0.0490740
1861.46, 0.0493490
1862.12, 0.0494270
1862.79, 0.0493490
1863.46, 0.0492310
1864.13, 0.0492310
1864.8, 0.0493490
1865.48, 0.0493880
1866.15, 0.0494660
1866.82, 0.0494660
1867.49, 0.0491920
1868.16, 0.0491920
1868.84, 0.0493880
1869.51, 0.0493880
1870.19, 0.0492310
1870.86, 0.0491920
1871.54, 0.0495060
1872.21, 0.0495840
1872.89, 0.0493490
1873.56, 0.0493100
1874.24, 0.0495060
1874.92, 0.0495840
1875.6, 0.0495060
1876.28, 0.0493490
1876.96, 0.0493880
1877.64, 0.0496230
1878.32, 0.0496230
1879.0, 0.0495840
1879.68, 0.0495840
1880.36, 0.0497410
1881.04, 0.0497800
1881.73, 0.0497020
1882.41, 0.0497800
1883.09, 0.0497800
1883.78, 0.0496230
1884.46, 0.0497410
1885.15, 0.0498190
1885.83, 0.0497410
1886.52, 0.0497020
1887.21, 0.0498190
1887.89, 0.0499760
1888.58, 0.0501330
1889.27, 0.0498980
1889.96, 0.0497020
1890.65, 0.0498980
1891.34, 0.0499760
1892.03, 0.0499370
1892.72, 0.0499760
1893.41, 0.0500150
1894.1, 0.0501330
1894.79, 0.0502110
1895.49, 0.0501330
1896.18, 0.0500150
1896.87, 0.0500540
1897.57, 0.0501330
1898.26, 0.0501720
1898.96, 0.0500940
1899.65, 0.0500940
1900.35, 0.0501720
1901.05, 0.0501720
1901.74, 0.0501330
1902.44, 0.0499760
1903.14, 0.0498980
1903.84, 0.0500940
1904.54, 0.0501720
1905.24, 0.0502110
1905.94, 0.0502110
1906.64, 0.0502110
1907.34, 0.0503680
1908.04, 0.0504460
1908.75, 0.0503290
1909.45, 0.0502900
1910.15, 0.0504070
1910.86, 0.0504460
1911.56, 0.0504070
1912.27, 0.0504460
1912.97, 0.0503680
1913.68, 0.0504860
1914.39, 0.0507210
1915.09, 0.0507210
1915.8, 0.0506030
1916.51, 0.0506820
1917.22, 0.0508380
1917.93, 0.0508380
1918.64, 0.0506820
1919.35, 0.0505250
1920.06, 0.0505250
1920.77, 0.0506420
1921.48, 0.0509170
1922.19, 0.0509950
1922.91, 0.0509950
1923.62, 0.0508780
1924.33, 0.0508380
1925.05, 0.0509950
1925.76, 0.0510740
1926.48, 0.0510340
1927.19, 0.0510740
1927.91, 0.0510340
1928.63, 0.0510740
1929.35, 0.0512300
1930.07, 0.0511130
1930.78, 0.0511130
1931.5, 0.0511910
1932.22, 0.0512300
1932.94, 0.0511130
1933.66, 0.0510340
1934.39, 0.0511520
1935.11, 0.0513090
1935.83, 0.0513870
1936.55, 0.0514260
1937.28, 0.0514650
1938.0, 0.0514650
1938.73, 0.0515050
1939.45, 0.0515440
1940.18, 0.0515050
1940.9, 0.0515050
1941.63, 0.0515050
1942.36, 0.0515050
1943.09, 0.0515050
1943.81, 0.0515050
1944.54, 0.0515830
1945.27, 0.0517400
1946.0, 0.0517400
1946.73, 0.0517010
1947.47, 0.0516610
1948.2, 0.0517400
1948.93, 0.0517790
1949.66, 0.0516610
1950.4, 0.0517400
1951.13, 0.0518180
1951.86, 0.0517400
1952.6, 0.0518970
1953.34, 0.0518970
1954.07, 0.0517010
1954.81, 0.0517790
1955.55, 0.0519360
1956.29, 0.0519360
1957.02, 0.0520140
1957.76, 0.0520140
1958.5, 0.0520140
1959.24, 0.0519360
1959.98, 0.0518570
1960.72, 0.0519360
1961.47, 0.0520530
1962.21, 0.0519360
1962.95, 0.0519750
1963.7, 0.0520930
1964.44, 0.0521320
1965.18, 0.0520930
1965.93, 0.0520140
1966.67, 0.0519750
1967.42, 0.0520530
1968.17, 0.0521320
1968.92, 0.0522100
1969.66, 0.0520930
1970.41, 0.0521710
1971.16, 0.0522100
1971.91, 0.0522490
1972.66, 0.0522890
1973.41, 0.0522490
1974.16, 0.0521710
1974.92, 0.0522490
1975.67, 0.0522490
1976.42, 0.0524060
1977.18, 0.0524850
1977.93, 0.0524850
1978.69, 0.0524060
1979.44, 0.0525240
1980.2, 0.0525240
1980.95, 0.0525240
1981.71, 0.0525630
1982.47, 0.0526410
1983.23, 0.0525630
1983.99, 0.0524850
1984.74, 0.0525240
1985.51, 0.0526410
1986.27, 0.0526810
1987.03, 0.0527590
1987.79, 0.0527980
1988.55, 0.0526810
1989.32, 0.0525240
1990.08, 0.0526020
1990.84, 0.0526810
1991.61, 0.0527200
1992.37, 0.0527980
1993.14, 0.0528770
1993.9, 0.0527980
1994.67, 0.0528770
1995.44, 0.0529160
1996.21, 0.0528770
1996.98, 0.0529940
1997.75, 0.0531120
1998.52, 0.0530330
1999.29, 0.0529940
2000.06, 0.0529940
2000.83, 0.0530330
2001.6, 0.0530330
2002.38, 0.0530730
2003.15, 0.0532290
2003.93, 0.0533080
2004.7, 0.0533080
2005.48, 0.0532290
2006.25, 0.0532290
2007.03, 0.0533470
2007.81, 0.0533860
2008.58, 0.0533470
2009.36, 0.0533470
2010.14, 0.0534650
2010.92, 0.0534250
2011.7, 0.0533860
2012.48, 0.0533860
2013.26, 0.0533860
2014.05, 0.0533860
2014.83, 0.0535430
2015.61, 0.0535820
2016.4, 0.0536610
2017.18, 0.0536610
2017.97, 0.0535820
2018.75, 0.0537000
2019.54, 0.0538560
2020.32, 0.0538170
2021.11, 0.0538170
2021.9, 0.0538170
2022.69, 0.0537780
2023.48, 0.0537390
2024.27, 0.0537390
2025.06, 0.0538560
2025.85, 0.0540130
2026.64, 0.0539350
2027.44, 0.0538960
2028.23, 0.0538960
2029.02, 0.0540130
2029.82, 0.0540920
2030.61, 0.0542090
2031.41, 0.0542480
2032.2, 0.0541700
2033.0, 0.0540920
2033.8, 0.0540920
2034.6, 0.0540920
2035.4, 0.0542090
2036.2, 0.0542480
2037.0, 0.0542880
2037.8, 0.0542880
2038.6, 0.0544440
2039.4, 0.0544440
2040.2, 0.0543270
2041.01, 0.0543660
2041.81, 0.0544840
2042.61, 0.0544840
2043.42, 0.0544440
2044.22, 0.0543660
2045.03, 0.0543660
2045.84, 0.0543660
2046.65, 0.0544440
2047.46, 0.0544050
2048.26, 0.0544840
2049.07, 0.0545620
2049.88, 0.0546010
2050.69, 0.0546010
2051.51, 0.0546800
2052.32, 0.0547580
2053.13, 0.0547580
2053.94, 0.0547580
2054.76, 0.0547970
2055.57, 0.0546010
2056.39, 0.0545620
2057.2, 0.0546010
2058.02, 0.0547190
2058.84, 0.0548360
2059.66, 0.0549930
2060.48, 0.0549930
2061.29, 0.0549930
2062.11, 0.0549540
2062.94, 0.0549540
2063.76, 0.0549540
2064.58, 0.0550320
2065.4, 0.0550720
2066.22, 0.0551110
2067.05, 0.0551110
2067.87, 0.0551110
2068.7, 0.0551890
2069.52, 0.0553070
2070.35, 0.0553070
2071.18, 0.0552280
2072.0, 0.0551110
2072.83, 0.0551890
2073.66, 0.0552680
2074.49, 0.0551890
2075.32, 0.0551890
2076.15, 0.0553070
2076.98, 0.0553460
2077.82, 0.0553460
2078.65, 0.0553850
2079.48, 0.0553460
2080.32, 0.0553070
2081.15, 0.0553460
2081.99, 0.0554640
2082.83, 0.0555810
2083.66, 0.0556200
2084.5, 0.0555420
2085.34, 0.0554640
2086.18, 0.0554640
2087.02, 0.0555420
2087.86, 0.0556200
2088.7, 0.0557380
2089.54, 0.0556990
2090.39, 0.0556200
2091.23, 0.0557380
2092.07, 0.0557770
2092.92, 0.0556990
2093.76, 0.0557770
2094.61, 0.0558160
2095.45, 0.0558160
2096.3, 0.0558950
2097.15, 0.0560120
2098.0, 0.0560520
2098.85, 0.0561690
2099.7, 0.0562080
2100.55, 0.0560910
2101.4, 0.0560910
2102.25, 0.0561300
2103.1, 0.0561690
2103.96, 0.0561690
2104.81, 0.0562080
2105.67, 0.0562080
2106.52, 0.0562080
2107.38, 0.0563650
2108.24, 0.0564830
2109.09, 0.0564830
2109.95, 0.0564430
2110.81, 0.0564830
2111.67, 0.0565220
2112.53, 0.0563650
2113.39, 0.0565220
2114.25, 0.0566000
2115.12, 0.0565220
2115.98, 0.0565610
2116.84, 0.0566390
2117.71, 0.0566000
2118.58, 0.0566790
2119.44, 0.0566390
2120.31, 0.0567180
2121.18, 0.0567570
2122.04, 0.0568350
2122.91, 0.0568750
2123.78, 0.0568350
2124.65, 0.0568350
2125.52, 0.0570310
2126.4, 0.0571100
2127.27, 0.0570310
2128.14, 0.0569530
2129.02, 0.0569920
2129.89, 0.0570710
2130.77, 0.0572670
2131.64, 0.0573450
2132.52, 0.0573840
2133.4, 0.0573450
2134.27, 0.0573450
2135.15, 0.0572670
2136.03, 0.0572670
2136.91, 0.0573060
2137.79, 0.0573060
2138.68, 0.0573060
2139.56, 0.0574230
2140.44, 0.0575410
2141.33, 0.0576190
2142.21, 0.0576190
2143.1, 0.0576190
2143.99, 0.0576190
2144.87, 0.0576980
2145.76, 0.0576980
2146.65, 0.0577370
2147.54, 0.0578150
2148.43, 0.0576980
2149.32, 0.0576590
2150.21, 0.0576980
2151.1, 0.0578150
2151.99, 0.0578940
2152.89, 0.0578550
2153.78, 0.0578550
2154.68, 0.0578940
2155.57, 0.0578940
2156.47, 0.0579720
2157.37, 0.0580110
2158.27, 0.0580900
2159.16, 0.0580110
2160.06, 0.0580510
2160.96, 0.0582470
2161.86, 0.0581680
2162.77, 0.0581680
2163.67, 0.0582070
2164.57, 0.0582860
2165.48, 0.0584030
2166.38, 0.0584030
2167.29, 0.0583250
2168.2, 0.0582860
2169.1, 0.0583250
2170.01, 0.0583640
2170.92, 0.0584030
2171.83, 0.0585210
2172.74, 0.0585990
2173.65, 0.0585600
2174.56, 0.0585210
2175.47, 0.0585990
2176.39, 0.0585990
2177.3, 0.0587170
2178.22, 0.0588740
2179.13, 0.0588740
2180.05, 0.0587950
2180.96, 0.0587560
2181.88, 0.0587560
2182.8, 0.0588340
2183.72, 0.0587950
2184.64, 0.0588340
2185.56, 0.0589520
2186.48, 0.0589520
2187.41, 0.0589520
2188.33, 0.0590300
2189.25, 0.0591090
2190.18, 0.0591870
2191.1, 0.0591480
2192.03, 0.0589910
2192.96, 0.0589910
2193.89, 0.0591480
2194.82, 0.0592660
2195.74, 0.0593440
2196.68, 0.0592260
2197.61, 0.0592660
2198.54, 0.0591870
2199.47, 0.0593050
2200.4, 0.0594620
2201.34, 0.0594620
2202.28, 0.0593830
2203.21, 0.0593830
2204.15, 0.0595010
2205.08, 0.0596180
2206.02, 0.0595010
2206.96, 0.0595010
2207.9, 0.0595400
2208.84, 0.0595790
2209.78, 0.0596970
2210.73, 0.0598540
2211.67, 0.0597750
2212.61, 0.0597360
2213.56, 0.0598140
2214.5, 0.0598930
2215.45, 0.0598540
2216.4, 0.0598140
2217.35, 0.0598540
2218.3, 0.0599710
2219.24, 0.0600500
2220.2, 0.0600890
2221.15, 0.0600500
2222.1, 0.0600890
2223.05, 0.0602060
2224.0, 0.0603240
2224.96, 0.0602450
2225.91, 0.0601270
2226.87, 0.0603240
2227.83, 0.0604810
2228.79, 0.0604030
2229.74, 0.0603630
2230.7, 0.0602060
2231.66, 0.0602450
2232.63, 0.0604420
2233.59, 0.0604810
2234.55, 0.0603630
2235.51, 0.0604030
2236.48, 0.0607960
2237.44, 0.0608750
2238.41, 0.0607960
2239.38, 0.0607170
2240.34, 0.0607570
2241.31, 0.0607570
2242.28, 0.0607170
2243.25, 0.0607570
2244.22, 0.0608750
2245.19, 0.0609140
2246.17, 0.0608350
2247.14, 0.0609530
2248.12, 0.0611100
2249.09, 0.0610320
2250.07, 0.0609920
2251.04, 0.0612280
2252.02, 0.0612680
2253.0, 0.0612280
2253.98, 0.0613460
2254.96, 0.0614250
2255.94, 0.0612680
2256.92, 0.0611100
2257.91, 0.0611500
2258.89, 0.0613070
2259.88, 0.0614640
2260.86, 0.0615040
2261.85, 0.0613860
2262.83, 0.0612680
2263.82, 0.0615040
2264.81, 0.0619360
2265.8, 0.0619760
2266.79, 0.0618580
2267.78, 0.0617400
2268.78, 0.0616220
2269.77, 0.0616610
2270.76, 0.0617000
2271.76, 0.0618580
2272.75, 0.0620150
2273.75, 0.0620540
2274.75, 0.0621720
2275.75, 0.0622120
2276.75, 0.0622900
2277.75, 0.0623690
2278.75, 0.0622510
2279.75, 0.0622510
2280.75, 0.0622510
2281.76, 0.0622900
2282.76, 0.0622510
2283.77, 0.0622510
2284.77, 0.0623300
2285.78, 0.0624080
2286.79, 0.0624470
2287.8, 0.0624080
2288.81, 0.0624870
2289.82, 0.0625650
2290.83, 0.0626440
2291.84, 0.0627230
2292.86, 0.0627620
2293.87, 0.0627230
2294.89, 0.0628010
2295.91, 0.0630370
2296.92, 0.0629980
2297.94, 0.0631160
2298.96, 0.0632340
2299.98, 0.0632340
2301.0, 0.0631950
2302.02, 0.0630770
2303.04, 0.0630770
2304.07, 0.0631950
2305.09, 0.0631950
2306.12, 0.0632730
2307.15, 0.0633520
2308.17, 0.0631950
2309.2, 0.0632340
2310.23, 0.0631950
2311.26, 0.0633520
2312.29, 0.0634700
2313.32, 0.0637060
2314.35, 0.0637850
2315.39, 0.0634700
2316.42, 0.0634700
2317.46, 0.0637060
2318.5, 0.0637060
2319.53, 0.0638240
2320.57, 0.0637060
2321.61, 0.0636270
2322.65, 0.0637850
2323.69, 0.0637850
2324.73, 0.0636270
2325.78, 0.0637450
2326.82, 0.0639030
2327.86, 0.0639810
2328.91, 0.0640200
2329.96, 0.0640600
2331.01, 0.0641780
2332.05, 0.0644140
2333.1, 0.0641780
2334.15, 0.0640600
2335.21, 0.0643350
2336.26, 0.0645710
2337.31, 0.0646500
2338.36, 0.0646500
2339.42, 0.0645320
2340.48, 0.0643740
2341.53, 0.0644140
2342.59, 0.0646890
2343.65, 0.0647680
2344.71, 0.0647280
2345.77, 0.0648070
2346.83, 0.0649250
2347.9, 0.0648860
2348.96, 0.0649640
2350.02, 0.0650040
2351.09, 0.0649640
2352.16, 0.0649250
2353.23, 0.0648860
2354.29, 0.0650820
2355.36, 0.0650040
2356.43, 0.0649250
2357.51, 0.0650040
2358.58, 0.0651220
2359.65, 0.0654360
2360.73, 0.0653180
2361.8, 0.0652000
2362.88, 0.0654360
2363.96, 0.0655540
2365.03, 0.0654750
2366.11, 0.0653970
2367.19, 0.0655150
2368.27, 0.0655540
2369.36, 0.0655930
2370.44, 0.0655930
2371.53, 0.0656720
2372.61, 0.0657510
2373.7, 0.0657900
2374.78, 0.0658690
2375.87, 0.0659470
2376.96, 0.0659470
2378.05, 0.0659470
2379.14, 0.0658290
2380.24, 0.0659470
2381.33, 0.0659870
2382.42, 0.0659080
2383.52, 0.0660260
2384.61, 0.0660650
2385.71, 0.0661050
2386.81, 0.0662230
2387.91, 0.0661830
2389.01, 0.0662620
2390.11, 0.0664190
2391.22, 0.0663800
2392.32, 0.0664190
2393.42, 0.0664190
2394.53, 0.0665370
2395.64, 0.0666160
2396.74, 0.0666550
2397.85, 0.0666550
2398.96, 0.0666550
2400.07, 0.0665770
2401.18, 0.0666550
2402.3, 0.0668520
2403.41, 0.0668910
2404.52, 0.0667340
2405.64, 0.0666550
2406.76, 0.0666160
2407.88, 0.0668130
2408.99, 0.0668520
2410.11, 0.0667730
2411.23, 0.0668130
2412.36, 0.0669310
2413.48, 0.0670880
2414.6, 0.0670480
2415.73, 0.0671270
2416.85, 0.0670880
2417.98, 0.0670090
2419.11, 0.0669700
2420.24, 0.0670480
2421.37, 0.0670480
2422.5, 0.0671660
2423.64, 0.0672450
2424.77, 0.0672060
2425.9, 0.0673240
2427.04, 0.0675200
2428.18, 0.0674420
2429.31, 0.0672840
2430.45, 0.0673630
2431.59, 0.0675200
2432.73, 0.0675200
2433.88, 0.0675200
2435.02, 0.0675600
2436.16, 0.0676780
2437.31, 0.0675600
2438.45, 0.0674020
2439.6, 0.0675600
2440.75, 0.0675990
2441.9, 0.0676380
2443.05, 0.0678740
2444.2, 0.0681100
2445.35, 0.0679920
2446.51, 0.0677560
2447.67, 0.0677560
2448.82, 0.0679530
2449.98, 0.0679530
2451.14, 0.0677960
2452.3, 0.0679530
2453.46, 0.0681500
2454.62, 0.0680710
2455.78, 0.0680320
2456.94, 0.0680710
2458.11, 0.0681100
2459.28, 0.0681890
2460.44, 0.0683860
2461.61, 0.0683070
2462.78, 0.0681890
2463.95, 0.0682280
2465.12, 0.0682680
2466.3, 0.0683460
2467.47, 0.0685820
2468.65, 0.0686610
2469.82, 0.0686210
2471.0, 0.0686610
2472.18, 0.0687000
2473.36, 0.0687790
2474.54, 0.0687390
2475.72, 0.0689360
2476.9, 0.0689360
2478.08, 0.0688180
2479.27, 0.0689750
2480.46, 0.0690150
2481.64, 0.0690150
2482.83, 0.0691330
2484.02, 0.0690150
2485.21, 0.0689750
2486.4, 0.0690930
2487.6, 0.0692900
2488.79, 0.0692110
2489.99, 0.0691330
2491.18, 0.0691330
2492.38, 0.0690930
2493.58, 0.0691720
2494.78, 0.0691330
2495.98, 0.0691720
2497.18, 0.0692900
2498.39, 0.0692900
2499.59, 0.0693690
2500.8, 0.0694080
2502.01, 0.0692900
2503.21, 0.0694470
2504.42, 0.0696050
2505.63, 0.0694870
2506.84, 0.0693290
2508.06, 0.0694470
2509.27, 0.0695260
2510.49, 0.0695650
2511.7, 0.0696050
2512.92, 0.0696050
2514.14, 0.0695650
2515.36, 0.0695260
2516.58, 0.0693690
2517.8, 0.0695650
2519.03, 0.0698410
2520.25, 0.0698010
2521.48, 0.0696830
2522.7, 0.0696440
2523.93, 0.0697230
2525.16, 0.0699190
2526.39, 0.0699580
2527.62, 0.0699980
2528.86, 0.0700370
2530.09, 0.0701940
2531.33, 0.0702340
2532.56, 0.0701940
2533.8, 0.0700760
2535.04, 0.0699980
2536.28, 0.0700370
2537.52, 0.0701160
2538.76, 0.0702730
2540.01, 0.0702730
2541.25, 0.0701940
2542.5, 0.0701940
2543.75, 0.0701940
2544.99, 0.0702340
2546.24, 0.0702730
2547.49, 0.0704300
2548.75, 0.0705090
2550.0, 0.0704700
2551.26, 0.0704300
2552.51, 0.0704300
2553.77, 0.0704700
2555.03, 0.0704300
2556.29, 0.0705480
2557.55, 0.0707060
2558.81, 0.0707060
2560.08, 0.0705880
2561.34, 0.0704700
2562.61, 0.0706660
2563.88, 0.0707840
2565.14, 0.0707060
2566.41, 0.0707840
2567.68, 0.0707450
2568.96, 0.0705480
2570.23, 0.0707060
2571.51, 0.0708240
2572.78, 0.0707450
2574.06, 0.0707840
2575.34, 0.0707840
2576.62, 0.0707450
2577.9, 0.0708240
2579.18, 0.0709020
2580.47, 0.0709020
2581.75, 0.0709020
2583.04, 0.0708630
2584.32, 0.0708630
2585.61, 0.0709020
2586.9, 0.0710200
2588.2, 0.0709810
2589.49, 0.0710600
2590.78, 0.0712170
2592.08, 0.0712560
2593.37, 0.0709810
2594.67, 0.0709420
2595.97, 0.0711380
2597.27, 0.0712560
2598.57, 0.0712960
2599.88, 0.0712560
2601.18, 0.0712960
2602.49, 0.0712960
2603.79, 0.0712960
2605.1, 0.0713740
2606.41, 0.0714140
2607.72, 0.0714140
2609.03, 0.0714920
2610.35, 0.0714140
2611.66, 0.0713740
2612.98, 0.0714920
2614.3, 0.0716490
2615.62, 0.0714920
2616.94, 0.0713350
2618.26, 0.0713740
2619.58, 0.0714920
2620.91, 0.0715310
2622.23, 0.0716490
2623.56, 0.0716490
2624.89, 0.0716490
2626.22, 0.0715710
2627.55, 0.0717670
2628.88, 0.0718460
2630.21, 0.0718070
2631.55, 0.0719250
2632.89, 0.0720030
2634.22, 0.0720030
2635.56, 0.0719640
2636.9, 0.0719250
2638.25, 0.0718460
2639.59, 0.0720030
2640.93, 0.0720820
2642.28, 0.0720430
2643.63, 0.0719250
2644.98, 0.0718850
2646.33, 0.0719640
2647.68, 0.0720430
2649.03, 0.0721210
2650.39, 0.0719640
2651.74, 0.0719640
2653.1, 0.0721210
2654.46, 0.0720430
2655.82, 0.0720820
2657.18, 0.0720820
2658.54, 0.0721210
2659.9, 0.0722790
2661.27, 0.0723570
2662.64, 0.0722390
2664.01, 0.0720820
2665.38, 0.0719250
2666.74, 0.0718850
2668.12, 0.0719640
2669.49, 0.0719250
2670.87, 0.0720820
2672.24, 0.0720820
2673.62, 0.0718850
2675.0, 0.0717280
2676.38, 0.0718070
2677.76, 0.0718460
2679.15, 0.0718460
2680.54, 0.0718850
2681.92, 0.0717670
2683.31, 0.0716490
2684.7, 0.0715710
2686.09, 0.0715310
2687.48, 0.0715310
2688.88, 0.0713350
2690.27, 0.0711380
2691.67, 0.0709420
2693.07, 0.0707060
2694.47, 0.0704700
2695.87, 0.0702730
2697.27, 0.0701160
2698.67, 0.0698800
2700.08, 0.0696440
2701.49, 0.0694080
2702.9, 0.0692510
2704.31, 0.0690540
2705.72, 0.0687790
2707.13, 0.0685430
2708.54, 0.0682280
2709.96, 0.0679530
2711.38, 0.0677560
2712.8, 0.0675600
2714.22, 0.0672840
2715.64, 0.0670880
2717.06, 0.0668520
2718.49, 0.0663010
2719.91, 0.0658690
2721.34, 0.0658290
2722.77, 0.0659870
2724.2, 0.0660260
2725.63, 0.0659080
2727.07, 0.0658690
2728.5, 0.0657900
2729.94, 0.0657510
2731.38, 0.0656720
2732.82, 0.0655930
2734.26, 0.0656720
2735.7, 0.0657510
2737.15, 0.0656330
2738.59, 0.0655540
2740.04, 0.0653580
2741.49, 0.0653180
2742.94, 0.0653970
2744.39, 0.0654360
2745.84, 0.0654750
2747.3, 0.0654750
2748.76, 0.0654360
2750.21, 0.0652400
2751.67, 0.0651610
2753.14, 0.0652000
2754.6, 0.0652000
2756.06, 0.0651220
2757.53, 0.0650820
2759.0, 0.0650430
2760.46, 0.0650820
2761.94, 0.0650820
2763.41, 0.0650820
2764.88, 0.0651220
2766.36, 0.0650040
2767.83, 0.0649250
2769.31, 0.0650820
2770.79, 0.0652000
2772.27, 0.0652790
2773.76, 0.0653970
2775.24, 0.0653180
2776.73, 0.0652400
2778.22, 0.0653180
2779.71, 0.0652000
2781.2, 0.0652000
2782.69, 0.0653180
2784.18, 0.0653580
2785.68, 0.0653180
2787.18, 0.0653180
2788.68, 0.0653580
2790.18, 0.0653580
2791.68, 0.0655540
2793.19, 0.0656330
2794.69, 0.0654750
2796.2, 0.0653970
2797.71, 0.0653580
2799.22, 0.0653970
2800.73, 0.0654750
2802.24, 0.0654750
2803.76, 0.0655150
2805.28, 0.0655540
2806.8, 0.0655930
2808.32, 0.0655540
2809.84, 0.0655540
2811.36, 0.0656330
2812.89, 0.0655930
2814.42, 0.0656330
2815.94, 0.0657110
2817.48, 0.0656330
2819.01, 0.0656330
2820.54, 0.0655930
2822.08, 0.0655930
2823.61, 0.0655540
2825.15, 0.0655150
2826.69, 0.0655540
2828.23, 0.0655930
2829.78, 0.0656720
2831.32, 0.0656720
2832.87, 0.0657110
2834.42, 0.0658290
2835.97, 0.0658690
2837.52, 0.0658290
2839.08, 0.0657510
2840.63, 0.0658290
2842.19, 0.0659470
2843.75, 0.0659870
2845.31, 0.0659470
2846.87, 0.0659870
2848.44, 0.0659870
2850.0, 0.0659870
2851.57, 0.0660650
2853.14, 0.0661050
2854.71, 0.0661830
2856.28, 0.0662620
2857.86, 0.0662230
2859.43, 0.0663010
2861.01, 0.0663800
2862.59, 0.0664190
2864.17, 0.0663800
2865.76, 0.0663410
2867.34, 0.0663800
2868.93, 0.0664190
2870.52, 0.0664190
2872.11, 0.0663800
2873.7, 0.0664190
2875.29, 0.0664590
2876.89, 0.0664190
2878.49, 0.0663800
2880.08, 0.0663800
2881.69, 0.0664590
2883.29, 0.0664190
2884.89, 0.0662620
2886.5, 0.0663010
2888.11, 0.0664590
2889.72, 0.0663800
2891.33, 0.0664190
2892.94, 0.0665770
2894.56, 0.0665370
2896.17, 0.0664190
2897.79, 0.0663410
2899.42, 0.0663010
2901.04, 0.0663010
2902.66, 0.0661830
2904.29, 0.0662230
2905.92, 0.0663010
2907.55, 0.0661830
2909.18, 0.0661830
2910.81, 0.0661830
2912.45, 0.0661050
2914.08, 0.0661830
2915.72, 0.0661830
2917.36, 0.0660650
2919.01, 0.0659080
2920.65, 0.0658690
2922.3, 0.0657510
2923.94, 0.0657110
2925.59, 0.0656330
2927.25, 0.0655540
2928.9, 0.0655540
2930.56, 0.0654360
2932.21, 0.0652790
2933.87, 0.0652400
2935.53, 0.0651610
2937.2, 0.0649640
2938.86, 0.0648460
2940.53, 0.0648070
2942.2, 0.0648070
2943.87, 0.0647280
2945.54, 0.0647280
2947.22, 0.0646890
2948.89, 0.0648460
2950.57, 0.0649640
2952.25, 0.0650820
2953.93, 0.0651610
2955.62, 0.0651610
2957.3, 0.0652400
2958.99, 0.0653970
2960.68, 0.0655540
2962.37, 0.0657900
2964.07, 0.0660650
2965.76, 0.0661830
2967.46, 0.0662620
2969.16, 0.0663410
2970.86, 0.0664590
2972.56, 0.0665370
2974.27, 0.0666160
2975.98, 0.0668520
2977.69, 0.0670480
2979.4, 0.0671660
2981.11, 0.0672060
2982.83, 0.0674020
2984.54, 0.0675200
2986.26, 0.0675200
2987.98, 0.0675990
2989.71, 0.0677560
2991.43, 0.0679140
2993.16, 0.0679530
2994.89, 0.0679920
2996.62, 0.0679920
2998.35, 0.0679530
3000.09, 0.0680320
3001.83, 0.0681100
3003.57, 0.0681890
3005.31, 0.0683070
3007.05, 0.0683860
3008.79, 0.0685820
3010.54, 0.0686210
3012.29, 0.0686210
3014.04, 0.0686610
3015.8, 0.0687390
3017.55, 0.0688180
3019.31, 0.0688570
3021.07, 0.0689360
3022.83, 0.0690930
3024.59, 0.0690930
3026.36, 0.0690930
3028.13, 0.0691330
3029.9, 0.0691330
3031.67, 0.0691330
3033.44, 0.0693290
3035.22, 0.0695260
3037.0, 0.0695650
3038.78, 0.0695650
3040.56, 0.0695650
3042.34, 0.0695260
3044.13, 0.0694870
3045.92, 0.0695260
3047.71, 0.0696050
3049.5, 0.0696440
3051.3, 0.0697620
3053.09, 0.0698410
3054.89, 0.0698010
3056.69, 0.0698410
3058.5, 0.0699190
3060.3, 0.0700370
3062.11, 0.0701160
3063.92, 0.0701160
3065.73, 0.0700760
3067.55, 0.0700760
3069.36, 0.0700370
3071.18, 0.0700760
3073.0, 0.0701160
3074.82, 0.0701550
3076.65, 0.0702340
3078.48, 0.0702340
3080.31, 0.0702730
3082.14, 0.0703120
3083.97, 0.0702730
3085.8, 0.0703520
3087.64, 0.0703910
3089.48, 0.0703910
3091.33, 0.0703910
3093.17, 0.0704700
3095.02, 0.0705480
3096.87, 0.0705090
3098.72, 0.0705480
3100.57, 0.0705090
3102.43, 0.0705480
3104.28, 0.0706270
3106.14, 0.0707060
3108.01, 0.0708240
3109.87, 0.0709420
3111.74, 0.0709810
3113.61, 0.0710200
3115.48, 0.0709420
3117.35, 0.0709020
3119.23, 0.0709420
3121.1, 0.0709810
3122.98, 0.0710200
3124.87, 0.0711380
3126.75, 0.0712170
3128.64, 0.0712560
3130.53, 0.0712170
3132.42, 0.0712170
3134.31, 0.0712960
3136.21, 0.0713740
3138.11, 0.0714530
3140.01, 0.0714920
3141.91, 0.0714920
3143.82, 0.0714530
3145.73, 0.0715310
3147.64, 0.0716890
3149.55, 0.0718070
3151.46, 0.0718460
3153.38, 0.0718850
3155.3, 0.0718850
3157.22, 0.0720030
3159.14, 0.0720820
3161.07, 0.0721210
3163.0, 0.0720820
3164.93, 0.0721210
3166.86, 0.0722390
3168.8, 0.0722790
3170.74, 0.0722390
3172.68, 0.0722790
3174.62, 0.0723970
3176.56, 0.0723970
3178.51, 0.0724360
3180.46, 0.0724750
3182.42, 0.0725540
3184.37, 0.0725930
3186.33, 0.0726330
3188.29, 0.0727110
3190.25, 0.0727110
3192.21, 0.0727510
3194.18, 0.0727900
3196.15, 0.0728690
3198.12, 0.0729080
3200.09, 0.0729470
3202.07, 0.0730650
3204.05, 0.0731440
3206.03, 0.0731830
3208.02, 0.0732220
3210.0, 0.0731830
3211.99, 0.0732220
3213.98, 0.0732620
3215.98, 0.0733400
3217.97, 0.0733800
3219.97, 0.0734190
3221.97, 0.0735370
3223.98, 0.0735370
3225.98, 0.0735370
3227.99, 0.0736160
3230.0, 0.0737730
3232.02, 0.0738120
3234.03, 0.0738910
3236.05, 0.0739300
3238.07, 0.0738910
3240.1, 0.0738910
3242.12, 0.0739300
3244.15, 0.0740480
3246.18, 0.0741660
3248.22, 0.0742060
3250.25, 0.0742060
3252.29, 0.0741660
3254.33, 0.0742060
3256.38, 0.0742840
3258.43, 0.0743240
3260.47, 0.0743240
3262.53, 0.0743630
3264.58, 0.0744420
3266.64, 0.0744810
3268.7, 0.0745590
3270.76, 0.0746380
3272.82, 0.0746380
3274.89, 0.0746380
3276.96, 0.0747170
3279.04, 0.0747950
3281.11, 0.0749130
3283.19, 0.0749920
3285.27, 0.0749130
3287.35, 0.0748740
3289.44, 0.0749920
3291.53, 0.0749920
3293.62, 0.0749920
3295.71, 0.0751100
3297.81, 0.0751490
3299.91, 0.0751890
3302.01, 0.0752280
3304.11, 0.0751890
3306.22, 0.0752670
3308.33, 0.0753850
3310.44, 0.0754250
3312.56, 0.0753850
3314.68, 0.0753850
3316.8, 0.0754640
3318.92, 0.0755820
3321.05, 0.0756210
3323.18, 0.0755820
3325.31, 0.0755430
3327.44, 0.0755820
3329.58, 0.0756210
3331.72, 0.0757000
3333.86, 0.0757000
3336.01, 0.0757790
3338.16, 0.0758570
3340.31, 0.0758180
3342.46, 0.0758180
3344.61, 0.0758970
3346.77, 0.0759750
3348.94, 0.0759750
3351.1, 0.0759750
3353.27, 0.0759750
3355.44, 0.0760540
3357.61, 0.0760540
3359.79, 0.0760930
3361.97, 0.0761720
3364.15, 0.0762500
3366.33, 0.0762900
3368.52, 0.0762900
3370.71, 0.0763290
3372.9, 0.0762500
3375.1, 0.0763290
3377.3, 0.0763290
3379.5, 0.0763290
3381.71, 0.0762900
3383.91, 0.0764080
3386.12, 0.0764860
3388.34, 0.0765260
3390.55, 0.0765260
3392.77, 0.0765650
3394.99, 0.0765650
3397.22, 0.0764860
3399.45, 0.0764860
3401.68, 0.0765650
3403.91, 0.0766040
3406.15, 0.0766830
3408.39, 0.0768010
3410.63, 0.0768400
3412.87, 0.0768400
3415.12, 0.0767620
3417.37, 0.0767620
3419.63, 0.0768400
3421.88, 0.0769190
3424.14, 0.0769580
3426.41, 0.0770370
3428.67, 0.0770370
3430.94, 0.0770370
3433.21, 0.0769980
3435.49, 0.0770760
3437.77, 0.0771550
3440.05, 0.0772730
3442.33, 0.0773120
3444.62, 0.0773120
3446.91, 0.0773120
3449.2, 0.0773520
3451.5, 0.0773120
3453.8, 0.0773520
3456.1, 0.0774690
3458.41, 0.0775480
3460.72, 0.0774690
3463.03, 0.0774690
3465.34, 0.0775090
3467.66, 0.0775480
3469.98, 0.0775480
3472.31, 0.0775480
3474.63, 0.0776270
3476.96, 0.0776270
3479.3, 0.0776660
3481.64, 0.0777840
3483.97, 0.0777840
3486.32, 0.0777450
3488.66, 0.0777450
3491.01, 0.0777450
3493.36, 0.0777840
3495.72, 0.0778230
3498.08, 0.0778230
3500.44, 0.0778630
3502.81, 0.0779410
3505.18, 0.0779810
3507.55, 0.0780200
3509.92, 0.0780990
3512.3, 0.0781770
3514.68, 0.0782950
3517.06, 0.0783350
3519.45, 0.0782560
3521.84, 0.0782950
3524.24, 0.0784130
3526.64, 0.0784130
3529.04, 0.0784130
3531.44, 0.0783740
3533.85, 0.0784130
3536.26, 0.0785710
3538.67, 0.0786490
3541.09, 0.0785710
3543.51, 0.0786100
3545.93, 0.0787280
3548.36, 0.0787670
3550.79, 0.0788070
3553.22, 0.0788070
3555.66, 0.0788460
3558.1, 0.0789250
3560.54, 0.0789250
3562.99, 0.0789250
3565.44, 0.0789250
3567.9, 0.0789250
3570.35, 0.0790030
3572.81, 0.0790030
3575.28, 0.0789640
3577.75, 0.0790420
3580.22, 0.0791210
3582.69, 0.0791210
3585.17, 0.0791210
3587.65, 0.0792000
3590.14, 0.0792390
3592.62, 0.0792390
3595.11, 0.0792780
3597.61, 0.0792780
3600.11, 0.0792780
3602.61, 0.0793180
3605.11, 0.0793180
3607.62, 0.0793570
3610.14, 0.0793570
3612.65, 0.0793960
3615.17, 0.0794750
3617.69, 0.0795140
3620.22, 0.0795540
3622.75, 0.0795540
3625.28, 0.0795540
3627.82, 0.0795540
3630.36, 0.0795540
3632.9, 0.0795930
3635.45, 0.0796320
3638.0, 0.0795930
3640.56, 0.0795540
3643.12, 0.0795930
3645.68, 0.0796720
3648.24, 0.0797110
3650.81, 0.0797500
3653.39, 0.0797500
3655.96, 0.0797500
3658.54, 0.0797500
3661.13, 0.0798290
3663.71, 0.0798680
3666.3, 0.0798290
3668.9, 0.0797900
3671.5, 0.0798290
3674.1, 0.0798680
3676.7, 0.0799080
3679.31, 0.0799080
3681.93, 0.0798680
3684.54, 0.0798680
3687.17, 0.0798680
3689.79, 0.0799080
3692.42, 0.0798680
3695.05, 0.0799080
3697.69, 0.0799470
3700.32, 0.0800260
3702.97, 0.0800650
3705.61, 0.0801040
3708.27, 0.0801040
3710.92, 0.0800650
3713.58, 0.0799860
3716.24, 0.0800650
3718.91, 0.0800650
3721.58, 0.0800260
3724.25, 0.0800260
3726.93, 0.0800260
3729.61, 0.0801040
3732.29, 0.0801040
3734.98, 0.0801040
3737.67, 0.0802220
3740.37, 0.0801440
3743.07, 0.0801040
3745.78, 0.0801830
3748.49, 0.0803010
3751.2, 0.0803010
3753.91, 0.0803010
3756.63, 0.0803800
3759.36, 0.0804190
3762.09, 0.0804580
3764.82, 0.0804580
3767.55, 0.0804580
3770.29, 0.0804190
3773.04, 0.0804580
3775.78, 0.0804970
3778.54, 0.0804970
3781.29, 0.0804970
3784.05, 0.0805760
3786.82, 0.0805760
3789.59, 0.0805760
3792.36, 0.0805370
3795.13, 0.0806150
3797.92, 0.0806940
3800.7, 0.0806550
3803.49, 0.0806550
3806.28, 0.0806150
3809.08, 0.0806940
3811.88, 0.0807730
3814.68, 0.0806940
3817.49, 0.0806940
3820.31, 0.0807730
3823.12, 0.0807730
3825.94, 0.0807730
3828.77, 0.0807330
3831.6, 0.0808120
3834.43, 0.0808910
3837.27, 0.0808510
3840.11, 0.0808120
3842.96, 0.0808510
3845.81, 0.0808910
3848.67, 0.0809690
3851.53, 0.0810090
3854.39, 0.0810090
3857.26, 0.0810090
3860.13, 0.0809300
3863.01, 0.0809690
3865.89, 0.0810090
3868.77, 0.0810870
3871.66, 0.0810870
3874.55, 0.0810870
3877.45, 0.0811270
3880.35, 0.0811270
3883.26, 0.0811660
3886.17, 0.0812450
3889.09, 0.0812050
3892.01, 0.0810870
3894.93, 0.0811270
3897.86, 0.0812050
3900.79, 0.0812450
3903.73, 0.0812050
3906.67, 0.0812050
3909.62, 0.0812840
3912.57, 0.0813230
3915.52, 0.0812450
3918.48, 0.0812840
3921.45, 0.0813230
3924.42, 0.0812450
3927.39, 0.0812050
3930.37, 0.0812050
3933.35, 0.0812840
3936.34, 0.0812840
3939.33, 0.0812450
3942.32, 0.0812450
3945.32, 0.0812450
3948.33, 0.0811660
3951.34, 0.0811660
3954.35, 0.0811270
3957.37, 0.0810870
3960.39, 0.0810870
3963.42, 0.0810870
3966.45, 0.0810870
3969.49, 0.0810870
3972.53, 0.0810480
3975.58, 0.0810090
3978.63, 0.0810480
3981.68, 0.0811270
3984.75, 0.0812050
3987.81, 0.0812050
3990.88, 0.0812050
3993.95, 0.0811660
3997.03, 0.0811270
4000.12, 0.0811660
4003.21, 0.0812450
4006.3, 0.0812450
4009.4, 0.0812840
4012.5, 0.0813630
4015.61, 0.0814410
4018.72, 0.0814410
4021.84, 0.0815200
4024.96, 0.0815200
4028.09, 0.0814810
4031.22, 0.0814810
4034.36, 0.0815590
4037.5, 0.0815200
4040.65, 0.0815590
4043.8, 0.0815590
4046.96, 0.0815590
4050.12, 0.0815990
4053.29, 0.0815990
4056.46, 0.0816380
4059.64, 0.0816770
4062.82, 0.0816770
4066.0, 0.0816770
4069.19, 0.0817170
4072.39, 0.0817560
4075.59, 0.0817560
4078.8, 0.0817560
4082.01, 0.0817950
4085.23, 0.0817950
4088.45, 0.0817950
4091.68, 0.0817950
4094.91, 0.0817950
4098.15, 0.0817950
4101.39, 0.0817950
4104.63, 0.0817950
4107.89, 0.0818740
4111.14, 0.0819130
4114.41, 0.0818740
4117.67, 0.0819130
4120.95, 0.0819130
4124.23, 0.0819130
4127.51, 0.0818740
4130.8, 0.0819130
4134.09, 0.0819130
4137.39, 0.0819130
4140.7, 0.0819530
4144.01, 0.0819130
4147.32, 0.0818740
4150.64, 0.0819130
4153.97, 0.0820310
4157.3, 0.0820700
4160.64, 0.0820310
4163.98, 0.0820310
4167.33, 0.0820310
4170.68, 0.0820700
4174.04, 0.0820700
4177.4, 0.0820700
4180.77, 0.0820700
4184.14, 0.0820310
4187.52, 0.0820700
4190.91, 0.0821100
4194.3, 0.0821490
4197.69, 0.0822280
4201.1, 0.0821880
4204.5, 0.0821880
4207.92, 0.0822670
4211.34, 0.0823850
4214.76, 0.0825030
4218.19, 0.0825820
4221.62, 0.0826600
4225.06, 0.0827390
4228.51, 0.0827780
4231.96, 0.0827390
4235.42, 0.0827390
4238.88, 0.0827390
4242.35, 0.0827000
4245.83, 0.0827000
4249.31, 0.0825820
4252.79, 0.0824240
4256.28, 0.0823850
4259.78, 0.0824240
4263.29, 0.0825030
4266.79, 0.0825820
4270.31, 0.0827000
4273.83, 0.0827390
4277.35, 0.0826600
4280.89, 0.0827390
4284.42, 0.0827000
4287.97, 0.0826600
4291.52, 0.0827000
4295.07, 0.0827390
4298.63, 0.0827000
4302.2, 0.0826600
4305.78, 0.0825820
4309.35, 0.0825030
4312.94, 0.0825030
4316.53, 0.0825030
4320.13, 0.0824640
4323.73, 0.0824240
4327.34, 0.0823850
4330.96, 0.0823850
4334.58, 0.0824240
4338.21, 0.0823850
4341.84, 0.0823060
4345.48, 0.0823850
4349.12, 0.0823850
4352.77, 0.0823460
4356.43, 0.0823460
4360.1, 0.0823460
4363.76, 0.0823850
4367.44, 0.0823850
4371.12, 0.0824240
4374.81, 0.0824240
4378.51, 0.0824240
4382.21, 0.0824240
4385.92, 0.0824240
4389.63, 0.0824240
4393.35, 0.0824240
4397.08, 0.0824640
4400.81, 0.0825030
4404.55, 0.0824640
4408.29, 0.0824640
4412.04, 0.0824640
4415.8, 0.0824640
4419.57, 0.0825420
4423.34, 0.0825420
4427.12, 0.0825820
4430.9, 0.0826210
4434.69, 0.0826210
4438.49, 0.0825420
4442.29, 0.0825820
4446.1, 0.0827000
4449.92, 0.0827000
4453.74, 0.0826210
4457.57, 0.0826210
4461.41, 0.0826210
4465.25, 0.0826210
4469.1, 0.0826210
4472.95, 0.0826600
4476.82, 0.0826600
4480.69, 0.0826600
4484.56, 0.0826600
4488.44, 0.0826600
4492.33, 0.0827390
4496.23, 0.0827780
4500.13, 0.0827780
4504.04, 0.0828180
4507.96, 0.0828570
4511.88, 0.0827780
4515.81, 0.0827390
4519.75, 0.0827780
4523.69, 0.0827780
4527.65, 0.0827780
4531.6, 0.0827780
4535.57, 0.0828180
4539.54, 0.0827780
4543.52, 0.0827780
4547.5, 0.0828570
4551.5, 0.0828960
4555.5, 0.0828960
4559.5, 0.0828960
4563.52, 0.0828960
4567.54, 0.0829360
4571.56, 0.0828960
4575.6, 0.0828960
4579.64, 0.0828570
4583.69, 0.0828570
4587.75, 0.0828960
4591.81, 0.0828960
4595.88, 0.0828180
4599.96, 0.0828180
4604.04, 0.0827000
4608.14, 0.0826600
4612.24, 0.0826210
4616.34, 0.0825820
4620.46, 0.0825030
4624.58, 0.0823850
4628.71, 0.0822670
4632.84, 0.0822670
4636.99, 0.0821880
4641.14, 0.0820700
4645.3, 0.0819130
4649.47, 0.0818740
4653.64, 0.0817950
4657.82, 0.0817170
4662.01, 0.0815590
4666.21, 0.0814810
4670.41, 0.0814810
4674.62, 0.0814410
4678.84, 0.0814020
4683.07, 0.0814020
4687.3, 0.0813630
4691.54, 0.0812840
4695.79, 0.0812840
4700.05, 0.0813630
4704.31, 0.0812050
4708.59, 0.0812450
4712.87, 0.0811660
4717.15, 0.0812050
4721.45, 0.0811270
4725.76, 0.0811660
4730.07, 0.0810480
4734.39, 0.0810870
4738.72, 0.0810090
4743.05, 0.0810090
4747.39, 0.0809300
4751.75, 0.0808910
4756.1, 0.0808510
4760.47, 0.0808120
4764.85, 0.0807730
4769.23, 0.0806940
4773.62, 0.0806940
4778.02, 0.0806150
4782.43, 0.0806550
4786.85, 0.0804970
4791.27, 0.0804190
4795.7, 0.0804190
4800.14, 0.0803800
4804.59, 0.0802620
4809.05, 0.0801830
4813.51, 0.0801830
4817.99, 0.0801830
4822.47, 0.0801830
4826.96, 0.0800650
4831.46, 0.0799860
4835.96, 0.0799470
4840.48, 0.0799080
4845.0, 0.0798680
4849.54, 0.0797900
4854.08, 0.0797900
4858.63, 0.0798290
4863.18, 0.0798290
4867.75, 0.0797900
4872.33, 0.0797110
4876.91, 0.0796720
4881.5, 0.0796720
4886.1, 0.0797110
4890.71, 0.0797500
4895.33, 0.0797110
4899.96, 0.0796320
4904.59, 0.0796320
4909.24, 0.0797110
4913.89, 0.0797110
4918.55, 0.0797110
4923.22, 0.0796720
4927.9, 0.0796320
4932.59, 0.0796720
4937.29, 0.0796320
4942.0, 0.0795540
4946.71, 0.0795930
4951.44, 0.0797110
4956.17, 0.0797110
4960.91, 0.0796320
4965.67, 0.0795540
4970.43, 0.0794750
4975.2, 0.0794750
4979.98, 0.0794360
4984.76, 0.0794750
4989.56, 0.0794360
4994.37, 0.0794360
4999.18, 0.0794360
5004.01, 0.0794360
5008.84, 0.0794360
5013.69, 0.0794360
5018.54, 0.0794360
5023.4, 0.0793960
5028.28, 0.0793570
5033.16, 0.0793180
5038.05, 0.0792390
5042.95, 0.0792390
5047.86, 0.0792390
5052.78, 0.0792000
5057.71, 0.0791600
5062.65, 0.0791210
5067.6, 0.0790030
5072.56, 0.0790030
5077.53, 0.0790030
5082.5, 0.0790030
5087.49, 0.0789640
5092.49, 0.0789250
5097.5, 0.0788460
5102.51, 0.0788070
5107.54, 0.0787670
5112.58, 0.0787670
5117.62, 0.0787280
5122.68, 0.0787280
5127.75, 0.0787280
5132.82, 0.0786490
5137.91, 0.0785710
5143.01, 0.0784920
5148.12, 0.0784920
5153.23, 0.0785310
5158.36, 0.0784920
5163.5, 0.0784920
5168.65, 0.0785710
5173.81, 0.0786100
5178.98, 0.0785710
5184.15, 0.0785710
5189.34, 0.0786490
5194.54, 0.0785710
5199.75, 0.0785310
5204.98, 0.0786100
5210.21, 0.0786890
5215.45, 0.0787280
5220.7, 0.0787670
5225.96, 0.0788070
5231.23, 0.0788070
5236.52, 0.0788070
5241.81, 0.0788460
5247.12, 0.0788460
5252.44, 0.0788070
5257.76, 0.0788460
5263.1, 0.0789640
5268.45, 0.0790030
5273.81, 0.0790420
5279.18, 0.0790820
5284.56, 0.0791210
5289.95, 0.0791600
5295.36, 0.0792000
5300.77, 0.0792780
5306.2, 0.0793570
5311.63, 0.0793960
5317.08, 0.0793960
5322.54, 0.0795140
5328.01, 0.0795930
5333.49, 0.0796320
5338.98, 0.0795930
5344.49, 0.0795930
5350.0, 0.0795540
5355.53, 0.0795540
5361.07, 0.0795930
5366.62, 0.0795930
5372.18, 0.0796320
5377.75, 0.0796320
5383.34, 0.0795930
5388.93, 0.0795930
5394.54, 0.0795140
5400.16, 0.0794360
5405.79, 0.0794750
5411.44, 0.0794750
5417.09, 0.0794360
5422.76, 0.0794360
5428.43, 0.0794360
5434.12, 0.0794750
5439.83, 0.0794360
5445.54, 0.0794360
5451.26, 0.0794750
5457.0, 0.0794750
5462.75, 0.0794750
5468.52, 0.0794750
5474.29, 0.0794360
5480.08, 0.0794360
5485.88, 0.0795140
5491.69, 0.0795140
5497.51, 0.0794360
5503.35, 0.0794750
5509.2, 0.0795140
5515.06, 0.0795140
5520.93, 0.0794360
5526.82, 0.0793180
5532.71, 0.0793180
5538.63, 0.0792390
5544.55, 0.0792000
5550.49, 0.0791210
5556.44, 0.0790030
5562.4, 0.0789640
5568.37, 0.0789250
5574.36, 0.0788460
5580.36, 0.0788070
5586.37, 0.0788070
5592.4, 0.0788070
5598.44, 0.0788070
5604.49, 0.0787670
5610.56, 0.0787280
5616.63, 0.0787280
5622.73, 0.0787280
5628.83, 0.0786890
5634.95, 0.0786490
5641.08, 0.0786890
5647.23, 0.0786890
5653.39, 0.0786890
5659.56, 0.0786890
5665.74, 0.0787280
5671.94, 0.0787670
5678.15, 0.0788070
5684.38, 0.0788070
5690.62, 0.0787670
5696.87, 0.0788460
5703.14, 0.0788460
5709.42, 0.0787670
5715.72, 0.0788070
5722.03, 0.0788850
5728.35, 0.0788850
5734.69, 0.0788070
5741.03, 0.0788070
5747.4, 0.0788460
5753.78, 0.0788850
5760.17, 0.0788070
5766.58, 0.0787280
5773.0, 0.0787280
5779.44, 0.0787670
5785.88, 0.0788070
5792.35, 0.0788070
5798.83, 0.0788070
5805.32, 0.0788460
5811.83, 0.0788070
5818.35, 0.0786890
5824.89, 0.0786490
5831.45, 0.0787280
5838.01, 0.0787670
5844.59, 0.0787670
5851.19, 0.0787670
5857.8, 0.0787670
5864.43, 0.0787280
5871.07, 0.0786490
5877.73, 0.0784920
5884.4, 0.0784920
5891.09, 0.0785310
5897.79, 0.0784130
5904.5, 0.0784130
5911.23, 0.0784130
5917.98, 0.0783740
5924.75, 0.0783350
5931.53, 0.0781380
5938.32, 0.0779410
5945.13, 0.0779810
5951.96, 0.0779810
5958.8, 0.0779410
5965.65, 0.0777450
5972.53, 0.0777050
5979.42, 0.0776270
5986.32, 0.0775090
5993.24, 0.0775090
6000.18, 0.0775480
6007.13, 0.0774690
6014.1, 0.0774300
6021.08, 0.0774690
6028.09, 0.0774690
6035.1, 0.0773520
6042.14, 0.0772340
6049.19, 0.0770760
6056.25, 0.0771550
6063.34, 0.0771940
6070.44, 0.0771550
6077.55, 0.0771160
6084.69, 0.0771940
6091.84, 0.0771940
6099.0, 0.0771160
6106.19, 0.0770370
6113.39, 0.0769580
6120.61, 0.0769980
6127.84, 0.0770370
6135.09, 0.0769980
6142.36, 0.0769980
6149.65, 0.0769980
6156.95, 0.0769980
6164.27, 0.0769980
6171.61, 0.0770370
6178.97, 0.0769980
6186.34, 0.0769980
6193.73, 0.0769980
6201.14, 0.0770370
6208.57, 0.0771160
6216.01, 0.0771550
6223.47, 0.0771940
6230.95, 0.0772730
6238.45, 0.0773520
6245.97, 0.0774300
6253.5, 0.0775090
6261.06, 0.0775480
6268.63, 0.0775480
6276.21, 0.0776270
6283.82, 0.0777050
6291.45, 0.0777450
6299.1, 0.0777840
6306.76, 0.0778230
6314.44, 0.0777840
6322.14, 0.0778230
6329.86, 0.0779410
6337.6, 0.0779410
6345.35, 0.0779810
6353.13, 0.0780990
6360.92, 0.0781380
6368.74, 0.0781770
6376.57, 0.0782950
6384.43, 0.0784130
6392.3, 0.0785310
6400.19, 0.0784920
6408.1, 0.0783740
6416.03, 0.0784130
6423.98, 0.0785710
6431.95, 0.0786490
6439.94, 0.0786890
6447.95, 0.0787280
6455.98, 0.0787280
6464.03, 0.0787280
6472.1, 0.0787280
6480.19, 0.0786890
6488.31, 0.0786100
6496.44, 0.0785710
6504.59, 0.0787670
6512.76, 0.0788460
6520.95, 0.0787670
6529.16, 0.0788070
6537.4, 0.0788070
6545.65, 0.0788070
6553.92, 0.0787280
6562.22, 0.0786490
6570.54, 0.0785310
6578.88, 0.0785310
6587.23, 0.0784920
6595.61, 0.0784530
6604.02, 0.0784130
6612.44, 0.0784130
6620.89, 0.0784130
6629.35, 0.0782950
6637.84, 0.0782170
6646.35, 0.0782170
6654.88, 0.0782170
6663.44, 0.0782170
6672.01, 0.0780990
6680.61, 0.0779810
6689.23, 0.0779410
6697.88, 0.0779810
6706.54, 0.0779810
6715.23, 0.0779410
6723.94, 0.0779410
6732.67, 0.0779410
6741.42, 0.0779020
6750.2, 0.0779020
6759.0, 0.0779410
6767.82, 0.0779020
6776.67, 0.0778630
6785.54, 0.0777450
6794.44, 0.0777450
6803.35, 0.0777840
6812.29, 0.0777840
6821.26, 0.0777450
6830.24, 0.0777050
6839.25, 0.0776660
6848.29, 0.0776270
6857.35, 0.0775090
6866.43, 0.0775090
6875.54, 0.0776270
6884.67, 0.0775480
6893.82, 0.0775090
6903.0, 0.0774690
6912.2, 0.0773910
6921.43, 0.0773520
6930.69, 0.0773520
6939.96, 0.0774300
6949.27, 0.0773910
6958.59, 0.0772730
6967.95, 0.0773120
6977.33, 0.0774300
6986.73, 0.0774690
6996.16, 0.0774690
7005.61, 0.0774690
7015.09, 0.0774690
7024.6, 0.0774300
7034.13, 0.0773910
7043.69, 0.0773120
7053.27, 0.0772340
7062.88, 0.0771550
7072.52, 0.0771550
7082.18, 0.0772340
7091.87, 0.0772730
7101.58, 0.0772340
7111.32, 0.0770760
7121.09, 0.0770370
7130.88, 0.0769980
7140.71, 0.0769190
7150.56, 0.0768010
7160.43, 0.0766830
7170.33, 0.0765260
7180.27, 0.0763680
7190.23, 0.0762500
7200.21, 0.0760140
7210.23, 0.0757390
7220.27, 0.0755820
7230.34, 0.0753850
7240.44, 0.0751890
7250.56, 0.0750710
7260.72, 0.0749920
7270.9, 0.0748740
7281.12, 0.0747170
7291.36, 0.0746380
7301.63, 0.0745590
7311.93, 0.0745590
7322.25, 0.0745590
7332.61, 0.0745990
7343.0, 0.0745590
7353.41, 0.0744810
7363.86, 0.0744020
7374.33, 0.0743630
7384.83, 0.0743240
7395.37, 0.0742840
7405.93, 0.0742450
7416.53, 0.0742450
7427.15, 0.0742450
7437.81, 0.0742450
7448.5, 0.0742450
7459.22, 0.0742060
7469.96, 0.0742060
7480.74, 0.0742450
7491.55, 0.0741660
7502.39, 0.0741270
7513.27, 0.0741270
7524.17, 0.0741660
7535.11, 0.0742060
7546.08, 0.0741660
7557.08, 0.0740880
7568.11, 0.0740480
7579.17, 0.0740480
7590.27, 0.0740880
7601.4, 0.0740480
7612.56, 0.0740090
7623.76, 0.0739700
7634.98, 0.0738910
7646.24, 0.0738910
7657.54, 0.0738910
7668.87, 0.0738520
7680.23, 0.0738520
7691.62, 0.0738120
7703.05, 0.0737340
7714.51, 0.0736940
7726.01, 0.0736550
7737.54, 0.0736160
7749.11, 0.0735370
7760.71, 0.0735760
7772.35, 0.0735760
7784.02, 0.0735370
7795.72, 0.0734980
7807.46, 0.0734580
7819.23, 0.0734190
7831.04, 0.0734190
7842.89, 0.0734580
7854.77, 0.0733800
7866.69, 0.0733400
7878.65, 0.0733010
7890.64, 0.0733010
7902.67, 0.0733010
7914.74, 0.0732620
7926.84, 0.0732220
7938.98, 0.0732220
7951.16, 0.0732220
7963.37, 0.0731830
7975.62, 0.0731040
7987.91, 0.0731040
8000.24, 0.0731830
8012.6, 0.0731440
8025.01, 0.0731440
8037.45, 0.0731830
8049.93, 0.0731830
8062.45, 0.0731440
8075.01, 0.0730260
8087.61, 0.0729860
8100.24, 0.0730260
8112.91, 0.0729470
8125.63, 0.0729470
8138.39, 0.0729080
8151.18, 0.0729080
8164.02, 0.0729470
8176.9, 0.0729860
8189.81, 0.0729860
8202.77, 0.0729860
8215.77, 0.0730260
8228.82, 0.0730650
8241.9, 0.0730650
8255.02, 0.0730260
8268.19, 0.0729860
8281.39, 0.0731440
8294.65, 0.0731440
8307.94, 0.0731040
8321.28, 0.0730260
8334.66, 0.0729470
8348.08, 0.0729860
8361.54, 0.0729080
8375.05, 0.0728290
8388.6, 0.0728290
8402.2, 0.0728690
8415.84, 0.0728690
8429.52, 0.0728290
8443.25, 0.0728690
8457.02, 0.0729860
8470.84, 0.0730650
8484.7, 0.0731440
8498.61, 0.0732620
8512.57, 0.0734980
8526.57, 0.0736160
8540.62, 0.0738120
8554.71, 0.0740880
8568.85, 0.0742450
8583.04, 0.0744810
8597.27, 0.0748350
8611.55, 0.0751490
8625.88, 0.0755430
8640.26, 0.0758970
8654.68, 0.0762500
8669.16, 0.0767620
8683.68, 0.0771940
8698.25, 0.0776270
8712.87, 0.0781380
8727.53, 0.0788070
8742.25, 0.0794360
8757.02, 0.0800260
8771.83, 0.0805760
8786.7, 0.0809690
8801.62, 0.0811660
8816.59, 0.0814410
8831.61, 0.0819530
8846.68, 0.0823850
8861.8, 0.0828960
8876.97, 0.0834080
8892.2, 0.0837220
8907.48, 0.0839580
8922.81, 0.0840370
8938.2, 0.0840370
8953.63, 0.0840370
8969.13, 0.0841150
8984.67, 0.0843120
9000.27, 0.0846270
9015.92, 0.0849020
9031.63, 0.0852160
9047.39, 0.0854520
9063.21, 0.0856490
9079.08, 0.0858850
9095.01, 0.0860420
9111.0, 0.0861600
9127.04, 0.0862390
9143.13, 0.0863960
9159.28, 0.0865140
9175.49, 0.0865930
9191.76, 0.0866710
9208.09, 0.0868290
9224.47, 0.0869070
9240.92, 0.0869860
9257.42, 0.0871830
9273.98, 0.0874190
9290.6, 0.0876150
9307.28, 0.0878510
9324.02, 0.0881660
9340.82, 0.0884020
9357.68, 0.0886380
9374.6, 0.0889520
9391.58, 0.0893060
9408.62, 0.0895810
9425.73, 0.0898960
9442.9, 0.0901710
9460.13, 0.0903290
9477.42, 0.0904860
9494.78, 0.0906430
9512.2, 0.0906430
9529.69, 0.0903680
9547.24, 0.0900530
9564.86, 0.0895420
9582.54, 0.0890310
9600.28, 0.0884410
9618.1, 0.0878510
9635.97, 0.0873010
9653.92, 0.0868290
9671.93, 0.0863960
9690.01, 0.0860030
9708.16, 0.0854920
9726.37, 0.0849020
9744.65, 0.0845480
9763.0, 0.0841150
9781.43, 0.0835650
9799.92, 0.0830140
9818.48, 0.0824640
9837.1, 0.0819920
9855.8, 0.0815590
9874.58, 0.0810870
9893.42, 0.0806940
9912.34, 0.0804970
9931.33, 0.0804190
9950.39, 0.0803800
9969.52, 0.0805370
9988.74, 0.0809300
10008.0, 0.0811660
10027.4, 0.0812450
10046.8, 0.0813630
10066.3, 0.0815200
10085.9, 0.0815990
10105.6, 0.0817170
10125.3, 0.0820310
10145.1, 0.0823060
10165.0, 0.0824240
10185.0, 0.0826210
10205.0, 0.0828960
10225.2, 0.0832110
10245.4, 0.0835650
10265.7, 0.0838790
10286.0, 0.0837610
10306.5, 0.0831720
10327.0, 0.0821490
10347.6, 0.0808510
10368.3, 0.0797500
10389.1, 0.0790820
10409.9, 0.0788460
10430.9, 0.0786490
10451.9, 0.0785310
10473.0, 0.0783740
10494.2, 0.0780200
10515.5, 0.0777050
10536.9, 0.0772730
10558.4, 0.0768400
10579.9, 0.0764470
10601.5, 0.0760140
10623.3, 0.0755430
10645.1, 0.0752670
10667.0, 0.0752670
10689.0, 0.0752670
10711.1, 0.0750710
10733.2, 0.0748350
10755.5, 0.0745990
10777.9, 0.0742840
10800.3, 0.0739300
10822.9, 0.0734580
10845.5, 0.0727110
10868.2, 0.0720030
10891.1, 0.0714530
10914.0, 0.0709420
10937.0, 0.0705090
10960.2, 0.0700760
10983.4, 0.0696440
11006.7, 0.0692900
11030.1, 0.0690150
11053.6, 0.0690150
11077.3, 0.0693690
11101.0, 0.0699190
11124.8, 0.0707060
11148.7, 0.0717280
11172.7, 0.0728290
11196.9, 0.0738120
11221.1, 0.0746380
11245.4, 0.0752670
11269.9, 0.0758570
11294.4, 0.0761320
11319.1, 0.0761320
11343.9, 0.0761720
11368.8, 0.0760540
11393.7, 0.0758180
11418.8, 0.0756610
11444.0, 0.0753070
11469.4, 0.0749130
11494.8, 0.0746380
11520.3, 0.0744020
11546.0, 0.0741270
11571.8, 0.0737730
11597.7, 0.0733400
11623.7, 0.0728690
11649.8, 0.0723180
11676.0, 0.0718070
11702.4, 0.0713740
11728.9, 0.0710990
11755.5, 0.0707060
11782.2, 0.0703910
11809.0, 0.0703120
11836.0, 0.0701940
11863.0, 0.0698010
11890.3, 0.0694470
11917.6, 0.0692110
11945.0, 0.0689360
11972.6, 0.0687390
12000.4, 0.0686210
12028.2, 0.0685030
12056.2, 0.0683460
12084.3, 0.0680710
12112.5, 0.0677960
12140.9, 0.0676380
12169.4, 0.0674810
12198.0, 0.0672840
12226.8, 0.0670090
12255.7, 0.0668130
12284.7, 0.0664980
12313.9, 0.0662620
12343.2, 0.0661050
12372.7, 0.0659080
12402.3, 0.0657110
12432.0, 0.0655540
12461.9, 0.0653580
12491.9, 0.0651610
12522.1, 0.0649640
12552.4, 0.0649640
12582.9, 0.0649640
12613.5, 0.0648460
12644.3, 0.0647280
12675.2, 0.0645710
12706.3, 0.0646100
12737.5, 0.0646100
12768.9, 0.0646890
12800.4, 0.0648070
12832.1, 0.0649250
12863.9, 0.0650820
12895.9, 0.0651220
12928.1, 0.0652400
12960.4, 0.0655150
12992.9, 0.0658690
13025.5, 0.0664190
13058.3, 0.0668910
13091.3, 0.0673630
13124.4, 0.0680710
13157.8, 0.0688180
13191.2, 0.0696830
13224.9, 0.0707450
13258.7, 0.0719640
13292.7, 0.0733010
13326.9, 0.0744420
13361.2, 0.0756210
13395.7, 0.0771940
13430.4, 0.0786100
13465.3, 0.0797500
13500.4, 0.0809690
13535.7, 0.0822670
13571.1, 0.0834860
13606.7, 0.0847840
13642.5, 0.0859640
13678.5, 0.0871430
13714.7, 0.0884020
13751.1, 0.0895420
13787.6, 0.0908790
13824.4, 0.0923340
13861.4, 0.0934350
13898.5, 0.0943790
13935.9, 0.0953230
13973.5, 0.0963060
14011.2, 0.0972100
14049.2, 0.0982330
14087.4, 0.0992950
14125.8, 0.100160
14164.3, 0.100946
14203.2, 0.101772
14242.2, 0.102519
14281.4, 0.103384
14320.9, 0.104407
14360.5, 0.105547
14400.4, 0.106727
14440.5, 0.108064
14480.9, 0.109047
14521.4, 0.109912
14562.2, 0.110895
14603.3, 0.111721
14644.5, 0.112232
14686.0, 0.112429
14727.7, 0.112665
14769.7, 0.113019
14811.9, 0.113412
14854.3, 0.113845
14897.0, 0.114081
14939.9, 0.114474
14983.1, 0.114789
15026.5, 0.114749
15070.2, 0.114553
15114.2, 0.114553
15158.3, 0.114553
15202.8, 0.114592
15247.5, 0.115064
15292.5, 0.115732
15337.7, 0.116283
15383.2, 0.116794
15429.0, 0.117463
15475.1, 0.117738
15521.4, 0.117895
15568.0, 0.118131
15614.9, 0.118288
15662.1, 0.118210
15709.6, 0.117935
15757.3, 0.117699
15805.4, 0.117581
15853.7, 0.117581
15902.3, 0.117777
15951.2, 0.117659
16000.5, 0.117384
16050.0, 0.117463
16099.8, 0.117502
16150.0, 0.117187
16200.5, 0.117305
16251.3, 0.118092
16302.4, 0.119154
16353.8, 0.120176
16405.5, 0.121316
16457.6, 0.122457
16510.0, 0.123637
16562.8, 0.124856
16615.9, 0.126271
16669.3, 0.127884
16723.1, 0.129535
16777.2, 0.131069
16831.7, 0.132406
16886.5, 0.134254
16941.7, 0.136260
16997.2, 0.138344
17053.1, 0.140782
17109.4, 0.142984
17166.1, 0.145186
17223.1, 0.147231
17280.5, 0.149512
17338.3, 0.152186
17396.5, 0.154506
17455.1, 0.156866
17514.0, 0.159186
17573.4, 0.160838
17633.2, 0.162135
17693.4, 0.163119
17754.0, 0.163472
17815.0, 0.163394
17876.4, 0.163433
17938.3, 0.163197
18000.5, 0.162568
18063.3, 0.161899
18126.4, 0.161467
18190.0, 0.161152
18254.1, 0.160602
18318.6, 0.160051
18383.5, 0.159343
18449.0, 0.158164
18514.9, 0.157416
18581.2, 0.156748
18648.0, 0.155490
18715.4, 0.154270
18783.2, 0.153405
18851.5, 0.152344
18920.3, 0.151007
18989.6, 0.150338
19059.4, 0.150810
19129.7, 0.151203
19200.6, 0.152108
19272.0, 0.152894
19343.9, 0.152894
19416.3, 0.152658
19489.3, 0.152344
19562.8, 0.151203
19637.0, 0.150338
19711.6, 0.150023
19786.8, 0.149630
19862.6, 0.148726
19939.0, 0.147507
20016.0, 0.146917
20093.6, 0.146209
20171.8, 0.145501
20250.6, 0.144754
20330.0, 0.144007
20410.0, 0.143535
20490.7, 0.142591
20572.0, 0.141057
20654.0, 0.140310
20736.6, 0.139406
20819.9, 0.138895
20903.8, 0.138619
20988.5, 0.138541
21073.8, 0.138580
21159.8, 0.138855
21246.5, 0.139524
21334.0, 0.140192
21422.1, 0.140939
21511.0, 0.142158
21600.7, 0.143692
21691.0, 0.145344
21782.1, 0.147192
21874.0, 0.148332
21966.7, 0.149552
22060.2, 0.151046
22154.5, 0.151636
22249.6, 0.152304
22345.5, 0.152894
22442.2, 0.152933
22539.8, 0.152383
22638.2, 0.152776
22737.5, 0.152778
22837.7, 0.153531
22938.7, 0.154013
23040.7, 0.154062
23143.5, 0.153560
23247.3, 0.152470
23352.1, 0.150835
23457.7, 0.148931
23564.4, 0.147047
23672.0, 0.145241
23780.5, 0.143496
23890.1, 0.141728
24000.7, 0.139902
24112.3, 0.138241
24225.0, 0.136936
24338.7, 0.135714
24453.5, 0.134261
24569.4, 0.132606
24686.4, 0.130899
24804.5, 0.129396
24923.8, 0.128273
25044.2, 0.127223
25165.8, 0.125965
25288.6, 0.124898
25412.5, 0.124431
25537.7, 0.124266
25664.1, 0.123946
25791.8, 0.123204
25920.8, 0.121935
26051.1, 0.120526
26182.6, 0.119367
26315.5, 0.118276
26449.8, 0.116968
26585.4, 0.115395
26722.5, 0.113632
26860.9, 0.112008
27000.8, 0.110834
27142.1, 0.110012
27285.0, 0.109414
27429.4, 0.109254
27575.3, 0.109763
27722.7, 0.110846
27871.8, 0.112282
28022.4, 0.113727
28174.7, 0.114890
28328.7, 0.115900
28484.4, 0.117070
28641.7, 0.118984
28800.9, 0.122027
28961.8, 0.125378
29124.5, 0.128123
29289.0, 0.130432
29455.4, 0.132710
29623.8, 0.135133
29794.0, 0.137789
29966.3, 0.140643
30140.5, 0.143643
30316.7, 0.146810
30495.1, 0.150177
30675.5, 0.153735
30858.1, 0.157494
31042.8, 0.161595
31229.8, 0.166143
31419.1, 0.170944
31610.7, 0.175753
31804.6, 0.180497
32000.9, 0.185165
32199.7, 0.189823
32400.9, 0.194397
32604.8, 0.198138
32811.1, 0.200402
33020.1, 0.201853
33231.8, 0.203469
33446.2, 0.205948
33663.4, 0.209560
33883.4, 0.212999
34106.3, 0.214831
34332.1, 0.215070
34561.0, 0.214207
34792.9, 0.213074
35028.0, 0.212295
35266.3, 0.211102
35507.8, 0.208696
35752.7, 0.205846
36001.0, 0.203691
36252.8, 0.202990
36508.1, 0.204085
36767.0, 0.205871
37029.7, 0.207043
37296.1, 0.207312
37566.3, 0.206758
37840.5, 0.205922
38118.8, 0.205368
38401.2, 0.205138
38687.8, 0.205058
38978.6, 0.204633
39273.9, 0.203483
39573.7, 0.202181
39878.1, 0.201325
40187.3, 0.200412
40501.2, 0.198949
40820.0, 0.197834
41144.0, 0.198004
41473.2, 0.198769
41807.6, 0.199122
42147.5, 0.198744
42493.0, 0.197575
42844.2, 0.195914
43201.2, 0.194059
43564.3, 0.191820
43933.5, 0.189136
44309.0, 0.187093
44691.0, 0.186838
45079.6, 0.188205
45475.0, 0.190600
45877.5, 0.193184
46287.1, 0.195087
46704.2, 0.195762
47128.7, 0.194950
47561.1, 0.193335
48001.5, 0.191702
48450.1, 0.189974
48907.2, 0.188042
49373.0, 0.186689
49847.7, 0.186671
50331.5, 0.187397
50825.0, 0.187945
51328.2, 0.187751
51841.5, 0.186437
52365.1, 0.184162
52899.4, 0.181446
53444.8, 0.179689
54001.5, 0.180070
54570.1, 0.181432
55150.6, 0.182135
55743.6, 0.181635
56349.5, 0.179874
56968.7, 0.177692
57601.7, 0.175945
58248.9, 0.174230
58910.9, 0.172181
59588.1, 0.171222
60281.0, 0.172801
60990.2, 0.175847
61716.3, 0.178621
62459.8, 0.179967
63221.6, 0.179167
64002.1, 0.177035
64802.1, 0.174640
65622.1, 0.171980
66463.4, 0.169083
67326.6, 0.167431
68212.4, 0.168409
69121.9, 0.170615
70056.0, 0.172123
71015.7, 0.172764
72002.0, 0.172889
73016.3, 0.172915
74059.4, 0.173084
75132.7, 0.172612
76237.6, 0.170827
77375.5, 0.169125
78547.9, 0.168955
79756.3, 0.168746
81002.5, 0.166659
82288.5, 0.164297
83615.7, 0.163889
84986.5, 0.165183
86402.9, 0.167040
87867.4, 0.167861
89382.4, 0.166391
90950.5, 0.164221
92574.6, 0.163363
94257.2, 0.163059
96002.7, 0.161935
97814.1, 0.160052
99695.1, 0.158194
101650.0, 0.158333
103683.0, 0.162192
105799.0, 0.167709
108003.0, 0.171771
110301.0, 0.173118
112699.0, 0.171543
115204.0, 0.169604
117822.0, 0.170109
120562.0, 0.171374
123433.0, 0.170815
126443.0, 0.169529
129604.0, 0.169760
132926.0, 0.172664
136424.0, 0.178204
140111.0, 0.181786
144003.0, 0.178761
148118.0, 0.174937
152474.0, 0.178618
157095.0, 0.187978
162004.0, 0.198086
167231.0, 0.208196
172805.0, 0.208196
178764.0, 0.208196
185148.0, 0.208196
192005.0, 0.208196
199390.0, 0.208196
207366.0, 0.208196
216006.0, 0.208196
