Database of Origin, USGS Spectral Database
Sample Description, See USGS database for additional info
Date Added,2016-08-10 05:10:53.661627

Data ID,USGS_mon05          
Sample ID, montmorillonite_cm20.14324
Mineral Name, montmorillonite
Material Class,Phyllosilicate

Wavelength
229.1, 0.0503190
236.1, 0.0420640
242.1, 0.0505510
248.1, 0.0473390
253.6, 0.0453970
258.6, 0.0454400
263.6, 0.0437320
268.6, 0.0425330
273.1, 0.0442010
277.1, 0.0531960
281.1, 0.0462480
285.1, 0.0602600
289.1, 0.0516310
293.1, 0.0564240
297.1, 0.0591090
301.1, 0.0671690
305.1, 0.0721330
309.1, 0.0745660
313.1, 0.0798910
317.1, 0.106087
321.1, 0.0944700
325.1, 0.101162
329.1, 0.117628
333.1, 0.112670
337.1, 0.118595
341.1, 0.126429
345.1, 0.132244
349.1, 0.139806
353.1, 0.146324
357.1, 0.152676
360.6, 0.156894
363.6, 0.162280
366.6, 0.168303
369.6, 0.174119
372.6, 0.180980
375.6, 0.187281
378.6, 0.194655
381.1, 0.200601
383.1, 0.209033
385.1, 0.211448
387.1, 0.217913
389.1, 0.223662
391.1, 0.229036
393.1, 0.236023
395.1, 0.238663
397.1, 0.243381
399.1, 0.249499
401.1, 0.251399
403.1, 0.255734
405.1, 0.259151
407.1, 0.262898
409.1, 0.265843
411.1, 0.275592
412.8, 0.273501
415.8, 0.279573
418.8, 0.286259
421.8, 0.295006
424.8, 0.302562
427.8, 0.311931
430.8, 0.320822
433.8, 0.329557
436.8, 0.338559
439.8, 0.345757
442.8, 0.355138
445.8, 0.362819
448.8, 0.370673
451.3, 0.378389
453.3, 0.382352
455.3, 0.384354
457.3, 0.388236
459.3, 0.388663
461.3, 0.391520
463.3, 0.391454
465.3, 0.391725
467.3, 0.392773
469.3, 0.397448
471.3, 0.395570
473.3, 0.396453
475.3, 0.397854
477.3, 0.402964
479.3, 0.402214
481.3, 0.404390
483.3, 0.408380
485.3, 0.410474
487.3, 0.413330
489.3, 0.416567
491.3, 0.420453
493.3, 0.427206
495.3, 0.429748
497.3, 0.436154
499.3, 0.439510
501.3, 0.445042
503.3, 0.448963
505.3, 0.452466
507.3, 0.459454
509.3, 0.461723
511.3, 0.467295
513.3, 0.472358
515.3, 0.476260
517.3, 0.482111
519.3, 0.486558
521.3, 0.491985
523.3, 0.495824
525.3, 0.502263
527.3, 0.504765
529.3, 0.509379
531.3, 0.512789
533.3, 0.516969
535.3, 0.520544
537.3, 0.524746
539.3, 0.529363
541.3, 0.532629
543.3, 0.536242
545.3, 0.541469
547.3, 0.542870
549.3, 0.547873
551.3, 0.548630
553.3, 0.551762
555.3, 0.556079
557.3, 0.559458
559.3, 0.561845
561.3, 0.565425
563.3, 0.568346
565.3, 0.573266
567.3, 0.573887
569.3, 0.577655
571.3, 0.580027
573.3, 0.583066
575.3, 0.584532
577.3, 0.587869
579.3, 0.590275
581.3, 0.593288
583.3, 0.598572
585.3, 0.598229
587.3, 0.604277
589.3, 0.601660
591.3, 0.606156
593.3, 0.606631
595.3, 0.609176
597.3, 0.611486
599.3, 0.613347
601.1, 0.614396
602.7, 0.616623
604.3, 0.618340
605.9, 0.621467
607.5, 0.621345
609.1, 0.623466
610.7, 0.623188
612.3, 0.624185
613.9, 0.626461
615.5, 0.628702
617.1, 0.632909
618.7, 0.631499
620.3, 0.632065
621.9, 0.634838
623.5, 0.638179
625.1, 0.636916
626.7, 0.637802
628.3, 0.640271
629.9, 0.641667
631.7, 0.641732
633.7, 0.645157
635.7, 0.647891
637.7, 0.646986
639.7, 0.650165
641.7, 0.651981
643.7, 0.653597
645.7, 0.655067
647.7, 0.656631
649.7, 0.658610
651.7, 0.660766
653.7, 0.663374
655.7, 0.666463
657.7, 0.665842
659.7, 0.666463
661.7, 0.669327
663.7, 0.674156
665.7, 0.672231
667.7, 0.675066
670.2, 0.677801
673.2, 0.679895
676.2, 0.682414
679.2, 0.686700
682.2, 0.688842
685.2, 0.690401
688.2, 0.695820
691.2, 0.696612
694.2, 0.704692
697.2, 0.701849
700.2, 0.703162
702.0, 0.706931
704.0, 0.706634
706.0, 0.708683
708.0, 0.711586
710.0, 0.713126
712.0, 0.713118
714.0, 0.713207
716.0, 0.717535
718.0, 0.719744
720.0, 0.718139
722.0, 0.723178
724.0, 0.722467
726.0, 0.724621
728.0, 0.729806
730.0, 0.726098
732.0, 0.725503
734.0, 0.727828
736.0, 0.733930
738.0, 0.730405
740.0, 0.731910
742.0, 0.732952
744.0, 0.734038
746.0, 0.737861
748.0, 0.735125
750.5, 0.738098
753.5, 0.741058
756.5, 0.740115
759.5, 0.741331
762.5, 0.745954
765.5, 0.740603
768.5, 0.741726
771.5, 0.742394
774.5, 0.743092
777.5, 0.747972
781.0, 0.742442
785.0, 0.744237
789.0, 0.743249
793.0, 0.742360
797.0, 0.740603
801.5, 0.740781
806.5, 0.742487
811.5, 0.736798
816.5, 0.737440
822.0, 0.733260
828.0, 0.731569
835.0, 0.728397
843.0, 0.724959
851.0, 0.721230
859.0, 0.714153
871.0, 0.718327
883.0, 0.711911
894.0, 0.709727
904.0, 0.707755
914.0, 0.706125
924.0, 0.703931
933.0, 0.707716
941.0, 0.698694
949.0, 0.697100
957.0, 0.693884
964.0, 0.692064
970.0, 0.694545
976.0, 0.700783
982.0, 0.702112
988.0, 0.706022
994.0, 0.706530
1000.0, 0.707848
1006.0, 0.711774
1012.0, 0.712849
1018.0, 0.716379
1023.5, 0.717277
1028.5, 0.722091
1033.5, 0.722084
1038.5, 0.724136
1043.5, 0.727795
1048.5, 0.725827
1053.5, 0.727345
1058.5, 0.730221
1063.5, 0.731209
1068.5, 0.732881
1073.5, 0.734982
1078.5, 0.736365
1083.5, 0.738312
1088.5, 0.740197
1093.5, 0.744261
1098.5, 0.743232
1103.5, 0.748337
1108.5, 0.747827
1113.5, 0.749056
1118.5, 0.752745
1123.5, 0.754895
1128.5, 0.754189
1133.5, 0.755929
1138.5, 0.750507
1143.5, 0.745826
1148.5, 0.735588
1153.5, 0.733647
1158.5, 0.735138
1163.5, 0.744878
1168.5, 0.747174
1173.5, 0.754806
1178.5, 0.757327
1183.5, 0.760981
1188.5, 0.761359
1193.5, 0.764936
1198.5, 0.765001
1203.5, 0.765332
1208.5, 0.770671
1213.5, 0.772361
1218.5, 0.771731
1223.5, 0.776296
1228.5, 0.775574
1233.5, 0.778794
1238.5, 0.777993
1243.5, 0.780734
1248.5, 0.780185
1253.5, 0.780413
1258.5, 0.783404
1263.5, 0.784542
1268.5, 0.785018
1273.5, 0.784561
1278.5, 0.785487
1283.5, 0.781362
1288.5, 0.781702
1293.5, 0.776894
1298.5, 0.772054
1303.5, 0.769893
1308.5, 0.766684
1313.5, 0.761721
1318.5, 0.755722
1323.5, 0.751536
1328.5, 0.743592
1333.5, 0.739340
1338.5, 0.732003
1343.5, 0.726339
1348.5, 0.718552
1353.5, 0.712240
1358.5, 0.708963
1363.5, 0.697238
1368.5, 0.682347
1373.5, 0.665278
1378.5, 0.635677
1383.5, 0.599386
1388.5, 0.568575
1393.5, 0.530021
1398.5, 0.486104
1403.5, 0.451832
1408.5, 0.424641
1413.5, 0.417152
1418.5, 0.427171
1423.5, 0.447954
1428.5, 0.472242
1433.5, 0.495647
1438.5, 0.514546
1443.5, 0.529569
1448.5, 0.538701
1453.5, 0.545356
1458.5, 0.542643
1463.5, 0.543981
1468.5, 0.549822
1473.5, 0.564068
1478.5, 0.578174
1483.5, 0.589797
1488.5, 0.597540
1493.5, 0.609719
1498.5, 0.615900
1503.5, 0.622621
1508.5, 0.630325
1513.5, 0.637651
1518.5, 0.640372
1523.5, 0.648706
1528.5, 0.649978
1534.0, 0.659205
1540.0, 0.661933
1546.0, 0.667998
1552.0, 0.669993
1558.0, 0.680116
1564.0, 0.679681
1570.5, 0.683526
1577.5, 0.685812
1584.5, 0.690375
1591.5, 0.692772
1598.5, 0.695919
1605.5, 0.699672
1612.5, 0.701826
1619.5, 0.703107
1626.5, 0.706604
1633.5, 0.705150
1640.5, 0.708169
1647.5, 0.710647
1654.5, 0.709504
1661.5, 0.709293
1668.5, 0.708881
1676.0, 0.711848
1684.0, 0.708323
1692.0, 0.705587
1700.0, 0.708051
1708.0, 0.705378
1716.0, 0.695494
1724.0, 0.691950
1732.0, 0.687063
1740.0, 0.683740
1748.0, 0.676197
1756.0, 0.671904
1764.0, 0.661810
1772.0, 0.657360
1780.0, 0.651444
1788.0, 0.646579
1796.0, 0.640403
1805.0, 0.639187
1815.0, 0.639774
1825.0, 0.634759
1835.0, 0.629875
1845.0, 0.618944
1855.0, 0.600301
1865.0, 0.568473
1875.0, 0.504495
1885.0, 0.412075
1895.0, 0.295889
1905.0, 0.228057
1915.0, 0.246046
1925.0, 0.287252
1935.0, 0.317880
1945.0, 0.335619
1955.0, 0.347133
1965.0, 0.356796
1975.0, 0.371009
1985.0, 0.384091
1995.0, 0.402217
2005.0, 0.417958
2015.0, 0.439653
2025.0, 0.459681
2035.0, 0.469529
2045.0, 0.480901
2055.0, 0.490536
2065.0, 0.491881
2075.0, 0.502691
2085.0, 0.504360
2095.0, 0.502738
2105.0, 0.507185
2115.0, 0.508660
2125.0, 0.516641
2135.0, 0.517644
2145.0, 0.510159
2155.0, 0.504762
2165.0, 0.493660
2175.0, 0.471799
2185.0, 0.445006
2195.0, 0.406858
2205.0, 0.373194
2215.0, 0.377160
2225.0, 0.393422
2235.0, 0.403690
2245.0, 0.415139
2255.0, 0.430743
2265.0, 0.441015
2275.0, 0.443177
2285.0, 0.438603
2295.0, 0.420581
2305.0, 0.415306
2315.0, 0.404154
2325.0, 0.388825
2335.0, 0.378300
2345.0, 0.364365
2355.0, 0.350349
2365.0, 0.343609
2375.0, 0.328806
2386.0, 0.318821
2400.0, 0.301306
2418.0, 0.285977
2440.0, 0.268962
2466.0, 0.250545
2496.0, 0.231660
2528.0, 0.216833
2560.0, 0.209267
2592.0, 0.197948
2624.0, 0.180897
2656.0, 0.149149
2688.0, 0.0758290
2720.0, 0.0212830
2752.0, 0.0237120
2816.0, 0.00959200
2848.0, 0.0207830
2880.0, 0.00927000
2912.0, 0.0195920
2944.0, 0.00697400
2976.0, 0.0263880
