Database of Origin, USGS Spectral Database
Sample Description, See USGS database for additional info
Date Added,2016-08-03 21:08:33.051263

Data ID,USGS_blo02          
Sample ID, bloedite_gds147.3714
Mineral Name, bloedite
Material Class,Inosilicate

Wavelength
1528.35, 0.158034
1528.8, 0.158003
1529.25, 0.158095
1529.7, 0.158247
1530.15, 0.158125
1530.6, 0.157851
1531.05, 0.158156
1531.51, 0.158643
1531.96, 0.158613
1532.41, 0.158552
1532.87, 0.158552
1533.32, 0.158460
1533.77, 0.158704
1534.23, 0.158674
1534.68, 0.158582
1535.14, 0.158857
1535.59, 0.158918
1536.05, 0.158765
1536.5, 0.158857
1536.96, 0.158918
1537.41, 0.158826
1537.87, 0.158979
1538.32, 0.159192
1538.78, 0.159192
1539.24, 0.159223
1539.7, 0.159345
1540.15, 0.159162
1540.61, 0.159314
1541.07, 0.159528
1541.53, 0.159375
1541.98, 0.159406
1542.44, 0.159467
1542.9, 0.159528
1543.36, 0.159589
1543.82, 0.159772
1544.28, 0.159955
1544.74, 0.160016
1545.2, 0.159863
1545.66, 0.159924
1546.12, 0.160016
1546.59, 0.159802
1547.05, 0.159985
1547.51, 0.160168
1547.97, 0.160198
1548.43, 0.160351
1548.9, 0.160351
1549.36, 0.160290
1549.82, 0.160473
1550.29, 0.160503
1550.75, 0.160381
1551.21, 0.160503
1551.68, 0.160656
1552.14, 0.160808
1552.61, 0.160900
1553.07, 0.161083
1553.54, 0.161113
1554.0, 0.161357
1554.47, 0.161510
1554.93, 0.161510
1555.4, 0.161723
1555.87, 0.161906
1556.34, 0.161875
1556.8, 0.161906
1557.27, 0.162119
1557.74, 0.161997
1558.21, 0.162058
1558.68, 0.162180
1559.14, 0.162302
1559.61, 0.162516
1560.08, 0.162638
1560.55, 0.162638
1561.02, 0.162790
1561.49, 0.163095
1561.96, 0.163278
1562.43, 0.163248
1562.9, 0.163339
1563.38, 0.163491
1563.85, 0.163552
1564.32, 0.163644
1564.79, 0.163674
1565.26, 0.163766
1565.74, 0.164010
1566.21, 0.164040
1566.68, 0.164071
1567.16, 0.164254
1567.63, 0.164467
1568.1, 0.164345
1568.58, 0.164254
1569.05, 0.164437
1569.53, 0.164772
1570.0, 0.164955
1570.48, 0.164925
1570.96, 0.165016
1571.43, 0.165168
1571.91, 0.165168
1572.39, 0.165382
1572.86, 0.165504
1573.34, 0.165382
1573.82, 0.165199
1574.3, 0.165473
1574.77, 0.165504
1575.25, 0.165534
1575.73, 0.166022
1576.21, 0.166175
1576.69, 0.166114
1577.17, 0.166022
1577.65, 0.166144
1578.13, 0.166205
1578.61, 0.166266
1579.09, 0.166297
1579.57, 0.166449
1580.05, 0.166571
1580.54, 0.166480
1581.02, 0.166297
1581.5, 0.166662
1581.98, 0.166906
1582.47, 0.166754
1582.95, 0.166723
1583.43, 0.166723
1583.92, 0.166815
1584.4, 0.166784
1584.88, 0.166723
1585.37, 0.166845
1585.85, 0.166937
1586.34, 0.166998
1586.82, 0.167059
1587.31, 0.167303
1587.8, 0.167303
1588.28, 0.167242
1588.77, 0.167120
1589.26, 0.167059
1589.74, 0.167181
1590.23, 0.167364
1590.72, 0.167333
1591.21, 0.167303
1591.7, 0.167394
1592.19, 0.167608
1592.67, 0.167669
1593.16, 0.167577
1593.65, 0.167608
1594.14, 0.167608
1594.63, 0.167699
1595.12, 0.167821
1595.61, 0.167913
1596.11, 0.167821
1596.6, 0.167699
1597.09, 0.167882
1597.58, 0.167943
1598.08, 0.167943
1598.57, 0.168035
1599.06, 0.167913
1599.55, 0.167913
1600.05, 0.168035
1600.54, 0.167974
1601.04, 0.167943
1601.53, 0.168035
1602.03, 0.167821
1602.52, 0.167821
1603.02, 0.168126
1603.51, 0.168248
1604.01, 0.168187
1604.5, 0.168218
1605.0, 0.168309
1605.5, 0.168248
1606.0, 0.168218
1606.49, 0.168187
1606.99, 0.168218
1607.49, 0.168218
1607.99, 0.168279
1608.49, 0.168370
1608.99, 0.168461
1609.49, 0.168553
1609.99, 0.168522
1610.49, 0.168400
1610.99, 0.168400
1611.49, 0.168553
1611.99, 0.168705
1612.49, 0.168705
1612.99, 0.168553
1613.49, 0.168583
1614.0, 0.168553
1614.5, 0.168461
1615.0, 0.168583
1615.51, 0.168522
1616.01, 0.168431
1616.51, 0.168583
1617.02, 0.168644
1617.52, 0.168492
1618.03, 0.168614
1618.53, 0.168858
1619.04, 0.168919
1619.54, 0.168827
1620.05, 0.168766
1620.55, 0.168736
1621.06, 0.168675
1621.57, 0.168766
1622.08, 0.169010
1622.58, 0.169193
1623.09, 0.169224
1623.6, 0.169132
1624.11, 0.168919
1624.62, 0.169071
1625.13, 0.169071
1625.64, 0.169041
1626.15, 0.169041
1626.66, 0.169224
1627.17, 0.169315
1627.68, 0.169254
1628.19, 0.169193
1628.7, 0.169132
1629.21, 0.169132
1629.72, 0.169102
1630.24, 0.169071
1630.75, 0.169193
1631.26, 0.169315
1631.78, 0.169193
1632.29, 0.169224
1632.8, 0.169285
1633.32, 0.169315
1633.83, 0.169193
1634.35, 0.169285
1634.86, 0.169468
1635.38, 0.169468
1635.9, 0.169529
1636.41, 0.169590
1636.93, 0.169498
1637.45, 0.169407
1637.96, 0.169468
1638.48, 0.169620
1639.0, 0.169620
1639.52, 0.169590
1640.04, 0.169620
1640.56, 0.169620
1641.08, 0.169620
1641.59, 0.169712
1642.11, 0.169773
1642.63, 0.169956
1643.16, 0.169956
1643.68, 0.169864
1644.2, 0.169895
1644.72, 0.170016
1645.24, 0.170047
1645.76, 0.170108
1646.29, 0.170230
1646.81, 0.170169
1647.33, 0.170077
1647.86, 0.170016
1648.38, 0.170047
1648.9, 0.170047
1649.43, 0.170108
1649.95, 0.170077
1650.48, 0.170108
1651.0, 0.170230
1651.53, 0.170321
1652.06, 0.170169
1652.58, 0.170108
1653.11, 0.170199
1653.64, 0.170291
1654.17, 0.170291
1654.69, 0.170291
1655.22, 0.170199
1655.75, 0.170169
1656.28, 0.170108
1656.81, 0.170016
1657.34, 0.170138
1657.87, 0.170169
1658.4, 0.170199
1658.93, 0.170321
1659.46, 0.170443
1659.99, 0.170443
1660.52, 0.170474
1661.05, 0.170657
1661.59, 0.170626
1662.12, 0.170352
1662.65, 0.170199
1663.19, 0.170352
1663.72, 0.170504
1664.26, 0.170382
1664.79, 0.170321
1665.32, 0.170382
1665.86, 0.170413
1666.39, 0.170382
1666.93, 0.170230
1667.47, 0.170260
1668.0, 0.170321
1668.54, 0.170413
1669.08, 0.170565
1669.61, 0.170565
1670.15, 0.170382
1670.69, 0.170230
1671.23, 0.170382
1671.77, 0.170565
1672.31, 0.170504
1672.85, 0.170352
1673.39, 0.170352
1673.93, 0.170535
1674.47, 0.170687
1675.01, 0.170657
1675.55, 0.170657
1676.09, 0.170718
1676.64, 0.170565
1677.18, 0.170596
1677.72, 0.170565
1678.26, 0.170535
1678.81, 0.170657
1679.35, 0.170687
1679.89, 0.170809
1680.44, 0.170870
1680.98, 0.170748
1681.53, 0.170657
1682.07, 0.170779
1682.62, 0.170748
1683.17, 0.170809
1683.71, 0.171084
1684.26, 0.170962
1684.81, 0.170809
1685.36, 0.170931
1685.9, 0.171084
1686.45, 0.171023
1687.0, 0.170840
1687.55, 0.170870
1688.1, 0.170931
1688.65, 0.171053
1689.2, 0.171053
1689.75, 0.171175
1690.3, 0.171267
1690.85, 0.171328
1691.41, 0.171267
1691.96, 0.171236
1692.51, 0.171175
1693.06, 0.171206
1693.61, 0.171297
1694.17, 0.171297
1694.72, 0.171297
1695.28, 0.171419
1695.83, 0.171450
1696.39, 0.171480
1696.94, 0.171480
1697.5, 0.171389
1698.05, 0.171297
1698.61, 0.171389
1699.17, 0.171511
1699.72, 0.171572
1700.28, 0.171724
1700.84, 0.171785
1701.4, 0.171815
1701.95, 0.171907
1702.51, 0.171937
1703.07, 0.171937
1703.63, 0.172029
1704.19, 0.172151
1704.75, 0.172151
1705.31, 0.171998
1705.88, 0.171907
1706.44, 0.172059
1707.0, 0.172242
1707.56, 0.172120
1708.12, 0.172151
1708.69, 0.172273
1709.25, 0.172364
1709.81, 0.172486
1710.38, 0.172395
1710.94, 0.172364
1711.51, 0.172486
1712.07, 0.172578
1712.64, 0.172578
1713.2, 0.172608
1713.77, 0.172700
1714.34, 0.172639
1714.9, 0.172547
1715.47, 0.172547
1716.04, 0.172639
1716.61, 0.172852
1717.18, 0.172883
1717.74, 0.172913
1718.31, 0.172944
1718.88, 0.172974
1719.45, 0.173035
1720.02, 0.173066
1720.59, 0.173035
1721.17, 0.173127
1721.74, 0.173157
1722.31, 0.173157
1722.88, 0.173218
1723.45, 0.173279
1724.03, 0.173279
1724.6, 0.173340
1725.18, 0.173462
1725.75, 0.173492
1726.33, 0.173492
1726.9, 0.173492
1727.48, 0.173553
1728.05, 0.173614
1728.63, 0.173706
1729.2, 0.173919
1729.78, 0.174072
1730.36, 0.174102
1730.94, 0.174011
1731.51, 0.174102
1732.09, 0.174194
1732.67, 0.174255
1733.25, 0.174224
1733.83, 0.174163
1734.41, 0.174316
1734.99, 0.174468
1735.57, 0.174560
1736.15, 0.174682
1736.73, 0.174682
1737.32, 0.174590
1737.9, 0.174682
1738.48, 0.174895
1739.07, 0.174804
1739.65, 0.174865
1740.23, 0.175047
1740.82, 0.175108
1741.4, 0.175169
1741.99, 0.175261
1742.57, 0.175230
1743.16, 0.175352
1743.74, 0.175566
1744.33, 0.175566
1744.92, 0.175566
1745.51, 0.175688
1746.09, 0.175718
1746.68, 0.175749
1747.27, 0.175718
1747.86, 0.175840
1748.45, 0.176084
1749.04, 0.176176
1749.63, 0.176237
1750.22, 0.176206
1750.81, 0.176237
1751.4, 0.176267
1751.99, 0.176298
1752.59, 0.176389
1753.18, 0.176450
1753.77, 0.176663
1754.37, 0.176877
1754.96, 0.176877
1755.56, 0.176846
1756.15, 0.176968
1756.74, 0.176968
1757.34, 0.176907
1757.94, 0.176907
1758.53, 0.177060
1759.13, 0.177212
1759.73, 0.177273
1760.32, 0.177334
1760.92, 0.177426
1761.52, 0.177487
1762.12, 0.177578
1762.72, 0.177670
1763.32, 0.177609
1763.92, 0.177578
1764.52, 0.177639
1765.12, 0.177639
1765.72, 0.177700
1766.32, 0.177731
1766.92, 0.177731
1767.53, 0.177822
1768.13, 0.177853
1768.73, 0.177883
1769.34, 0.177975
1769.94, 0.178036
1770.55, 0.178097
1771.15, 0.178219
1771.76, 0.178219
1772.36, 0.178066
1772.97, 0.177975
1773.57, 0.177975
1774.18, 0.178036
1774.79, 0.178310
1775.4, 0.178462
1776.0, 0.178310
1776.61, 0.178249
1777.22, 0.178188
1777.83, 0.178249
1778.44, 0.178371
1779.05, 0.178401
1779.66, 0.178279
1780.27, 0.178249
1780.88, 0.178279
1781.5, 0.178249
1782.11, 0.178219
1782.72, 0.178279
1783.33, 0.178310
1783.95, 0.178340
1784.56, 0.178523
1785.18, 0.178584
1785.79, 0.178462
1786.41, 0.178340
1787.02, 0.178279
1787.64, 0.178371
1788.26, 0.178493
1788.87, 0.178523
1789.49, 0.178462
1790.11, 0.178432
1790.73, 0.178554
1791.35, 0.178676
1791.96, 0.178767
1792.58, 0.178676
1793.21, 0.178706
1793.83, 0.178767
1794.45, 0.178889
1795.07, 0.178889
1795.69, 0.178828
1796.31, 0.178981
1796.93, 0.179133
1797.56, 0.179194
1798.18, 0.179286
1798.8, 0.179408
1799.43, 0.179499
1800.05, 0.179499
1800.68, 0.179713
1801.3, 0.179896
1801.93, 0.179835
1802.56, 0.179926
1803.18, 0.180078
1803.81, 0.180109
1804.44, 0.180170
1805.07, 0.180414
1805.7, 0.180658
1806.33, 0.180719
1806.95, 0.180841
1807.58, 0.180963
1808.22, 0.181146
1808.85, 0.181329
1809.48, 0.181420
1810.11, 0.181572
1810.74, 0.181755
1811.38, 0.181847
1812.01, 0.181908
1812.64, 0.182152
1813.28, 0.182274
1813.91, 0.182304
1814.55, 0.182487
1815.18, 0.182670
1815.82, 0.182731
1816.45, 0.182853
1817.09, 0.183006
1817.73, 0.183036
1818.36, 0.183188
1819.0, 0.183432
1819.64, 0.183646
1820.28, 0.183737
1820.92, 0.183890
1821.56, 0.184073
1822.2, 0.184164
1822.84, 0.184347
1823.48, 0.184500
1824.12, 0.184561
1824.76, 0.184744
1825.41, 0.184896
1826.05, 0.185018
1826.69, 0.185109
1827.34, 0.185262
1827.98, 0.185475
1828.63, 0.185506
1829.27, 0.185506
1829.92, 0.185689
1830.56, 0.185841
1831.21, 0.185872
1831.86, 0.185963
1832.5, 0.186207
1833.15, 0.186451
1833.8, 0.186482
1834.45, 0.186542
1835.1, 0.186573
1835.75, 0.186664
1836.4, 0.186725
1837.05, 0.186817
1837.7, 0.187000
1838.35, 0.187122
1839.01, 0.187183
1839.66, 0.187213
1840.31, 0.187305
1840.96, 0.187366
1841.62, 0.187518
1842.27, 0.187732
1842.93, 0.187823
1843.58, 0.187884
1844.24, 0.187976
1844.9, 0.188067
1845.55, 0.188037
1846.21, 0.188006
1846.87, 0.188037
1847.53, 0.188098
1848.18, 0.188250
1848.84, 0.188372
1849.5, 0.188402
1850.16, 0.188402
1850.82, 0.188402
1851.48, 0.188433
1852.14, 0.188494
1852.81, 0.188524
1853.47, 0.188585
1854.13, 0.188616
1854.8, 0.188555
1855.46, 0.188616
1856.12, 0.188677
1856.79, 0.188585
1857.45, 0.188555
1858.12, 0.188646
1858.79, 0.188555
1859.45, 0.188402
1860.12, 0.188494
1860.79, 0.188555
1861.46, 0.188433
1862.12, 0.188311
1862.79, 0.188280
1863.46, 0.188280
1864.13, 0.188128
1864.8, 0.188037
1865.48, 0.187976
1866.15, 0.187854
1866.82, 0.187793
1867.49, 0.187671
1868.16, 0.187518
1868.84, 0.187427
1869.51, 0.187396
1870.19, 0.187274
1870.86, 0.187122
1871.54, 0.186878
1872.21, 0.186634
1872.89, 0.186482
1873.56, 0.186390
1874.24, 0.186146
1874.92, 0.185902
1875.6, 0.185719
1876.28, 0.185475
1876.96, 0.185292
1877.64, 0.185170
1878.32, 0.184865
1879.0, 0.184561
1879.68, 0.184225
1880.36, 0.183951
1881.04, 0.183768
1881.73, 0.183463
1882.41, 0.182945
1883.09, 0.182670
1883.78, 0.182335
1884.46, 0.181999
1885.15, 0.181664
1885.83, 0.181329
1886.52, 0.180871
1887.21, 0.180505
1887.89, 0.180048
1888.58, 0.179591
1889.27, 0.179164
1889.96, 0.178706
1890.65, 0.178279
1891.34, 0.177792
1892.03, 0.177273
1892.72, 0.176877
1893.41, 0.176420
1894.1, 0.175962
1894.79, 0.175505
1895.49, 0.174956
1896.18, 0.174438
1896.87, 0.173919
1897.57, 0.173340
1898.26, 0.172791
1898.96, 0.172212
1899.65, 0.171480
1900.35, 0.170779
1901.05, 0.170291
1901.74, 0.169803
1902.44, 0.169132
1903.14, 0.168370
1903.84, 0.167699
1904.54, 0.166967
1905.24, 0.166297
1905.94, 0.165565
1906.64, 0.164833
1907.34, 0.164254
1908.04, 0.163583
1908.75, 0.162882
1909.45, 0.162150
1910.15, 0.161449
1910.86, 0.160717
1911.56, 0.160046
1912.27, 0.159314
1912.97, 0.158552
1913.68, 0.157790
1914.39, 0.156997
1915.09, 0.156326
1915.8, 0.155564
1916.51, 0.154741
1917.22, 0.154009
1917.93, 0.153247
1918.64, 0.152545
1919.35, 0.151905
1920.06, 0.151265
1920.77, 0.150441
1921.48, 0.149557
1922.19, 0.148825
1922.91, 0.148155
1923.62, 0.147453
1924.33, 0.146752
1925.05, 0.146020
1925.76, 0.145228
1926.48, 0.144526
1927.19, 0.143855
1927.91, 0.143154
1928.63, 0.142575
1929.35, 0.141934
1930.07, 0.141233
1930.78, 0.140562
1931.5, 0.139922
1932.22, 0.139312
1932.94, 0.138763
1933.66, 0.138123
1934.39, 0.137452
1935.11, 0.136843
1935.83, 0.136324
1936.55, 0.135745
1937.28, 0.135105
1938.0, 0.134464
1938.73, 0.133976
1939.45, 0.133489
1940.18, 0.133001
1940.9, 0.132543
1941.63, 0.132116
1942.36, 0.131842
1943.09, 0.131720
1943.81, 0.131354
1944.54, 0.130927
1945.27, 0.130714
1946.0, 0.130531
1946.73, 0.130318
1947.47, 0.130165
1948.2, 0.130104
1948.93, 0.130135
1949.66, 0.130165
1950.4, 0.130165
1951.13, 0.130226
1951.86, 0.130318
1952.6, 0.130409
1953.34, 0.130531
1954.07, 0.130683
1954.81, 0.130805
1955.55, 0.130927
1956.29, 0.131110
1957.02, 0.131415
1957.76, 0.131598
1958.5, 0.131659
1959.24, 0.131812
1959.98, 0.131995
1960.72, 0.132177
1961.47, 0.132391
1962.21, 0.132604
1962.95, 0.132757
1963.7, 0.132787
1964.44, 0.132757
1965.18, 0.132909
1965.93, 0.133092
1966.67, 0.133123
1967.42, 0.133153
1968.17, 0.133184
1968.92, 0.133245
1969.66, 0.133306
1970.41, 0.133367
1971.16, 0.133428
1971.91, 0.133458
1972.66, 0.133428
1973.41, 0.133397
1974.16, 0.133428
1974.92, 0.133519
1975.67, 0.133641
1976.42, 0.133763
1977.18, 0.133854
1977.93, 0.133885
1978.69, 0.133915
1979.44, 0.133976
1980.2, 0.134007
1980.95, 0.134159
1981.71, 0.134312
1982.47, 0.134342
1983.23, 0.134464
1983.99, 0.134525
1984.74, 0.134678
1985.51, 0.134891
1986.27, 0.135044
1987.03, 0.135166
1987.79, 0.135318
1988.55, 0.135501
1989.32, 0.135684
1990.08, 0.136019
1990.84, 0.136202
1991.61, 0.136385
1992.37, 0.136477
1993.14, 0.136629
1993.9, 0.136873
1994.67, 0.137178
1995.44, 0.137422
1996.21, 0.137635
1996.98, 0.137879
1997.75, 0.138093
1998.52, 0.138276
1999.29, 0.138520
2000.06, 0.138763
2000.83, 0.138855
2001.6, 0.139068
2002.38, 0.139312
2003.15, 0.139526
2003.93, 0.139770
2004.7, 0.139983
2005.48, 0.140136
2006.25, 0.140288
2007.03, 0.140471
2007.81, 0.140776
2008.58, 0.141111
2009.36, 0.141355
2010.14, 0.141569
2010.92, 0.141721
2011.7, 0.141904
2012.48, 0.142117
2013.26, 0.142331
2014.05, 0.142453
2014.83, 0.142575
2015.61, 0.142788
2016.4, 0.143002
2017.18, 0.143307
2017.97, 0.143520
2018.75, 0.143733
2019.54, 0.143916
2020.32, 0.144130
2021.11, 0.144252
2021.9, 0.144465
2022.69, 0.144648
2023.48, 0.144892
2024.27, 0.145106
2025.06, 0.145288
2025.85, 0.145441
2026.64, 0.145715
2027.44, 0.145990
2028.23, 0.146142
2029.02, 0.146295
2029.82, 0.146417
2030.61, 0.146630
2031.41, 0.146874
2032.2, 0.147057
2033.0, 0.147301
2033.8, 0.147331
2034.6, 0.147453
2035.4, 0.147484
2036.2, 0.147606
2037.0, 0.147880
2037.8, 0.148063
2038.6, 0.148155
2039.4, 0.148307
2040.2, 0.148429
2041.01, 0.148581
2041.81, 0.148673
2042.61, 0.148703
2043.42, 0.148795
2044.22, 0.148825
2045.03, 0.148947
2045.84, 0.148978
2046.65, 0.149039
2047.46, 0.149222
2048.26, 0.149344
2049.07, 0.149405
2049.88, 0.149405
2050.69, 0.149435
2051.51, 0.149405
2052.32, 0.149344
2053.13, 0.149405
2053.94, 0.149496
2054.76, 0.149374
2055.57, 0.149374
2056.39, 0.149466
2057.2, 0.149374
2058.02, 0.149283
2058.84, 0.149435
2059.66, 0.149405
2060.48, 0.149191
2061.29, 0.149222
2062.11, 0.149374
2062.94, 0.149344
2063.76, 0.149161
2064.58, 0.149130
2065.4, 0.149130
2066.22, 0.149069
2067.05, 0.148978
2067.87, 0.148917
2068.7, 0.148886
2069.52, 0.148917
2070.35, 0.148947
2071.18, 0.148886
2072.0, 0.148825
2072.83, 0.148764
2073.66, 0.148703
2074.49, 0.148673
2075.32, 0.148642
2076.15, 0.148581
2076.98, 0.148521
2077.82, 0.148490
2078.65, 0.148460
2079.48, 0.148460
2080.32, 0.148460
2081.15, 0.148307
2081.99, 0.148338
2082.83, 0.148460
2083.66, 0.148460
2084.5, 0.148460
2085.34, 0.148490
2086.18, 0.148490
2087.02, 0.148490
2087.86, 0.148612
2088.7, 0.148673
2089.54, 0.148734
2090.39, 0.148764
2091.23, 0.148795
2092.07, 0.148764
2092.92, 0.148856
2093.76, 0.149039
2094.61, 0.149100
2095.45, 0.149039
2096.3, 0.149222
2097.15, 0.149405
2098.0, 0.149557
2098.85, 0.149710
2099.7, 0.149832
2100.55, 0.149984
2101.4, 0.150137
2102.25, 0.150258
2103.1, 0.150411
2103.96, 0.150716
2104.81, 0.150899
2105.67, 0.150990
2106.52, 0.151143
2107.38, 0.151356
2108.24, 0.151631
2109.09, 0.151874
2109.95, 0.152027
2110.81, 0.152301
2111.67, 0.152515
2112.53, 0.152728
2113.39, 0.153003
2114.25, 0.153125
2115.12, 0.153308
2115.98, 0.153643
2116.84, 0.153887
2117.71, 0.154131
2118.58, 0.154375
2119.44, 0.154649
2120.31, 0.154924
2121.18, 0.155106
2122.04, 0.155350
2122.91, 0.155655
2123.78, 0.155930
2124.65, 0.156235
2125.52, 0.156509
2126.4, 0.156753
2127.27, 0.157088
2128.14, 0.157454
2129.02, 0.157698
2129.89, 0.158003
2130.77, 0.158369
2131.64, 0.158613
2132.52, 0.158765
2133.4, 0.159101
2134.27, 0.159497
2135.15, 0.159833
2136.03, 0.160168
2136.91, 0.160381
2137.79, 0.160686
2138.68, 0.160991
2139.56, 0.161266
2140.44, 0.161571
2141.33, 0.161936
2142.21, 0.162241
2143.1, 0.162485
2143.99, 0.162821
2144.87, 0.163156
2145.76, 0.163491
2146.65, 0.163766
2147.54, 0.164040
2148.43, 0.164376
2149.32, 0.164711
2150.21, 0.165016
2151.1, 0.165412
2151.99, 0.165778
2152.89, 0.166022
2153.78, 0.166266
2154.68, 0.166510
2155.57, 0.166723
2156.47, 0.167028
2157.37, 0.167364
2158.27, 0.167669
2159.16, 0.167852
2160.06, 0.168035
2160.96, 0.168279
2161.86, 0.168553
2162.77, 0.168827
2163.67, 0.169071
2164.57, 0.169437
2165.48, 0.169681
2166.38, 0.169864
2167.29, 0.170108
2168.2, 0.170352
2169.1, 0.170535
2170.01, 0.170657
2170.92, 0.170840
2171.83, 0.171084
2172.74, 0.171297
2173.65, 0.171419
2174.56, 0.171602
2175.47, 0.171876
2176.39, 0.172090
2177.3, 0.172273
2178.22, 0.172395
2179.13, 0.172547
2180.05, 0.172730
2180.96, 0.172883
2181.88, 0.173037
2182.8, 0.173160
2183.72, 0.173191
2184.64, 0.173469
2185.56, 0.173685
2186.48, 0.173870
2187.41, 0.174179
2188.33, 0.174302
2189.25, 0.174333
2190.18, 0.174518
2191.1, 0.174518
2192.03, 0.174425
2192.96, 0.174672
2193.89, 0.174919
2194.82, 0.175197
2195.74, 0.175166
2196.68, 0.175197
2197.61, 0.175536
2198.54, 0.175752
2199.47, 0.175598
2200.4, 0.175783
2201.34, 0.176030
2202.28, 0.176184
2203.21, 0.176277
2204.15, 0.176153
2205.08, 0.176092
2206.02, 0.176153
2206.96, 0.176277
2207.9, 0.176554
2208.84, 0.176585
2209.78, 0.176616
2210.73, 0.176740
2211.67, 0.176770
2212.61, 0.176740
2213.56, 0.176956
2214.5, 0.177172
2215.45, 0.177264
2216.4, 0.177295
2217.35, 0.177202
2218.3, 0.177264
2219.24, 0.177449
2220.2, 0.177665
2221.15, 0.177603
2222.1, 0.177357
2223.05, 0.177233
2224.0, 0.177388
2224.96, 0.177573
2225.91, 0.177634
2226.87, 0.177634
2227.83, 0.177511
2228.79, 0.177511
2229.74, 0.177573
2230.7, 0.177573
2231.66, 0.177727
2232.63, 0.177758
2233.59, 0.177573
2234.55, 0.177573
2235.51, 0.177603
2236.48, 0.177480
2237.44, 0.177449
2238.41, 0.177449
2239.38, 0.177326
2240.34, 0.177233
2241.31, 0.177264
2242.28, 0.177295
2243.25, 0.177079
2244.22, 0.176956
2245.19, 0.176986
2246.17, 0.176894
2247.14, 0.176863
2248.12, 0.176863
2249.09, 0.176832
2250.07, 0.176493
2251.04, 0.176246
2252.02, 0.176122
2253.0, 0.176030
2253.98, 0.175937
2254.96, 0.175814
2255.94, 0.175814
2256.92, 0.175721
2257.91, 0.175474
2258.89, 0.175289
2259.88, 0.175135
2260.86, 0.174950
2261.85, 0.174641
2262.83, 0.174518
2263.82, 0.174302
2264.81, 0.173993
2265.8, 0.173808
2266.79, 0.173561
2267.78, 0.173376
2268.78, 0.173315
2269.77, 0.173006
2270.76, 0.172605
2271.76, 0.172389
2272.75, 0.172111
2273.75, 0.171803
2274.75, 0.171494
2275.75, 0.171278
2276.75, 0.171216
2277.75, 0.171031
2278.75, 0.170661
2279.75, 0.170322
2280.75, 0.170044
2281.76, 0.169859
2282.76, 0.169643
2283.77, 0.169334
2284.77, 0.168779
2285.78, 0.168285
2286.79, 0.168100
2287.8, 0.168038
2288.81, 0.167761
2289.82, 0.167329
2290.83, 0.166897
2291.84, 0.166496
2292.86, 0.166125
2293.87, 0.165817
2294.89, 0.165508
2295.91, 0.165076
2296.92, 0.164613
2297.94, 0.164305
2298.96, 0.164058
2299.98, 0.163657
2301.0, 0.163132
2302.02, 0.162762
2303.04, 0.162515
2304.07, 0.162052
2305.09, 0.161404
2306.12, 0.161158
2307.15, 0.160880
2308.17, 0.160479
2309.2, 0.160109
2310.23, 0.159615
2311.26, 0.159152
2312.29, 0.158813
2313.32, 0.158381
2314.35, 0.157980
2315.39, 0.157517
2316.42, 0.157085
2317.46, 0.156653
2318.5, 0.156221
2319.53, 0.155758
2320.57, 0.155141
2321.61, 0.154585
2322.65, 0.154123
2323.69, 0.153598
2324.73, 0.153135
2325.78, 0.152611
2326.82, 0.152179
2327.86, 0.151716
2328.91, 0.151191
2329.96, 0.150482
2331.01, 0.149988
2332.05, 0.149463
2333.1, 0.148754
2334.15, 0.148137
2335.21, 0.147612
2336.26, 0.147057
2337.31, 0.146501
2338.36, 0.145637
2339.42, 0.144835
2340.48, 0.144280
2341.53, 0.143755
2342.59, 0.143169
2343.65, 0.142490
2344.71, 0.141904
2345.77, 0.141225
2346.83, 0.140546
2347.9, 0.139867
2348.96, 0.139127
2350.02, 0.138541
2351.09, 0.137893
2352.16, 0.137245
2353.23, 0.136381
2354.29, 0.135640
2355.36, 0.134992
2356.43, 0.134437
2357.51, 0.133727
2358.58, 0.133048
2359.65, 0.132462
2360.73, 0.131814
2361.8, 0.131074
2362.88, 0.130333
2363.96, 0.129562
2365.03, 0.128790
2366.11, 0.128204
2367.19, 0.127525
2368.27, 0.126877
2369.36, 0.126198
2370.44, 0.125705
2371.53, 0.124995
2372.61, 0.124193
2373.7, 0.123514
2374.78, 0.122990
2375.87, 0.122372
2376.96, 0.121632
2378.05, 0.120860
2379.14, 0.120058
2380.24, 0.119379
2381.33, 0.118762
2382.42, 0.118114
2383.52, 0.117497
2384.61, 0.116849
2385.71, 0.115954
2386.81, 0.115060
2387.91, 0.114257
2389.01, 0.113733
2390.11, 0.113023
2391.22, 0.112190
2392.32, 0.111480
2393.42, 0.110863
2394.53, 0.109845
2395.64, 0.108889
2396.74, 0.108364
2397.85, 0.107593
2398.96, 0.106482
2400.07, 0.105649
2401.18, 0.104877
2402.3, 0.103952
2403.41, 0.103057
2404.52, 0.102162
2405.64, 0.101298
2406.76, 0.100527
2407.88, 0.0997250
2408.99, 0.0987680
2410.11, 0.0979350
2411.23, 0.0970710
2412.36, 0.0961450
2413.48, 0.0953120
2414.6, 0.0946030
2415.73, 0.0937690
2416.85, 0.0929360
2417.98, 0.0921030
2419.11, 0.0913630
2420.24, 0.0907460
2421.37, 0.0900360
2422.5, 0.0895110
2423.64, 0.0890180
2424.77, 0.0884310
2425.9, 0.0878450
2427.04, 0.0872280
2428.18, 0.0870430
2429.31, 0.0869500
2430.45, 0.0867650
2431.59, 0.0865180
2432.73, 0.0862720
2433.88, 0.0863020
2435.02, 0.0862410
2436.16, 0.0862100
2437.31, 0.0863640
2438.45, 0.0864570
2439.6, 0.0866730
2440.75, 0.0868270
2441.9, 0.0869810
2443.05, 0.0872280
2444.2, 0.0875980
2445.35, 0.0878450
2446.51, 0.0880920
2447.67, 0.0884310
2448.82, 0.0886780
2449.98, 0.0889250
2451.14, 0.0891100
2452.3, 0.0893260
2453.46, 0.0897270
2454.62, 0.0900980
2455.78, 0.0902830
2456.94, 0.0905610
2458.11, 0.0908070
2459.28, 0.0912080
2460.44, 0.0915790
2461.61, 0.0918260
2462.78, 0.0921960
2463.95, 0.0924430
2465.12, 0.0925970
2466.3, 0.0927510
2467.47, 0.0930290
2468.65, 0.0932760
2469.82, 0.0934300
2471.0, 0.0935840
2472.18, 0.0938930
2473.36, 0.0940780
2474.54, 0.0941400
2475.72, 0.0942940
2476.9, 0.0944790
2478.08, 0.0945410
2479.27, 0.0945100
2480.46, 0.0945410
2481.64, 0.0944790
2482.83, 0.0944790
2484.02, 0.0945410
2485.21, 0.0946030
2486.4, 0.0946640
2487.6, 0.0946640
2488.79, 0.0944480
2489.99, 0.0943250
2491.18, 0.0942940
2492.38, 0.0942320
2493.58, 0.0941710
2494.78, 0.0938310
2495.98, 0.0935530
2497.18, 0.0934300
2498.39, 0.0933990
2499.59, 0.0933070
2500.8, 0.0931520
2502.01, 0.0930910
2503.21, 0.0928440
2504.42, 0.0924740
2505.63, 0.0921030
2506.84, 0.0917950
2508.06, 0.0915480
2509.27, 0.0913940
2510.49, 0.0910230
2511.7, 0.0907770
2512.92, 0.0905910
2514.14, 0.0902520
2515.36, 0.0898510
2516.58, 0.0895420
2517.8, 0.0892650
2519.03, 0.0889560
2520.25, 0.0885860
2521.48, 0.0883390
2522.7, 0.0878760
2523.93, 0.0874130
2525.16, 0.0870740
2526.39, 0.0867960
2527.62, 0.0863330
2528.86, 0.0858700
2530.09, 0.0854080
2531.33, 0.0847290
2532.56, 0.0842660
2533.8, 0.0841120
2535.04, 0.0836180
2536.28, 0.0830010
2537.52, 0.0828780
2538.76, 0.0827540
2540.01, 0.0824460
2541.25, 0.0820440
2542.5, 0.0814890
2543.75, 0.0813350
2544.99, 0.0812420
2546.24, 0.0810880
2547.49, 0.0808100
2548.75, 0.0807180
2550.0, 0.0805940
2551.26, 0.0804400
2552.51, 0.0802240
2553.77, 0.0804400
2555.03, 0.0807180
2556.29, 0.0807790
2557.55, 0.0809640
2558.81, 0.0809640
2560.08, 0.0802860
2561.34, 0.0796990
2562.61, 0.0798230
2563.88, 0.0802550
2565.14, 0.0809340
2566.41, 0.0815820
2567.68, 0.0813960
2568.96, 0.0808720
2570.23, 0.0813040
2571.51, 0.0818900
2572.78, 0.0811800
2574.06, 0.0815510
2575.34, 0.0820750
2576.62, 0.0817980
2577.9, 0.0822910
2579.18, 0.0827230
2580.47, 0.0824150
2581.75, 0.0824460
2583.04, 0.0818590
2584.32, 0.0819520
2585.61, 0.0827540
2586.9, 0.0825690
2588.2, 0.0828470
2589.49, 0.0832790
2590.78, 0.0837720
2592.08, 0.0835560
2593.37, 0.0811800
2594.67, 0.0791750
2595.97, 0.0812110
2597.27, 0.0834950
2598.57, 0.0843280
2599.88, 0.0841730
2601.18, 0.0837410
2602.49, 0.0834330
2603.79, 0.0827850
2605.1, 0.0819520
2606.41, 0.0824760
2607.72, 0.0832480
2609.03, 0.0833090
2610.35, 0.0835250
2611.66, 0.0838650
2612.98, 0.0837110
2614.3, 0.0835870
2615.62, 0.0825070
2616.94, 0.0817980
2618.26, 0.0825690
2619.58, 0.0819830
2620.91, 0.0821680
2622.23, 0.0834640
2623.56, 0.0836180
2624.89, 0.0830320
2626.22, 0.0817980
2627.55, 0.0819830
2628.88, 0.0816120
2630.21, 0.0806250
2631.55, 0.0814890
2632.89, 0.0818280
2634.22, 0.0816430
2635.56, 0.0819520
2636.9, 0.0821060
2638.25, 0.0818590
2639.59, 0.0816120
2640.93, 0.0813350
2642.28, 0.0809950
2643.63, 0.0808410
2644.98, 0.0802860
2646.33, 0.0801010
2647.68, 0.0802550
2649.03, 0.0802240
2650.39, 0.0797610
2651.74, 0.0788660
2653.1, 0.0786500
2654.46, 0.0785890
2655.82, 0.0782490
2657.18, 0.0783420
2658.54, 0.0776010
2659.9, 0.0770460
2661.27, 0.0769220
2662.64, 0.0765830
2664.01, 0.0748860
2665.38, 0.0732820
2666.74, 0.0730040
2668.12, 0.0737130
2669.49, 0.0722320
2670.87, 0.0717080
2672.24, 0.0734050
2673.62, 0.0734670
2675.0, 0.0723250
2676.38, 0.0710910
2677.76, 0.0708440
2679.15, 0.0707510
2680.54, 0.0712140
2681.92, 0.0709980
2683.31, 0.0703500
2684.7, 0.0698570
2686.09, 0.0693320
2687.48, 0.0689000
2688.88, 0.0684370
2690.27, 0.0678820
2691.67, 0.0670180
2693.07, 0.0654750
2694.47, 0.0647040
2695.87, 0.0647040
2697.27, 0.0646110
2698.67, 0.0641480
2700.08, 0.0632230
2701.49, 0.0624510
2702.9, 0.0620810
2704.31, 0.0613100
2705.72, 0.0603530
2707.13, 0.0595510
2708.54, 0.0583780
2709.96, 0.0569900
2711.38, 0.0565270
2712.8, 0.0567740
2714.22, 0.0563420
2715.64, 0.0556320
2717.06, 0.0546450
2718.49, 0.0532870
2719.91, 0.0514360
2721.34, 0.0509110
2722.77, 0.0506030
2724.2, 0.0493990
2725.63, 0.0490910
2727.07, 0.0489370
2728.5, 0.0482890
2729.94, 0.0473940
2731.38, 0.0465610
2732.82, 0.0455120
2734.26, 0.0443080
2735.7, 0.0434750
2737.15, 0.0427040
2738.59, 0.0411920
2740.04, 0.0398030
2741.49, 0.0392790
2742.94, 0.0390630
2744.39, 0.0384460
2745.84, 0.0376740
2747.3, 0.0369030
2748.76, 0.0361010
2750.21, 0.0352060
2751.67, 0.0342800
2753.14, 0.0331700
2754.6, 0.0317190
2756.06, 0.0309170
2757.53, 0.0306390
2759.0, 0.0299910
2760.46, 0.0292200
2761.94, 0.0282640
2763.41, 0.0274300
2764.88, 0.0268130
2766.36, 0.0260730
2767.83, 0.0252090
2769.31, 0.0244070
2770.79, 0.0236970
2772.27, 0.0231720
2773.76, 0.0226790
2775.24, 0.0220920
2776.73, 0.0214750
2778.22, 0.0208580
2779.71, 0.0202720
2781.2, 0.0196860
2782.69, 0.0190690
2784.18, 0.0184520
2785.68, 0.0178340
2787.18, 0.0173410
2788.68, 0.0169700
2790.18, 0.0166310
2791.68, 0.0161680
2793.19, 0.0157670
2794.69, 0.0153660
2796.2, 0.0149650
2797.71, 0.0145330
2799.22, 0.0141320
2800.73, 0.0137920
2802.24, 0.0133300
2803.76, 0.0129900
2805.28, 0.0127120
2806.8, 0.0124350
2808.32, 0.0122500
2809.84, 0.0120340
2811.36, 0.0118180
2812.89, 0.0115400
2814.42, 0.0112930
2815.94, 0.0111080
2817.48, 0.0108920
2819.01, 0.0107070
2820.54, 0.0106760
2822.08, 0.0105220
2823.61, 0.0103370
2825.15, 0.0101820
2826.69, 0.0100590
2828.23, 0.00996600
2829.78, 0.00981200
2831.32, 0.00959600
2832.87, 0.00953400
2834.42, 0.00953400
2835.97, 0.00941100
2837.52, 0.00928700
2839.08, 0.00919500
2840.63, 0.00916400
2842.19, 0.00907100
2843.75, 0.00904100
2845.31, 0.00904100
2846.87, 0.00897900
2848.44, 0.00897900
2850.0, 0.00888600
2851.57, 0.00879400
2853.14, 0.00879400
2854.71, 0.00894800
2856.28, 0.00894800
2857.86, 0.00882500
2859.43, 0.00870100
2861.01, 0.00864000
2862.59, 0.00870100
2864.17, 0.00873200
2865.76, 0.00876300
2867.34, 0.00873200
2868.93, 0.00870100
2870.52, 0.00867000
2872.11, 0.00867000
2873.7, 0.00867000
2875.29, 0.00870100
2876.89, 0.00876300
2878.49, 0.00879400
2880.08, 0.00891700
2881.69, 0.00894800
2883.29, 0.00891700
2884.89, 0.00888600
2886.5, 0.00897900
2888.11, 0.00897900
2889.72, 0.00901000
2891.33, 0.00910200
2892.94, 0.00919500
2894.56, 0.00928700
2896.17, 0.00928700
2897.79, 0.00938000
2899.42, 0.00950300
2901.04, 0.00956500
2902.66, 0.00965800
2904.29, 0.00968900
2905.92, 0.00975000
2907.55, 0.00978100
2909.18, 0.00987400
2910.81, 0.00993500
2912.45, 0.00996600
2914.08, 0.0100280
2915.72, 0.0100590
2917.36, 0.0101510
2919.01, 0.0101510
2920.65, 0.0101820
2922.3, 0.0102440
2923.94, 0.0103370
2925.59, 0.0103670
2927.25, 0.0103980
2928.9, 0.0103980
2930.56, 0.0103980
2932.21, 0.0105220
2933.87, 0.0106760
2935.53, 0.0106450
2937.2, 0.0107070
2938.86, 0.0107690
2940.53, 0.0108610
2942.2, 0.0108920
2943.87, 0.0108920
2945.54, 0.0109540
2947.22, 0.0110770
2948.89, 0.0111080
2950.57, 0.0111080
2952.25, 0.0111080
2953.93, 0.0110770
2955.62, 0.0112000
2957.3, 0.0112930
2958.99, 0.0113240
2960.68, 0.0113550
2962.37, 0.0113550
2964.07, 0.0114470
2965.76, 0.0115090
2967.46, 0.0114780
2969.16, 0.0115090
2970.86, 0.0115400
2972.56, 0.0115400
2974.27, 0.0116320
2975.98, 0.0117250
2977.69, 0.0118180
2979.4, 0.0118480
2981.11, 0.0117870
2982.83, 0.0118180
2984.54, 0.0118790
2986.26, 0.0119100
2987.98, 0.0119720
2989.71, 0.0120640
2991.43, 0.0120950
2993.16, 0.0121570
2994.89, 0.0122190
2996.62, 0.0122500
2998.35, 0.0122500
3000.09, 0.0122500
3001.83, 0.0122800
3003.57, 0.0123420
3005.31, 0.0124350
3007.05, 0.0123730
3008.79, 0.0124960
3010.54, 0.0126200
3012.29, 0.0125580
3014.04, 0.0124040
3015.8, 0.0124960
3017.55, 0.0125890
3019.31, 0.0125580
3021.07, 0.0126200
3022.83, 0.0128050
3024.59, 0.0127430
3026.36, 0.0126510
3028.13, 0.0126510
3029.9, 0.0127120
3031.67, 0.0127430
3033.44, 0.0126510
3035.22, 0.0126510
3037.0, 0.0127430
3038.78, 0.0128360
3040.56, 0.0128670
3042.34, 0.0128670
3044.13, 0.0129280
3045.92, 0.0129590
3047.71, 0.0128980
3049.5, 0.0128050
3051.3, 0.0128360
3053.09, 0.0128670
3054.89, 0.0128980
3056.69, 0.0129590
3058.5, 0.0129900
3060.3, 0.0130210
3062.11, 0.0130830
3063.92, 0.0130520
3065.73, 0.0129590
3067.55, 0.0129900
3069.36, 0.0130830
3071.18, 0.0131140
3073.0, 0.0131140
3074.82, 0.0132060
3076.65, 0.0132060
3078.48, 0.0132060
3080.31, 0.0132370
3082.14, 0.0132060
3083.97, 0.0132060
3085.8, 0.0132680
3087.64, 0.0132990
3089.48, 0.0133600
3091.33, 0.0134530
3093.17, 0.0134840
3095.02, 0.0135150
3096.87, 0.0135760
3098.72, 0.0136070
3100.57, 0.0136380
3102.43, 0.0137310
3104.28, 0.0138540
3106.14, 0.0139470
3108.01, 0.0140390
3109.87, 0.0141320
3111.74, 0.0141630
3113.61, 0.0141930
3115.48, 0.0142550
3117.35, 0.0143790
3119.23, 0.0145330
3121.1, 0.0146250
3122.98, 0.0147490
3124.87, 0.0149340
3126.75, 0.0150880
3128.64, 0.0152120
3130.53, 0.0153660
3132.42, 0.0154890
3134.31, 0.0156750
3136.21, 0.0157670
3138.11, 0.0158290
3140.01, 0.0160450
3141.91, 0.0162300
3143.82, 0.0164150
3145.73, 0.0165380
3147.64, 0.0166620
3149.55, 0.0168470
3151.46, 0.0169400
3153.38, 0.0170940
3155.3, 0.0172480
3157.22, 0.0173720
3159.14, 0.0174950
3161.07, 0.0175260
3163.0, 0.0175880
3164.93, 0.0176800
3166.86, 0.0177110
3168.8, 0.0177420
3170.74, 0.0178040
3172.68, 0.0178960
3174.62, 0.0179890
3176.56, 0.0180500
3178.51, 0.0181430
3180.46, 0.0182660
3182.42, 0.0183280
3184.37, 0.0183280
3186.33, 0.0184210
3188.29, 0.0184520
3190.25, 0.0183900
3192.21, 0.0184210
3194.18, 0.0184820
3196.15, 0.0184820
3198.12, 0.0184820
3200.09, 0.0184820
3202.07, 0.0185130
3204.05, 0.0185750
3206.03, 0.0186370
3208.02, 0.0187290
3210.0, 0.0187600
3211.99, 0.0187600
3213.98, 0.0187600
3215.98, 0.0187910
3217.97, 0.0188220
3219.97, 0.0188220
3221.97, 0.0188830
3223.98, 0.0190070
3225.98, 0.0190380
3227.99, 0.0190380
3230.0, 0.0190990
3232.02, 0.0190990
3234.03, 0.0191300
3236.05, 0.0192540
3238.07, 0.0192540
3240.1, 0.0192230
3242.12, 0.0192850
3244.15, 0.0193150
3246.18, 0.0193770
3248.22, 0.0195010
3250.25, 0.0195310
3252.29, 0.0195930
3254.33, 0.0196860
3256.38, 0.0197780
3258.43, 0.0198090
3260.47, 0.0198400
3262.53, 0.0199330
3264.58, 0.0199330
3266.64, 0.0200560
3268.7, 0.0201790
3270.76, 0.0202410
3272.82, 0.0202720
3274.89, 0.0203340
3276.96, 0.0203950
3279.04, 0.0204570
3281.11, 0.0204880
3283.19, 0.0205810
3285.27, 0.0207040
3287.35, 0.0207970
3289.44, 0.0208890
3291.53, 0.0209820
3293.62, 0.0211050
3295.71, 0.0211980
3297.81, 0.0212280
3299.91, 0.0213210
3302.01, 0.0214140
3304.11, 0.0215060
3306.22, 0.0215990
3308.33, 0.0216910
3310.44, 0.0218150
3312.56, 0.0219070
3314.68, 0.0220000
3316.8, 0.0221540
3318.92, 0.0222470
3321.05, 0.0223700
3323.18, 0.0224630
3325.31, 0.0225860
3327.44, 0.0226790
3329.58, 0.0227400
3331.72, 0.0228330
3333.86, 0.0228640
3336.01, 0.0229870
3338.16, 0.0232030
3340.31, 0.0232960
3342.46, 0.0233270
3344.61, 0.0234500
3346.77, 0.0235740
3348.94, 0.0237280
3351.1, 0.0239750
3353.27, 0.0240670
3355.44, 0.0240670
3357.61, 0.0241600
3359.79, 0.0243140
3361.97, 0.0244990
3364.15, 0.0245920
3366.33, 0.0246530
3368.52, 0.0247770
3370.71, 0.0249310
3372.9, 0.0250550
3375.1, 0.0252710
3377.3, 0.0253940
3379.5, 0.0255170
3381.71, 0.0257030
3383.91, 0.0258570
3386.12, 0.0259800
3388.34, 0.0261040
3390.55, 0.0262270
3392.77, 0.0263500
3394.99, 0.0264120
3397.22, 0.0265660
3399.45, 0.0267520
3401.68, 0.0268750
3403.91, 0.0270290
3406.15, 0.0272450
3408.39, 0.0274000
3410.63, 0.0275230
3412.87, 0.0276160
3415.12, 0.0278010
3417.37, 0.0279860
3419.63, 0.0281090
3421.88, 0.0282940
3424.14, 0.0284180
3426.41, 0.0285410
3428.67, 0.0287260
3430.94, 0.0289420
3433.21, 0.0291270
3435.49, 0.0292200
3437.77, 0.0294360
3440.05, 0.0296520
3442.33, 0.0298060
3444.62, 0.0299300
3446.91, 0.0301770
3449.2, 0.0303620
3451.5, 0.0305780
3453.8, 0.0308250
3456.1, 0.0310400
3458.41, 0.0311950
3460.72, 0.0314110
3463.03, 0.0316580
3465.34, 0.0319350
3467.66, 0.0321820
3469.98, 0.0323060
3472.31, 0.0324910
3474.63, 0.0328300
3476.96, 0.0330460
3479.3, 0.0332310
3481.64, 0.0335090
3483.97, 0.0337870
3486.32, 0.0340330
3488.66, 0.0342490
3491.01, 0.0345270
3493.36, 0.0348670
3495.72, 0.0350520
3498.08, 0.0352370
3500.44, 0.0355150
3502.81, 0.0357920
3505.18, 0.0360390
3507.55, 0.0363170
3509.92, 0.0365640
3512.3, 0.0368410
3514.68, 0.0370880
3517.06, 0.0373040
3519.45, 0.0376130
3521.84, 0.0379210
3524.24, 0.0381990
3526.64, 0.0385080
3529.04, 0.0388160
3531.44, 0.0390940
3533.85, 0.0394020
3536.26, 0.0396490
3538.67, 0.0399580
3541.09, 0.0402660
3543.51, 0.0405440
3545.93, 0.0408530
3548.36, 0.0411920
3550.79, 0.0414700
3553.22, 0.0416550
3555.66, 0.0419630
3558.1, 0.0423640
3560.54, 0.0426110
3562.99, 0.0428890
3565.44, 0.0431670
3567.9, 0.0434750
3570.35, 0.0438450
3572.81, 0.0441850
3575.28, 0.0444630
3577.75, 0.0447400
3580.22, 0.0450180
3582.69, 0.0452960
3585.17, 0.0455730
3587.65, 0.0458820
3590.14, 0.0461600
3592.62, 0.0464680
3595.11, 0.0467460
3597.61, 0.0470240
3600.11, 0.0473320
3602.61, 0.0475790
3605.11, 0.0478570
3607.62, 0.0481650
3610.14, 0.0485350
3612.65, 0.0488750
3615.17, 0.0491220
3617.69, 0.0493380
3620.22, 0.0496150
3622.75, 0.0499240
3625.28, 0.0501710
3627.82, 0.0505410
3630.36, 0.0509110
3632.9, 0.0512200
3635.45, 0.0514980
3638.0, 0.0517750
3640.56, 0.0521460
3643.12, 0.0524850
3645.68, 0.0527940
3648.24, 0.0530710
3650.81, 0.0533800
3653.39, 0.0537190
3655.96, 0.0540590
3658.54, 0.0544600
3661.13, 0.0547680
3663.71, 0.0550460
3666.3, 0.0553850
3668.9, 0.0556630
3671.5, 0.0559410
3674.1, 0.0562800
3676.7, 0.0566200
3679.31, 0.0568660
3681.93, 0.0570520
3684.54, 0.0573290
3687.17, 0.0576070
3689.79, 0.0578540
3692.42, 0.0581620
3695.05, 0.0585330
3697.69, 0.0587790
3700.32, 0.0589340
3702.97, 0.0591500
3705.61, 0.0593970
3708.27, 0.0596130
3710.92, 0.0597980
3713.58, 0.0600140
3716.24, 0.0601990
3718.91, 0.0604770
3721.58, 0.0606930
3724.25, 0.0608160
3726.93, 0.0609390
3729.61, 0.0611240
3732.29, 0.0612790
3734.98, 0.0614330
3737.67, 0.0616180
3740.37, 0.0617720
3743.07, 0.0618650
3745.78, 0.0620500
3748.49, 0.0621430
3751.2, 0.0621740
3753.91, 0.0622970
3756.63, 0.0623900
3759.36, 0.0625440
3762.09, 0.0626670
3764.82, 0.0627290
3767.55, 0.0628520
3770.29, 0.0629140
3773.04, 0.0630070
3775.78, 0.0631920
3778.54, 0.0633460
3781.29, 0.0634690
3784.05, 0.0636240
3786.82, 0.0637470
3789.59, 0.0639010
3792.36, 0.0640560
3795.13, 0.0642410
3797.92, 0.0644260
3800.7, 0.0646730
3803.49, 0.0649510
3806.28, 0.0651050
3809.08, 0.0652280
3811.88, 0.0654440
3814.68, 0.0656600
3817.49, 0.0659380
3820.31, 0.0661850
3823.12, 0.0664320
3825.94, 0.0666780
3828.77, 0.0668940
3831.6, 0.0670490
3834.43, 0.0672960
3837.27, 0.0675120
3840.11, 0.0677280
3842.96, 0.0679130
3845.81, 0.0680670
3848.67, 0.0682830
3851.53, 0.0684680
3854.39, 0.0686530
3857.26, 0.0689000
3860.13, 0.0690230
3863.01, 0.0691780
3865.89, 0.0693320
3868.77, 0.0694860
3871.66, 0.0696100
3874.55, 0.0696710
3877.45, 0.0697950
3880.35, 0.0699180
3883.26, 0.0700730
3886.17, 0.0701650
3889.09, 0.0702270
3892.01, 0.0703500
3894.93, 0.0704430
3897.86, 0.0705050
3900.79, 0.0705350
3903.73, 0.0705660
3906.67, 0.0705970
3909.62, 0.0706280
3912.57, 0.0706900
3915.52, 0.0707820
3918.48, 0.0707820
3921.45, 0.0708440
3924.42, 0.0709060
3927.39, 0.0709060
3930.37, 0.0709060
3933.35, 0.0709060
3936.34, 0.0708750
3939.33, 0.0708750
3942.32, 0.0708440
3945.32, 0.0708440
3948.33, 0.0708130
3951.34, 0.0708130
3954.35, 0.0708130
3957.37, 0.0707210
3960.39, 0.0706280
3963.42, 0.0706590
3966.45, 0.0706280
3969.49, 0.0705350
3972.53, 0.0704430
3975.58, 0.0704430
3978.63, 0.0703500
3981.68, 0.0702890
3984.75, 0.0701960
3987.81, 0.0700730
3990.88, 0.0699490
3993.95, 0.0698570
3997.03, 0.0697330
4000.12, 0.0696410
4003.21, 0.0694860
4006.3, 0.0693010
4009.4, 0.0691470
4012.5, 0.0689930
4015.61, 0.0688380
4018.72, 0.0686840
4021.84, 0.0685610
4024.96, 0.0683750
4028.09, 0.0682210
4031.22, 0.0680980
4034.36, 0.0679440
4037.5, 0.0677580
4040.65, 0.0675120
4043.8, 0.0673260
4046.96, 0.0671720
4050.12, 0.0670180
4053.29, 0.0668020
4056.46, 0.0665550
4059.64, 0.0663700
4062.82, 0.0661540
4066.0, 0.0659070
4069.19, 0.0656600
4072.39, 0.0653830
4075.59, 0.0651360
4078.8, 0.0649200
4082.01, 0.0646420
4085.23, 0.0643950
4088.45, 0.0641480
4091.68, 0.0638710
4094.91, 0.0635930
4098.15, 0.0633150
4101.39, 0.0631300
4104.63, 0.0628520
4107.89, 0.0626060
4111.14, 0.0623900
4114.41, 0.0621430
4117.67, 0.0618650
4120.95, 0.0616180
4124.23, 0.0613400
4127.51, 0.0610630
4130.8, 0.0608160
4134.09, 0.0606000
4137.39, 0.0603530
4140.7, 0.0600750
4144.01, 0.0598590
4147.32, 0.0596430
4150.64, 0.0593350
4153.97, 0.0590570
4157.3, 0.0588100
4160.64, 0.0585940
4163.98, 0.0583480
4167.33, 0.0580390
4170.68, 0.0578230
4174.04, 0.0575450
4177.4, 0.0572370
4180.77, 0.0569280
4184.14, 0.0565890
4187.52, 0.0563420
4190.91, 0.0560020
4194.3, 0.0556320
4197.69, 0.0553240
4201.1, 0.0550460
4204.5, 0.0547070
4207.92, 0.0543050
4211.34, 0.0539660
4214.76, 0.0536270
4218.19, 0.0532260
4221.62, 0.0527940
4225.06, 0.0523920
4228.51, 0.0521150
4231.96, 0.0517750
4235.42, 0.0513740
4238.88, 0.0510350
4242.35, 0.0507260
4245.83, 0.0505410
4249.31, 0.0504180
4252.79, 0.0502940
4256.28, 0.0500470
4259.78, 0.0497080
4263.29, 0.0493690
4266.79, 0.0491530
4270.31, 0.0488750
4273.83, 0.0486280
4277.35, 0.0483810
4280.89, 0.0481040
4284.42, 0.0478570
4287.97, 0.0476720
4291.52, 0.0474860
4295.07, 0.0473320
4298.63, 0.0471160
4302.2, 0.0469000
4305.78, 0.0467770
4309.35, 0.0466530
4312.94, 0.0465610
4316.53, 0.0465300
4320.13, 0.0464990
4323.73, 0.0464060
4327.34, 0.0462830
4330.96, 0.0461900
4334.58, 0.0461290
4338.21, 0.0460050
4341.84, 0.0459130
4345.48, 0.0458200
4349.12, 0.0457280
4352.77, 0.0456350
4356.43, 0.0455430
4360.1, 0.0454500
4363.76, 0.0454500
4367.44, 0.0454500
4371.12, 0.0454190
4374.81, 0.0453570
4378.51, 0.0453880
4382.21, 0.0453880
4385.92, 0.0453570
4389.63, 0.0453570
4393.35, 0.0453270
4397.08, 0.0452340
4400.81, 0.0451720
4404.55, 0.0451720
4408.29, 0.0451720
4412.04, 0.0450800
4415.8, 0.0449870
4419.57, 0.0448640
4423.34, 0.0447710
4427.12, 0.0446480
4430.9, 0.0445860
4434.69, 0.0445240
4438.49, 0.0444320
4442.29, 0.0444010
4446.1, 0.0443700
4449.92, 0.0443080
4453.74, 0.0443080
4457.57, 0.0442470
4461.41, 0.0441540
4465.25, 0.0441230
4469.1, 0.0440920
4472.95, 0.0441540
4476.82, 0.0440920
4480.69, 0.0440000
4484.56, 0.0439690
4488.44, 0.0438760
4492.33, 0.0438150
4496.23, 0.0437840
4500.13, 0.0437220
4504.04, 0.0436290
4507.96, 0.0435990
4511.88, 0.0435680
4515.81, 0.0435060
4519.75, 0.0434140
4523.69, 0.0433520
4527.65, 0.0433520
4531.6, 0.0432900
4535.57, 0.0431980
4539.54, 0.0431050
4543.52, 0.0429510
4547.5, 0.0426110
4551.5, 0.0421790
4555.5, 0.0416860
4559.5, 0.0410990
4563.52, 0.0405750
4567.54, 0.0401740
4571.56, 0.0398650
4575.6, 0.0396800
4579.64, 0.0396490
4583.69, 0.0398340
4587.75, 0.0400500
4591.81, 0.0402350
4595.88, 0.0404210
4599.96, 0.0406060
4604.04, 0.0408220
4608.14, 0.0409450
4612.24, 0.0410070
4616.34, 0.0410680
4620.46, 0.0410680
4624.58, 0.0410380
4628.71, 0.0409760
4632.84, 0.0409450
4636.99, 0.0409450
4641.14, 0.0410070
4645.3, 0.0410990
4649.47, 0.0412540
4653.64, 0.0414700
4657.82, 0.0415620
4662.01, 0.0416240
4666.21, 0.0416860
4670.41, 0.0416860
4674.62, 0.0415620
4678.84, 0.0414700
4683.07, 0.0413770
4687.3, 0.0412230
4691.54, 0.0410380
4695.79, 0.0408220
4700.05, 0.0405440
4704.31, 0.0402660
4708.59, 0.0399890
4712.87, 0.0397420
4717.15, 0.0394950
4721.45, 0.0393100
4725.76, 0.0391550
4730.07, 0.0390940
4734.39, 0.0390630
4738.72, 0.0391250
4743.05, 0.0393100
4747.39, 0.0395870
4751.75, 0.0399580
4756.1, 0.0403280
4760.47, 0.0406980
4764.85, 0.0410070
4769.23, 0.0412540
4773.62, 0.0415000
4778.02, 0.0417160
4782.43, 0.0419020
4786.85, 0.0419630
4791.27, 0.0419940
4795.7, 0.0419630
4800.14, 0.0419320
4804.59, 0.0419020
4809.05, 0.0418710
4813.51, 0.0419020
4817.99, 0.0419630
4822.47, 0.0420870
4826.96, 0.0422410
4831.46, 0.0424880
4835.96, 0.0428270
4840.48, 0.0432280
4845.0, 0.0438150
4849.54, 0.0445240
4854.08, 0.0452650
4858.63, 0.0460360
4863.18, 0.0468690
4867.75, 0.0477020
4872.33, 0.0485050
4876.91, 0.0493380
4881.5, 0.0502020
4886.1, 0.0509110
4890.71, 0.0515900
4895.33, 0.0522690
4899.96, 0.0529170
4904.59, 0.0535030
4909.24, 0.0540280
4913.89, 0.0545520
4918.55, 0.0550460
4923.22, 0.0555090
4927.9, 0.0558790
4932.59, 0.0562180
4937.29, 0.0565580
4942.0, 0.0568360
4946.71, 0.0571440
4951.44, 0.0574220
4956.17, 0.0576380
4960.91, 0.0578540
4965.67, 0.0581320
4970.43, 0.0583170
4975.2, 0.0584710
4979.98, 0.0586250
4984.76, 0.0587180
4989.56, 0.0587790
4994.37, 0.0587790
4999.18, 0.0587490
5004.01, 0.0586560
5008.84, 0.0585020
5013.69, 0.0580700
5018.54, 0.0574530
5023.4, 0.0567120
5028.28, 0.0559100
5033.16, 0.0552310
5038.05, 0.0550770
5042.95, 0.0555400
5047.86, 0.0563110
5052.78, 0.0570820
5057.71, 0.0576690
5062.65, 0.0581320
5067.6, 0.0584710
5072.56, 0.0587790
5077.53, 0.0589030
5082.5, 0.0589950
5087.49, 0.0591810
5092.49, 0.0593660
5097.5, 0.0594270
5102.51, 0.0594890
5107.54, 0.0595200
5112.58, 0.0595200
5117.62, 0.0595510
5122.68, 0.0595510
5127.75, 0.0595510
5132.82, 0.0594890
5137.91, 0.0593970
5143.01, 0.0592730
5148.12, 0.0590880
5153.23, 0.0591190
5158.36, 0.0590880
5163.5, 0.0590570
5168.65, 0.0589340
5173.81, 0.0587790
5178.98, 0.0586560
5184.15, 0.0585330
5189.34, 0.0583480
5194.54, 0.0581320
5199.75, 0.0578850
5204.98, 0.0577610
5210.21, 0.0574220
5215.45, 0.0571750
5220.7, 0.0572060
5225.96, 0.0570520
5231.23, 0.0568050
5236.52, 0.0564960
5241.81, 0.0562490
5247.12, 0.0560640
5252.44, 0.0559100
5257.76, 0.0556320
5263.1, 0.0553240
5268.45, 0.0550460
5273.81, 0.0547370
5279.18, 0.0544290
5284.56, 0.0541510
5289.95, 0.0537500
5295.36, 0.0535340
5300.77, 0.0533800
5306.2, 0.0531020
5311.63, 0.0528550
5317.08, 0.0526080
5322.54, 0.0523920
5328.01, 0.0521460
5333.49, 0.0518060
5338.98, 0.0514670
5344.49, 0.0509420
5350.0, 0.0504490
5355.53, 0.0503870
5361.07, 0.0502940
5366.62, 0.0500470
5372.18, 0.0497390
5377.75, 0.0494300
5383.34, 0.0490910
5388.93, 0.0487510
5394.54, 0.0484430
5400.16, 0.0481040
5405.79, 0.0476720
5411.44, 0.0472090
5417.09, 0.0464990
5422.76, 0.0458820
5428.43, 0.0459440
5434.12, 0.0457890
5439.83, 0.0453570
5445.54, 0.0449560
5451.26, 0.0445550
5457.0, 0.0439690
5462.75, 0.0431360
5468.52, 0.0427660
5474.29, 0.0423640
5480.08, 0.0418400
5485.88, 0.0415620
5491.69, 0.0410680
5497.51, 0.0404210
5503.35, 0.0398030
5509.2, 0.0392170
5515.06, 0.0385380
5520.93, 0.0378290
5526.82, 0.0372420
5532.71, 0.0366870
5538.63, 0.0360080
5544.55, 0.0352680
5550.49, 0.0344350
5556.44, 0.0337870
5562.4, 0.0332000
5568.37, 0.0325520
5574.36, 0.0316270
5580.36, 0.0308550
5586.37, 0.0305470
5592.4, 0.0301770
5598.44, 0.0295590
5604.49, 0.0290040
5610.56, 0.0285410
5616.63, 0.0281090
5622.73, 0.0278320
5628.83, 0.0274610
5634.95, 0.0269370
5641.08, 0.0263810
5647.23, 0.0263500
5653.39, 0.0263200
5659.56, 0.0263200
5665.74, 0.0263200
5671.94, 0.0260420
5678.15, 0.0259190
5684.38, 0.0259490
5690.62, 0.0258260
5696.87, 0.0258570
5703.14, 0.0257030
5709.42, 0.0253010
5715.72, 0.0252090
5722.03, 0.0252710
5728.35, 0.0252400
5734.69, 0.0251160
5741.03, 0.0249310
5747.4, 0.0246840
5753.78, 0.0246530
5760.17, 0.0240670
5766.58, 0.0233270
5773.0, 0.0236040
5779.44, 0.0236970
5785.88, 0.0234810
5792.35, 0.0231720
5798.83, 0.0228330
5805.32, 0.0225240
5811.83, 0.0219690
5818.35, 0.0210430
5824.89, 0.0205190
5831.45, 0.0203650
5838.01, 0.0201490
5844.59, 0.0197170
5851.19, 0.0191610
5857.8, 0.0185130
5864.43, 0.0179270
5871.07, 0.0174020
5877.73, 0.0164150
5884.4, 0.0159210
5891.09, 0.0156750
5897.79, 0.0151190
5904.5, 0.0150570
5911.23, 0.0148410
5917.98, 0.0144710
5924.75, 0.0141320
5931.53, 0.0136070
5938.32, 0.0133300
5945.13, 0.0137610
5951.96, 0.0140700
5958.8, 0.0142860
5965.65, 0.0143170
5972.53, 0.0146250
5979.42, 0.0150570
5986.32, 0.0152730
5993.24, 0.0157050
6000.18, 0.0162920
6007.13, 0.0165380
6014.1, 0.0167240
6021.08, 0.0171250
6028.09, 0.0175570
6035.1, 0.0178650
6042.14, 0.0175570
6049.19, 0.0172790
6056.25, 0.0182360
6063.34, 0.0187910
6070.44, 0.0187910
6077.55, 0.0191300
6084.69, 0.0196860
6091.84, 0.0199940
6099.0, 0.0201490
6106.19, 0.0200250
6113.39, 0.0198090
6120.61, 0.0202410
6127.84, 0.0207040
6135.09, 0.0207970
6142.36, 0.0207660
6149.65, 0.0207970
6156.95, 0.0207040
6164.27, 0.0207970
6171.61, 0.0209820
6178.97, 0.0206420
6186.34, 0.0203030
6193.73, 0.0206420
6201.14, 0.0207970
6208.57, 0.0207040
6216.01, 0.0206730
6223.47, 0.0206730
6230.95, 0.0206730
6238.45, 0.0206420
6245.97, 0.0206110
6253.5, 0.0205190
6261.06, 0.0204570
6268.63, 0.0203950
6276.21, 0.0203030
6283.82, 0.0202410
6291.45, 0.0201790
6299.1, 0.0200870
6306.76, 0.0200870
6314.44, 0.0200560
6322.14, 0.0200250
6329.86, 0.0199940
6337.6, 0.0196550
6345.35, 0.0194700
6353.13, 0.0199330
6360.92, 0.0200560
6368.74, 0.0198090
6376.57, 0.0199630
6384.43, 0.0202100
6392.3, 0.0203650
6400.19, 0.0203030
6408.1, 0.0195930
6416.03, 0.0194080
6423.98, 0.0202410
6431.95, 0.0206730
6439.94, 0.0210130
6447.95, 0.0212900
6455.98, 0.0214140
6464.03, 0.0215060
6472.1, 0.0214140
6480.19, 0.0213210
6488.31, 0.0209820
6496.44, 0.0211670
6504.59, 0.0220620
6512.76, 0.0224010
6520.95, 0.0223700
6529.16, 0.0227710
6537.4, 0.0229870
6545.65, 0.0229870
6553.92, 0.0229560
6562.22, 0.0229870
6570.54, 0.0227400
6578.88, 0.0229870
6587.23, 0.0232960
6595.61, 0.0234810
6604.02, 0.0236970
6612.44, 0.0237590
6620.89, 0.0236970
6629.35, 0.0231720
6637.84, 0.0228020
6646.35, 0.0235120
6654.88, 0.0240360
6663.44, 0.0239750
6672.01, 0.0237890
6680.61, 0.0235740
6689.23, 0.0238200
6697.88, 0.0240050
6706.54, 0.0237280
6715.23, 0.0235740
6723.94, 0.0237280
6732.67, 0.0238200
6741.42, 0.0238200
6750.2, 0.0237280
6759.0, 0.0236660
6767.82, 0.0234810
6776.67, 0.0231720
6785.54, 0.0227710
6794.44, 0.0227710
6803.35, 0.0231110
6812.29, 0.0232030
6821.26, 0.0228950
6830.24, 0.0227100
6839.25, 0.0228950
6848.29, 0.0227100
6857.35, 0.0220310
6866.43, 0.0218150
6875.54, 0.0223700
6884.67, 0.0224630
6893.82, 0.0223700
6903.0, 0.0222780
6912.2, 0.0222780
6921.43, 0.0222780
6930.69, 0.0222160
6939.96, 0.0221850
6949.27, 0.0219690
6958.59, 0.0215680
6967.95, 0.0217530
6977.33, 0.0219380
6986.73, 0.0218150
6996.16, 0.0217530
7005.61, 0.0217840
7015.09, 0.0216910
7024.6, 0.0215990
7034.13, 0.0214440
7043.69, 0.0211050
7053.27, 0.0211670
7062.88, 0.0213520
7072.52, 0.0213830
7082.18, 0.0213520
7091.87, 0.0213210
7101.58, 0.0212280
7111.32, 0.0211050
7121.09, 0.0210740
7130.88, 0.0210430
7140.71, 0.0208580
7150.56, 0.0207040
7160.43, 0.0205810
7170.33, 0.0203650
7180.27, 0.0204570
7190.23, 0.0204880
7200.21, 0.0202720
7210.23, 0.0201180
7220.27, 0.0201790
7230.34, 0.0200870
7240.44, 0.0199330
7250.56, 0.0197170
7260.72, 0.0195930
7270.9, 0.0193770
7281.12, 0.0191920
7291.36, 0.0191610
7301.63, 0.0190380
7311.93, 0.0188220
7322.25, 0.0186060
7332.61, 0.0183590
7343.0, 0.0181120
7353.41, 0.0179580
7363.86, 0.0178040
7374.33, 0.0175260
7384.83, 0.0172790
7395.37, 0.0170630
7405.93, 0.0168160
7416.53, 0.0165380
7427.15, 0.0163220
7437.81, 0.0160140
7448.5, 0.0157670
7459.22, 0.0154590
7469.96, 0.0151500
7480.74, 0.0149030
7491.55, 0.0146560
7502.39, 0.0143480
7513.27, 0.0140390
7524.17, 0.0137000
7535.11, 0.0133600
7546.08, 0.0130830
7557.08, 0.0127430
7568.11, 0.0124040
7579.17, 0.0120640
7590.27, 0.0117250
7601.4, 0.0114160
7612.56, 0.0110770
7623.76, 0.0107070
7634.98, 0.0103370
7646.24, 0.0100280
7657.54, 0.00968900
7668.87, 0.00934900
7680.23, 0.00904100
7691.62, 0.00870100
7703.05, 0.00839300
7714.51, 0.00802200
7726.01, 0.00765200
7737.54, 0.00731300
7749.11, 0.00700400
7760.71, 0.00666500
7772.35, 0.00635600
7784.02, 0.00607900
7795.72, 0.00570800
7807.46, 0.00540000
7819.23, 0.00509100
7831.04, 0.00475200
7842.89, 0.00444300
7854.77, 0.00416500
7866.69, 0.00391900
7878.65, 0.00364100
7890.64, 0.00336300
7902.67, 0.00314700
7914.74, 0.00290000
7926.84, 0.00268400
7938.98, 0.00246800
7951.16, 0.00225200
7963.37, 0.00216000
7975.62, 0.00206700
7987.91, 0.00194400
8000.24, 0.00188200
8012.6, 0.00197500
8025.01, 0.00209800
8037.45, 0.00222200
8049.93, 0.00246800
8062.45, 0.00290000
8075.01, 0.00345600
8087.61, 0.00425800
8100.24, 0.00536900
8112.91, 0.00675700
8125.63, 0.00857800
8138.39, 0.0108610
8151.18, 0.0136380
8164.02, 0.0170010
8176.9, 0.0210430
8189.81, 0.0257330
8202.77, 0.0311020
8215.77, 0.0372120
8228.82, 0.0441540
8241.9, 0.0519300
8255.02, 0.0604150
8268.19, 0.0695170
8281.39, 0.0790820
8294.65, 0.0887400
8307.94, 0.0979660
8321.28, 0.106019
8334.66, 0.112190
8348.08, 0.116448
8361.54, 0.119133
8375.05, 0.120644
8388.6, 0.121231
8402.2, 0.121015
8415.84, 0.120089
8429.52, 0.118639
8443.25, 0.116942
8457.02, 0.115307
8470.84, 0.113856
8484.7, 0.112869
8498.61, 0.112437
8512.57, 0.112560
8526.57, 0.113177
8540.62, 0.114443
8554.71, 0.116232
8568.85, 0.118515
8583.04, 0.121138
8597.27, 0.123761
8611.55, 0.126013
8625.88, 0.127494
8640.26, 0.127525
8654.68, 0.125736
8669.16, 0.122187
8683.68, 0.117065
8698.25, 0.111110
8712.87, 0.105464
8727.53, 0.100496
8742.25, 0.0960840
8757.02, 0.0921960
8771.83, 0.0888330
8786.7, 0.0861480
8801.62, 0.0843590
8816.59, 0.0839570
8831.61, 0.0854390
8846.68, 0.0885550
8861.8, 0.0924120
8876.97, 0.0960840
8892.2, 0.0988910
8907.48, 0.100403
8922.81, 0.100743
8938.2, 0.100033
8953.63, 0.0987370
8969.13, 0.0971330
8984.67, 0.0954360
9000.27, 0.0937690
9015.92, 0.0921960
9031.63, 0.0905610
9047.39, 0.0888020
9063.21, 0.0869200
9079.08, 0.0849140
9095.01, 0.0826920
9111.0, 0.0803780
9127.04, 0.0780330
9143.13, 0.0755650
9159.28, 0.0730040
9175.49, 0.0704120
9191.76, 0.0677280
9208.09, 0.0650430
9224.47, 0.0624510
9240.92, 0.0599830
9257.42, 0.0578230
9273.98, 0.0559100
9290.6, 0.0540590
9307.28, 0.0524230
9324.02, 0.0509420
9340.82, 0.0496770
9357.68, 0.0484740
9374.6, 0.0473630
9391.58, 0.0463140
9408.62, 0.0453880
9425.73, 0.0445860
9442.9, 0.0438450
9460.13, 0.0431670
9477.42, 0.0425190
9494.78, 0.0420560
9512.2, 0.0416240
9529.69, 0.0411610
9547.24, 0.0408220
9564.86, 0.0405440
9582.54, 0.0402660
9600.28, 0.0399890
9618.1, 0.0396800
9635.97, 0.0394020
9653.92, 0.0391550
9671.93, 0.0389390
9690.01, 0.0387230
9708.16, 0.0385380
9726.37, 0.0383530
9744.65, 0.0381990
9763.0, 0.0380140
9781.43, 0.0377980
9799.92, 0.0375510
9818.48, 0.0372730
9837.1, 0.0369960
9855.8, 0.0365940
9874.58, 0.0361320
9893.42, 0.0356380
9912.34, 0.0351130
9931.33, 0.0342800
9950.39, 0.0331390
9969.52, 0.0316580
9988.74, 0.0296830
10008.0, 0.0276770
10027.4, 0.0277390
10046.8, 0.0307010
10066.3, 0.0334160
10085.9, 0.0342490
10105.6, 0.0346200
10125.3, 0.0349590
10145.1, 0.0351440
10165.0, 0.0352060
10185.0, 0.0351750
10205.0, 0.0351130
10225.2, 0.0349900
10245.4, 0.0347120
10265.7, 0.0344350
10286.0, 0.0343420
10306.5, 0.0343110
10327.0, 0.0342490
10347.6, 0.0340640
10368.3, 0.0337560
10389.1, 0.0335090
10409.9, 0.0332310
10430.9, 0.0330150
10451.9, 0.0327680
10473.0, 0.0324600
10494.2, 0.0321820
10515.5, 0.0318740
10536.9, 0.0315030
10558.4, 0.0310710
10579.9, 0.0307010
10601.5, 0.0304230
10623.3, 0.0300530
10645.1, 0.0296520
10667.0, 0.0292820
10689.0, 0.0288810
10711.1, 0.0285720
10733.2, 0.0282330
10755.5, 0.0278320
10777.9, 0.0274000
10800.3, 0.0270290
10822.9, 0.0266590
10845.5, 0.0261960
10868.2, 0.0257640
10891.1, 0.0253940
10914.0, 0.0249930
10937.0, 0.0244990
10960.2, 0.0239440
10983.4, 0.0233880
11006.7, 0.0228330
11030.1, 0.0223390
11053.6, 0.0218150
11077.3, 0.0212590
11101.0, 0.0207660
11124.8, 0.0202720
11148.7, 0.0196550
11172.7, 0.0191300
11196.9, 0.0186060
11221.1, 0.0180200
11245.4, 0.0175880
11269.9, 0.0173410
11294.4, 0.0170320
11319.1, 0.0166930
11343.9, 0.0164150
11368.8, 0.0161990
11393.7, 0.0161370
11418.8, 0.0160450
11444.0, 0.0160450
11469.4, 0.0160760
11494.8, 0.0160450
11520.3, 0.0160140
11546.0, 0.0160760
11571.8, 0.0161370
11597.7, 0.0161070
11623.7, 0.0160450
11649.8, 0.0160140
11676.0, 0.0160450
11702.4, 0.0161070
11728.9, 0.0162300
11755.5, 0.0164770
11782.2, 0.0167540
11809.0, 0.0169400
11836.0, 0.0171860
11863.0, 0.0175570
11890.3, 0.0178960
11917.6, 0.0181740
11945.0, 0.0184820
11972.6, 0.0188830
12000.4, 0.0192540
12028.2, 0.0195620
12056.2, 0.0197470
12084.3, 0.0198710
12112.5, 0.0199940
12140.9, 0.0200560
12169.4, 0.0200870
12198.0, 0.0200870
12226.8, 0.0201180
12255.7, 0.0200560
12284.7, 0.0199630
12313.9, 0.0197470
12343.2, 0.0195010
12372.7, 0.0193770
12402.3, 0.0192230
12432.0, 0.0190690
12461.9, 0.0188830
12491.9, 0.0186370
12522.1, 0.0185440
12552.4, 0.0183280
12582.9, 0.0180200
12613.5, 0.0179270
12644.3, 0.0177730
12675.2, 0.0174950
12706.3, 0.0173410
12737.5, 0.0173410
12768.9, 0.0173100
12800.4, 0.0170940
12832.1, 0.0169700
12863.9, 0.0169700
12895.9, 0.0168160
12928.1, 0.0166000
12960.4, 0.0166000
12992.9, 0.0167240
13025.5, 0.0167240
13058.3, 0.0166000
13091.3, 0.0165380
13124.4, 0.0166930
13157.8, 0.0168470
13191.2, 0.0169090
13224.9, 0.0169700
13258.7, 0.0170940
13292.7, 0.0173410
13326.9, 0.0175570
13361.2, 0.0177420
13395.7, 0.0181430
13430.4, 0.0184820
13465.3, 0.0187290
13500.4, 0.0190690
13535.7, 0.0194390
13571.1, 0.0197470
13606.7, 0.0199940
13642.5, 0.0201790
13678.5, 0.0203950
13714.7, 0.0207040
13751.1, 0.0209510
13787.6, 0.0211670
13824.4, 0.0213520
13861.4, 0.0214750
13898.5, 0.0215370
13935.9, 0.0215680
13973.5, 0.0216600
14011.2, 0.0218150
14049.2, 0.0217220
14087.4, 0.0215060
14125.8, 0.0214140
14164.3, 0.0215060
14203.2, 0.0215060
14242.2, 0.0214440
14281.4, 0.0213830
14320.9, 0.0213210
14360.5, 0.0212900
14400.4, 0.0211050
14440.5, 0.0211050
14480.9, 0.0213520
14521.4, 0.0214440
14562.2, 0.0214440
14603.3, 0.0214440
14644.5, 0.0214440
14686.0, 0.0216600
14727.7, 0.0218760
14769.7, 0.0219070
14811.9, 0.0220620
14854.3, 0.0225550
14897.0, 0.0231110
14939.9, 0.0235430
14983.1, 0.0241290
15026.5, 0.0250550
15070.2, 0.0259490
15114.2, 0.0267520
15158.3, 0.0274920
15202.8, 0.0281090
15247.5, 0.0285100
15292.5, 0.0290660
15337.7, 0.0296830
15383.2, 0.0300220
15429.0, 0.0304230
15475.1, 0.0312260
15521.4, 0.0321510
15568.0, 0.0333860
15614.9, 0.0349900
15662.1, 0.0366250
15709.6, 0.0379520
15757.3, 0.0386930
15805.4, 0.0392480
15853.7, 0.0397730
15902.3, 0.0402050
15951.2, 0.0404820
16000.5, 0.0407600
16050.0, 0.0413460
16099.8, 0.0420250
16150.0, 0.0424880
16200.5, 0.0428890
16251.3, 0.0434440
16302.4, 0.0437220
16353.8, 0.0431050
16405.5, 0.0415930
16457.6, 0.0400500
16510.0, 0.0387230
16562.8, 0.0373660
16615.9, 0.0362550
16669.3, 0.0355150
16723.1, 0.0354220
16777.2, 0.0354530
16831.7, 0.0352370
16886.5, 0.0350520
16941.7, 0.0349900
16997.2, 0.0348050
17053.1, 0.0344040
17109.4, 0.0343110
17166.1, 0.0342490
17223.1, 0.0339410
17280.5, 0.0338790
17338.3, 0.0339100
17396.5, 0.0336010
17455.1, 0.0332000
17514.0, 0.0329840
17573.4, 0.0331390
17633.2, 0.0329540
17693.4, 0.0326760
17754.0, 0.0323360
17815.0, 0.0323360
17876.4, 0.0321820
17938.3, 0.0317190
18000.5, 0.0316580
18063.3, 0.0315650
18126.4, 0.0313180
18190.0, 0.0310400
18254.1, 0.0311330
18318.6, 0.0307630
18383.5, 0.0301150
18449.0, 0.0297450
18514.9, 0.0295900
18581.2, 0.0295590
18648.0, 0.0295290
18715.4, 0.0292820
18783.2, 0.0288810
18851.5, 0.0284490
18920.3, 0.0282020
18989.6, 0.0280780
19059.4, 0.0278010
19129.7, 0.0274300
19200.6, 0.0274300
19272.0, 0.0272450
19343.9, 0.0269370
19416.3, 0.0270290
19489.3, 0.0269060
19562.8, 0.0265660
19637.0, 0.0261340
19711.6, 0.0259190
19786.8, 0.0258880
19862.6, 0.0255170
19939.0, 0.0250850
20016.0, 0.0246230
20093.6, 0.0243140
20171.8, 0.0240980
20250.6, 0.0237590
20330.0, 0.0232030
20410.0, 0.0230180
20490.7, 0.0229560
20572.0, 0.0225480
20654.0, 0.0225320
20736.6, 0.0228420
20819.9, 0.0229400
20903.8, 0.0227770
20988.5, 0.0231370
21073.8, 0.0237580
21159.8, 0.0239540
21246.5, 0.0241340
21334.0, 0.0243960
21422.1, 0.0244280
21511.0, 0.0241830
21600.7, 0.0239870
21691.0, 0.0236430
21782.1, 0.0237090
21874.0, 0.0235780
21966.7, 0.0230710
22060.2, 0.0227280
22154.5, 0.0227770
22249.6, 0.0236600
22345.5, 0.0249020
22442.2, 0.0258670
22539.8, 0.0267010
22638.2, 0.0275190
22737.5, 0.0280090
22837.7, 0.0284020
22938.7, 0.0287120
23040.7, 0.0287780
23143.5, 0.0289570
23247.3, 0.0292190
23352.1, 0.0292520
23457.7, 0.0290060
23564.4, 0.0287780
23672.0, 0.0287610
23780.5, 0.0284020
23890.1, 0.0281890
24000.7, 0.0281240
24112.3, 0.0278290
24225.0, 0.0270930
24338.7, 0.0264720
24453.5, 0.0268970
24569.4, 0.0268150
24686.4, 0.0269300
24804.5, 0.0265540
24923.8, 0.0260470
25044.2, 0.0264720
25165.8, 0.0269300
25288.6, 0.0270440
25412.5, 0.0269790
25537.7, 0.0268480
25664.1, 0.0268650
25791.8, 0.0268480
25920.8, 0.0264070
26051.1, 0.0259490
26182.6, 0.0255240
26315.5, 0.0250820
26449.8, 0.0244770
26585.4, 0.0239050
26722.5, 0.0235130
26860.9, 0.0232020
27000.8, 0.0226460
27142.1, 0.0220080
27285.0, 0.0215180
27429.4, 0.0212890
27575.3, 0.0208800
27722.7, 0.0204060
27871.8, 0.0197520
28022.4, 0.0192940
28174.7, 0.0189340
28328.7, 0.0182640
28484.4, 0.0177410
28641.7, 0.0173810
28800.9, 0.0168740
28961.8, 0.0163020
29124.5, 0.0160240
29289.0, 0.0156310
29455.4, 0.0150430
29623.8, 0.0148300
29794.0, 0.0147490
29966.3, 0.0149450
30140.5, 0.0154520
30316.7, 0.0160570
30495.1, 0.0171520
30675.5, 0.0190980
30858.1, 0.0215180
31042.8, 0.0242650
31229.8, 0.0273390
31419.1, 0.0304780
31610.7, 0.0333230
31804.6, 0.0355800
32000.9, 0.0367900
32199.7, 0.0376560
32400.9, 0.0380320
32604.8, 0.0377380
32811.1, 0.0369370
33020.1, 0.0358410
33231.8, 0.0346640
33446.2, 0.0332900
33663.4, 0.0318680
33883.4, 0.0303640
34106.3, 0.0288270
34332.1, 0.0276170
34561.0, 0.0263900
34792.9, 0.0252780
35028.0, 0.0242650
35266.3, 0.0231200
35507.8, 0.0219590
35752.7, 0.0212230
36001.0, 0.0207820
36252.8, 0.0205690
36508.1, 0.0202260
36767.0, 0.0202590
37029.7, 0.0211090
37296.1, 0.0221390
37566.3, 0.0227440
37840.5, 0.0238720
38118.8, 0.0250330
38401.2, 0.0254750
38687.8, 0.0253600
38978.6, 0.0250170
39273.9, 0.0247060
39573.7, 0.0243790
39878.1, 0.0241670
40187.3, 0.0241670
40501.2, 0.0245430
40820.0, 0.0257850
41144.0, 0.0272570
41473.2, 0.0287120
41807.6, 0.0302980
42147.5, 0.0316880
42493.0, 0.0330940
42844.2, 0.0349260
43201.2, 0.0371660
43564.3, 0.0395690
43933.5, 0.0422670
44309.0, 0.0452760
44691.0, 0.0478260
45079.6, 0.0498380
45475.0, 0.0509820
45877.5, 0.0511950
46287.1, 0.0508350
46704.2, 0.0501320
47128.7, 0.0494610
47561.1, 0.0498870
48001.5, 0.0520610
48450.1, 0.0566720
48907.2, 0.0621660
49373.0, 0.0701130
49847.7, 0.0775360
50331.5, 0.0830460
50825.0, 0.0879840
51328.2, 0.0913690
51841.5, 0.0939520
52365.1, 0.0949820
52899.4, 0.0945080
53444.8, 0.0931350
54001.5, 0.0910420
54570.1, 0.0883930
55150.6, 0.0850900
55743.6, 0.0814930
56349.5, 0.0778300
56968.7, 0.0747560
57601.7, 0.0721730
58248.9, 0.0688540
58910.9, 0.0653050
59588.1, 0.0624930
60281.0, 0.0595990
60990.2, 0.0573590
61716.3, 0.0561000
62459.8, 0.0561650
63221.6, 0.0581110
64002.1, 0.0615610
64802.1, 0.0640460
65622.1, 0.0650440
66463.4, 0.0654200
67326.6, 0.0663190
68212.4, 0.0668100
69121.9, 0.0658120
70056.0, 0.0638500
71015.7, 0.0631960
72002.0, 0.0661070
73016.3, 0.0715680
74059.4, 0.0769310
75132.7, 0.0808550
76237.6, 0.0835860
77375.5, 0.0859240
78547.9, 0.0875920
79756.3, 0.0875750
81002.5, 0.0876740
82288.5, 0.0899950
83615.7, 0.0917120
84986.5, 0.0927420
86402.9, 0.0932160
87867.4, 0.0921050
89382.4, 0.0904370
90950.5, 0.0883280
92574.6, 0.0856130
94257.2, 0.0909440
96002.7, 0.0990540
97814.1, 0.0851880
99695.1, 0.0798580
101650.0, 0.0785990
103683.0, 0.0787950
105799.0, 0.0821310
108003.0, 0.0860710
110301.0, 0.0890800
112699.0, 0.0899140
115204.0, 0.0882780
117822.0, 0.0876740
120562.0, 0.0878530
123433.0, 0.0899140
126443.0, 0.0906820
129604.0, 0.0906000
132926.0, 0.0894880
136424.0, 0.0873460
140111.0, 0.0823100
144003.0, 0.0872810
148118.0, 0.112249
152474.0, 0.127521
157095.0, 0.126932
162004.0, 0.139359
167231.0, 0.143986
172805.0, 0.147501
178764.0, 0.151982
185148.0, 0.164016
192005.0, 0.177881
199390.0, 0.208310
207366.0, 0.206594
216006.0, 0.244904
