Database of Origin, USGS Spectral Database
Sample Description, See USGS database for additional info
Date Added,2016-08-03 21:09:14.202000

Data ID,USGS_bro04          
Sample ID, brookite_hs443.3823
Mineral Name, brookite
Material Class,Oxide

Wavelength
1607.49, 0.0863660
1607.99, 0.0858530
1608.49, 0.0860580
1608.99, 0.0862120
1609.49, 0.0859040
1609.99, 0.0859550
1610.49, 0.0861090
1610.99, 0.0861090
1611.49, 0.0864690
1611.99, 0.0864180
1612.49, 0.0865200
1612.99, 0.0866740
1613.49, 0.0862120
1614.0, 0.0859550
1614.5, 0.0866230
1615.0, 0.0866740
1615.51, 0.0864690
1616.01, 0.0869310
1616.51, 0.0868800
1617.02, 0.0868280
1617.52, 0.0867260
1618.03, 0.0866740
1618.53, 0.0866740
1619.04, 0.0867770
1619.54, 0.0867770
1620.05, 0.0867260
1620.55, 0.0866230
1621.06, 0.0868280
1621.57, 0.0870340
1622.08, 0.0867770
1622.58, 0.0868800
1623.09, 0.0869820
1623.6, 0.0869820
1624.11, 0.0870340
1624.62, 0.0867260
1625.13, 0.0869310
1625.64, 0.0870850
1626.15, 0.0871880
1626.66, 0.0870850
1627.17, 0.0869310
1627.68, 0.0868280
1628.19, 0.0868280
1628.7, 0.0873420
1629.21, 0.0874960
1629.72, 0.0869820
1630.24, 0.0869820
1630.75, 0.0875990
1631.26, 0.0878550
1631.78, 0.0877530
1632.29, 0.0876500
1632.8, 0.0873420
1633.32, 0.0874450
1633.83, 0.0876500
1634.35, 0.0874450
1634.86, 0.0874450
1635.38, 0.0874450
1635.9, 0.0874960
1636.41, 0.0877530
1636.93, 0.0878550
1637.45, 0.0879070
1637.96, 0.0879580
1638.48, 0.0877530
1639.0, 0.0876500
1639.52, 0.0878040
1640.04, 0.0877530
1640.56, 0.0881120
1641.08, 0.0882150
1641.59, 0.0879070
1642.11, 0.0879070
1642.63, 0.0883170
1643.16, 0.0884200
1643.68, 0.0881630
1644.2, 0.0879070
1644.72, 0.0877010
1645.24, 0.0876500
1645.76, 0.0882660
1646.29, 0.0883690
1646.81, 0.0882150
1647.33, 0.0882150
1647.86, 0.0883170
1648.38, 0.0884710
1648.9, 0.0882150
1649.43, 0.0882660
1649.95, 0.0883690
1650.48, 0.0884710
1651.0, 0.0886770
1651.53, 0.0884710
1652.06, 0.0885230
1652.58, 0.0886260
1653.11, 0.0887280
1653.64, 0.0888820
1654.17, 0.0888820
1654.69, 0.0885740
1655.22, 0.0887800
1655.75, 0.0889850
1656.28, 0.0891390
1656.81, 0.0890880
1657.34, 0.0888310
1657.87, 0.0887280
1658.4, 0.0888310
1658.93, 0.0891390
1659.46, 0.0890880
1659.99, 0.0890360
1660.52, 0.0888310
1661.05, 0.0887280
1661.59, 0.0888820
1662.12, 0.0889850
1662.65, 0.0891900
1663.19, 0.0893960
1663.72, 0.0893440
1664.26, 0.0892930
1664.79, 0.0892420
1665.32, 0.0892930
1665.86, 0.0892930
1666.39, 0.0891390
1666.93, 0.0892930
1667.47, 0.0891900
1668.0, 0.0892930
1668.54, 0.0894980
1669.08, 0.0893960
1669.61, 0.0892420
1670.15, 0.0889850
1670.69, 0.0892930
1671.23, 0.0898060
1671.77, 0.0894980
1672.31, 0.0892420
1672.85, 0.0897040
1673.39, 0.0899610
1673.93, 0.0899090
1674.47, 0.0898060
1675.01, 0.0898580
1675.55, 0.0898060
1676.09, 0.0898060
1676.64, 0.0897550
1677.18, 0.0896520
1677.72, 0.0894470
1678.26, 0.0895500
1678.81, 0.0900120
1679.35, 0.0902690
1679.89, 0.0903200
1680.44, 0.0901660
1680.98, 0.0900630
1681.53, 0.0901660
1682.07, 0.0900120
1682.62, 0.0900120
1683.17, 0.0899090
1683.71, 0.0897550
1684.26, 0.0897550
1684.81, 0.0898060
1685.36, 0.0900630
1685.9, 0.0900120
1686.45, 0.0899610
1687.0, 0.0899090
1687.55, 0.0900120
1688.1, 0.0900630
1688.65, 0.0899090
1689.2, 0.0898580
1689.75, 0.0899090
1690.3, 0.0899090
1690.85, 0.0900120
1691.41, 0.0901150
1691.96, 0.0901150
1692.51, 0.0901660
1693.06, 0.0900630
1693.61, 0.0898580
1694.17, 0.0898580
1694.72, 0.0901660
1695.28, 0.0904230
1695.83, 0.0904230
1696.39, 0.0903200
1696.94, 0.0904740
1697.5, 0.0905770
1698.05, 0.0906280
1698.61, 0.0904230
1699.17, 0.0899610
1699.72, 0.0899610
1700.28, 0.0903710
1700.84, 0.0908330
1701.4, 0.0908850
1701.95, 0.0908850
1702.51, 0.0908850
1703.07, 0.0908850
1703.63, 0.0906790
1704.19, 0.0906790
1704.75, 0.0908850
1705.31, 0.0911420
1705.88, 0.0909360
1706.44, 0.0906790
1707.0, 0.0910390
1707.56, 0.0913980
1708.12, 0.0910900
1708.69, 0.0908850
1709.25, 0.0910900
1709.81, 0.0909360
1710.38, 0.0905770
1710.94, 0.0908330
1711.51, 0.0911930
1712.07, 0.0910900
1712.64, 0.0910390
1713.2, 0.0911930
1713.77, 0.0913470
1714.34, 0.0912960
1714.9, 0.0910900
1715.47, 0.0910900
1716.04, 0.0908850
1716.61, 0.0910390
1717.18, 0.0913470
1717.74, 0.0913470
1718.31, 0.0912960
1718.88, 0.0914500
1719.45, 0.0914500
1720.02, 0.0913980
1720.59, 0.0915010
1721.17, 0.0915520
1721.74, 0.0916550
1722.31, 0.0919630
1722.88, 0.0918600
1723.45, 0.0915010
1724.03, 0.0913470
1724.6, 0.0915520
1725.18, 0.0915520
1725.75, 0.0913470
1726.33, 0.0912440
1726.9, 0.0913470
1727.48, 0.0915520
1728.05, 0.0915010
1728.63, 0.0913980
1729.2, 0.0913980
1729.78, 0.0916550
1730.36, 0.0918090
1730.94, 0.0917060
1731.51, 0.0917060
1732.09, 0.0918090
1732.67, 0.0918090
1733.25, 0.0917580
1733.83, 0.0918600
1734.41, 0.0921170
1734.99, 0.0922200
1735.57, 0.0920140
1736.15, 0.0919120
1736.73, 0.0920660
1737.32, 0.0920660
1737.9, 0.0921680
1738.48, 0.0922710
1739.07, 0.0921170
1739.65, 0.0920140
1740.23, 0.0920140
1740.82, 0.0920660
1741.4, 0.0922710
1741.99, 0.0921680
1742.57, 0.0921680
1743.16, 0.0922710
1743.74, 0.0922710
1744.33, 0.0922710
1744.92, 0.0921170
1745.51, 0.0922200
1746.09, 0.0923740
1746.68, 0.0922710
1747.27, 0.0922200
1747.86, 0.0923230
1748.45, 0.0922710
1749.04, 0.0925790
1749.63, 0.0926820
1750.22, 0.0924250
1750.81, 0.0924250
1751.4, 0.0925280
1751.99, 0.0924250
1752.59, 0.0922710
1753.18, 0.0924250
1753.77, 0.0925280
1754.37, 0.0925280
1754.96, 0.0925790
1755.56, 0.0924250
1756.15, 0.0923230
1756.74, 0.0923230
1757.34, 0.0924250
1757.94, 0.0925790
1758.53, 0.0926310
1759.13, 0.0924770
1759.73, 0.0926310
1760.32, 0.0928870
1760.92, 0.0929900
1761.52, 0.0929900
1762.12, 0.0929390
1762.72, 0.0930410
1763.32, 0.0930410
1763.92, 0.0929900
1764.52, 0.0929390
1765.12, 0.0927850
1765.72, 0.0928360
1766.32, 0.0927850
1766.92, 0.0927850
1767.53, 0.0926820
1768.13, 0.0927330
1768.73, 0.0930410
1769.34, 0.0931950
1769.94, 0.0930930
1770.55, 0.0929900
1771.15, 0.0930930
1771.76, 0.0930410
1772.36, 0.0929390
1772.97, 0.0929390
1773.57, 0.0928870
1774.18, 0.0930930
1774.79, 0.0932470
1775.4, 0.0932980
1776.0, 0.0932470
1776.61, 0.0929900
1777.22, 0.0929900
1777.83, 0.0929390
1778.44, 0.0931440
1779.05, 0.0933490
1779.66, 0.0933490
1780.27, 0.0931440
1780.88, 0.0932470
1781.5, 0.0934010
1782.11, 0.0935550
1782.72, 0.0934010
1783.33, 0.0933490
1783.95, 0.0934520
1784.56, 0.0934520
1785.18, 0.0934010
1785.79, 0.0933490
1786.41, 0.0932980
1787.02, 0.0933490
1787.64, 0.0934010
1788.26, 0.0932980
1788.87, 0.0931950
1789.49, 0.0931950
1790.11, 0.0932470
1790.73, 0.0933490
1791.35, 0.0933490
1791.96, 0.0933490
1792.58, 0.0933490
1793.21, 0.0934520
1793.83, 0.0938630
1794.45, 0.0938120
1795.07, 0.0934520
1795.69, 0.0934520
1796.31, 0.0937600
1796.93, 0.0937090
1797.56, 0.0936580
1798.18, 0.0938630
1798.8, 0.0940170
1799.43, 0.0939660
1800.05, 0.0938120
1800.68, 0.0939660
1801.3, 0.0941200
1801.93, 0.0938630
1802.56, 0.0939140
1803.18, 0.0940680
1803.81, 0.0939140
1804.44, 0.0937090
1805.07, 0.0938120
1805.7, 0.0941200
1806.33, 0.0940680
1806.95, 0.0940680
1807.58, 0.0942220
1808.22, 0.0940170
1808.85, 0.0940170
1809.48, 0.0941200
1810.11, 0.0941200
1810.74, 0.0940170
1811.38, 0.0939660
1812.01, 0.0943760
1812.64, 0.0945300
1813.28, 0.0943760
1813.91, 0.0942220
1814.55, 0.0941710
1815.18, 0.0943250
1815.82, 0.0942220
1816.45, 0.0941200
1817.09, 0.0942740
1817.73, 0.0943760
1818.36, 0.0944280
1819.0, 0.0944280
1819.64, 0.0943760
1820.28, 0.0942220
1820.92, 0.0943760
1821.56, 0.0945820
1822.2, 0.0945820
1822.84, 0.0945820
1823.48, 0.0944790
1824.12, 0.0944790
1824.76, 0.0945820
1825.41, 0.0945820
1826.05, 0.0945300
1826.69, 0.0949410
1827.34, 0.0949410
1827.98, 0.0946330
1828.63, 0.0945300
1829.27, 0.0947360
1829.92, 0.0944280
1830.56, 0.0943250
1831.21, 0.0944790
1831.86, 0.0946330
1832.5, 0.0947870
1833.15, 0.0948390
1833.8, 0.0948390
1834.45, 0.0948390
1835.1, 0.0947870
1835.75, 0.0945300
1836.4, 0.0942740
1837.05, 0.0944790
1837.7, 0.0946330
1838.35, 0.0948900
1839.01, 0.0948900
1839.66, 0.0947870
1840.31, 0.0950950
1840.96, 0.0951980
1841.62, 0.0949930
1842.27, 0.0950950
1842.93, 0.0952490
1843.58, 0.0952490
1844.24, 0.0951470
1844.9, 0.0951980
1845.55, 0.0954030
1846.21, 0.0953010
1846.87, 0.0949410
1847.53, 0.0948390
1848.18, 0.0947870
1848.84, 0.0950950
1849.5, 0.0953010
1850.16, 0.0951980
1850.82, 0.0952490
1851.48, 0.0954030
1852.14, 0.0954030
1852.81, 0.0953010
1853.47, 0.0949930
1854.13, 0.0949410
1854.8, 0.0951980
1855.46, 0.0953010
1856.12, 0.0952490
1856.79, 0.0951470
1857.45, 0.0951980
1858.12, 0.0954550
1858.79, 0.0955570
1859.45, 0.0951980
1860.12, 0.0950440
1860.79, 0.0953520
1861.46, 0.0955570
1862.12, 0.0954030
1862.79, 0.0956090
1863.46, 0.0957110
1864.13, 0.0956090
1864.8, 0.0956090
1865.48, 0.0956600
1866.15, 0.0956600
1866.82, 0.0956090
1867.49, 0.0953010
1868.16, 0.0954030
1868.84, 0.0955060
1869.51, 0.0955060
1870.19, 0.0953520
1870.86, 0.0951980
1871.54, 0.0955060
1872.21, 0.0955060
1872.89, 0.0953520
1873.56, 0.0955570
1874.24, 0.0957630
1874.92, 0.0957110
1875.6, 0.0957630
1876.28, 0.0958140
1876.96, 0.0957110
1877.64, 0.0956600
1878.32, 0.0957110
1879.0, 0.0958140
1879.68, 0.0959170
1880.36, 0.0959170
1881.04, 0.0960200
1881.73, 0.0959170
1882.41, 0.0958140
1883.09, 0.0957630
1883.78, 0.0956600
1884.46, 0.0956600
1885.15, 0.0958140
1885.83, 0.0959170
1886.52, 0.0959680
1887.21, 0.0960710
1887.89, 0.0960710
1888.58, 0.0961220
1889.27, 0.0961220
1889.96, 0.0959170
1890.65, 0.0961740
1891.34, 0.0962250
1892.03, 0.0960200
1892.72, 0.0961220
1893.41, 0.0962760
1894.1, 0.0962760
1894.79, 0.0962250
1895.49, 0.0963280
1896.18, 0.0964820
1896.87, 0.0964300
1897.57, 0.0962760
1898.26, 0.0962250
1898.96, 0.0961740
1899.65, 0.0960710
1900.35, 0.0963790
1901.05, 0.0964820
1901.74, 0.0964300
1902.44, 0.0962760
1903.14, 0.0963790
1903.84, 0.0965330
1904.54, 0.0964820
1905.24, 0.0962760
1905.94, 0.0963790
1906.64, 0.0965840
1907.34, 0.0967380
1908.04, 0.0968920
1908.75, 0.0970460
1909.45, 0.0969440
1910.15, 0.0968920
1910.86, 0.0968920
1911.56, 0.0968410
1912.27, 0.0967380
1912.97, 0.0965840
1913.68, 0.0965840
1914.39, 0.0967900
1915.09, 0.0968920
1915.8, 0.0968920
1916.51, 0.0968920
1917.22, 0.0968920
1917.93, 0.0968410
1918.64, 0.0968410
1919.35, 0.0968410
1920.06, 0.0967900
1920.77, 0.0968410
1921.48, 0.0968410
1922.19, 0.0968920
1922.91, 0.0970460
1923.62, 0.0971490
1924.33, 0.0971490
1925.05, 0.0971490
1925.76, 0.0971490
1926.48, 0.0970460
1927.19, 0.0970460
1927.91, 0.0971490
1928.63, 0.0971490
1929.35, 0.0971490
1930.07, 0.0972520
1930.78, 0.0973550
1931.5, 0.0973550
1932.22, 0.0972520
1932.94, 0.0973030
1933.66, 0.0975090
1934.39, 0.0975090
1935.11, 0.0976110
1935.83, 0.0975600
1936.55, 0.0974060
1937.28, 0.0974570
1938.0, 0.0975090
1938.73, 0.0975600
1939.45, 0.0974060
1940.18, 0.0973550
1940.9, 0.0973550
1941.63, 0.0973550
1942.36, 0.0973030
1943.09, 0.0974060
1943.81, 0.0974060
1944.54, 0.0974570
1945.27, 0.0974570
1946.0, 0.0973550
1946.73, 0.0974060
1947.47, 0.0974570
1948.2, 0.0973550
1948.93, 0.0972010
1949.66, 0.0973030
1950.4, 0.0974570
1951.13, 0.0975090
1951.86, 0.0976110
1952.6, 0.0975090
1953.34, 0.0974060
1954.07, 0.0975090
1954.81, 0.0975090
1955.55, 0.0974060
1956.29, 0.0975090
1957.02, 0.0974570
1957.76, 0.0976630
1958.5, 0.0979190
1959.24, 0.0978170
1959.98, 0.0976630
1960.72, 0.0975600
1961.47, 0.0975600
1962.21, 0.0976110
1962.95, 0.0976630
1963.7, 0.0977140
1964.44, 0.0977140
1965.18, 0.0976630
1965.93, 0.0976110
1966.67, 0.0976110
1967.42, 0.0975600
1968.17, 0.0975600
1968.92, 0.0976110
1969.66, 0.0976110
1970.41, 0.0976110
1971.16, 0.0977140
1971.91, 0.0978170
1972.66, 0.0978680
1973.41, 0.0978680
1974.16, 0.0978170
1974.92, 0.0978170
1975.67, 0.0979710
1976.42, 0.0979190
1977.18, 0.0977650
1977.93, 0.0977650
1978.69, 0.0977140
1979.44, 0.0976110
1980.2, 0.0977650
1980.95, 0.0977650
1981.71, 0.0979190
1982.47, 0.0980220
1983.23, 0.0980220
1983.99, 0.0980730
1984.74, 0.0981760
1985.51, 0.0980730
1986.27, 0.0979190
1987.03, 0.0979710
1987.79, 0.0981760
1988.55, 0.0982270
1989.32, 0.0980730
1990.08, 0.0980730
1990.84, 0.0981760
1991.61, 0.0982270
1992.37, 0.0983300
1993.14, 0.0983300
1993.9, 0.0983300
1994.67, 0.0983810
1995.44, 0.0982790
1996.21, 0.0983300
1996.98, 0.0982270
1997.75, 0.0981250
1998.52, 0.0982790
1999.29, 0.0983300
2000.06, 0.0981760
2000.83, 0.0982790
2001.6, 0.0983300
2002.38, 0.0984330
2003.15, 0.0985870
2003.93, 0.0984330
2004.7, 0.0982790
2005.48, 0.0984840
2006.25, 0.0988440
2007.03, 0.0988440
2007.81, 0.0987920
2008.58, 0.0988440
2009.36, 0.0987920
2010.14, 0.0987410
2010.92, 0.0987920
2011.7, 0.0987920
2012.48, 0.0986900
2013.26, 0.0985870
2014.05, 0.0987920
2014.83, 0.0989460
2015.61, 0.0989460
2016.4, 0.0988950
2017.18, 0.0988950
2017.97, 0.0987920
2018.75, 0.0989980
2019.54, 0.0990490
2020.32, 0.0989460
2021.11, 0.0988950
2021.9, 0.0991520
2022.69, 0.0993060
2023.48, 0.0991000
2024.27, 0.0989460
2025.06, 0.0989460
2025.85, 0.0988950
2026.64, 0.0988440
2027.44, 0.0988950
2028.23, 0.0989980
2029.02, 0.0991520
2029.82, 0.0992540
2030.61, 0.0992030
2031.41, 0.0991520
2032.2, 0.0991000
2033.0, 0.0991000
2033.8, 0.0991520
2034.6, 0.0993060
2035.4, 0.0993060
2036.2, 0.0993060
2037.0, 0.0992030
2037.8, 0.0990490
2038.6, 0.0991000
2039.4, 0.0992030
2040.2, 0.0992540
2041.01, 0.0993060
2041.81, 0.0993060
2042.61, 0.0993570
2043.42, 0.0992540
2044.22, 0.0992030
2045.03, 0.0992540
2045.84, 0.0993060
2046.65, 0.0993060
2047.46, 0.0995110
2048.26, 0.0994600
2049.07, 0.0993570
2049.88, 0.0992540
2050.69, 0.0992540
2051.51, 0.0993570
2052.32, 0.0993060
2053.13, 0.0991000
2053.94, 0.0991000
2054.76, 0.0992540
2055.57, 0.0993570
2056.39, 0.0993060
2057.2, 0.0993060
2058.02, 0.0991520
2058.84, 0.0992030
2059.66, 0.0993060
2060.48, 0.0994080
2061.29, 0.0993570
2062.11, 0.0992030
2062.94, 0.0992540
2063.76, 0.0993060
2064.58, 0.0993570
2065.4, 0.0994080
2066.22, 0.0992540
2067.05, 0.0991520
2067.87, 0.0991520
2068.7, 0.0991520
2069.52, 0.0991520
2070.35, 0.0993060
2071.18, 0.0993570
2072.0, 0.0994600
2072.83, 0.0995110
2073.66, 0.0994600
2074.49, 0.0994080
2075.32, 0.0994080
2076.15, 0.0993060
2076.98, 0.0992540
2077.82, 0.0994080
2078.65, 0.0996650
2079.48, 0.0996140
2080.32, 0.0993570
2081.15, 0.0992030
2081.99, 0.0993060
2082.83, 0.0994600
2083.66, 0.0996650
2084.5, 0.0997680
2085.34, 0.0995620
2086.18, 0.0994080
2087.02, 0.0995110
2087.86, 0.0996650
2088.7, 0.0997680
2089.54, 0.0997680
2090.39, 0.0997680
2091.23, 0.0995110
2092.07, 0.0995620
2092.92, 0.0997680
2093.76, 0.0998190
2094.61, 0.0998710
2095.45, 0.0998710
2096.3, 0.0997680
2097.15, 0.0995110
2098.0, 0.0994080
2098.85, 0.0995110
2099.7, 0.0997680
2100.55, 0.0999730
2101.4, 0.0998710
2102.25, 0.0998710
2103.1, 0.0998710
2103.96, 0.0999220
2104.81, 0.100127
2105.67, 0.100230
2106.52, 0.100076
2107.38, 0.0999220
2108.24, 0.0999220
2109.09, 0.0999730
2109.95, 0.0999730
2110.81, 0.100025
2111.67, 0.100025
2112.53, 0.0999730
2113.39, 0.0999730
2114.25, 0.100025
2115.12, 0.100127
2115.98, 0.100179
2116.84, 0.100179
2117.71, 0.100076
2118.58, 0.100179
2119.44, 0.100230
2120.31, 0.100230
2121.18, 0.100230
2122.04, 0.100179
2122.91, 0.100281
2123.78, 0.100179
2124.65, 0.100127
2125.52, 0.100179
2126.4, 0.100333
2127.27, 0.100435
2128.14, 0.100333
2129.02, 0.100230
2129.89, 0.100127
2130.77, 0.100179
2131.64, 0.100384
2132.52, 0.100538
2133.4, 0.100589
2134.27, 0.100641
2135.15, 0.100487
2136.03, 0.100435
2136.91, 0.100384
2137.79, 0.100333
2138.68, 0.100384
2139.56, 0.100435
2140.44, 0.100435
2141.33, 0.100384
2142.21, 0.100487
2143.1, 0.100589
2143.99, 0.100487
2144.87, 0.100333
2145.76, 0.100384
2146.65, 0.100538
2147.54, 0.100589
2148.43, 0.100641
2149.32, 0.100692
2150.21, 0.100487
2151.1, 0.100435
2151.99, 0.100435
2152.89, 0.100384
2153.78, 0.100281
2154.68, 0.100281
2155.57, 0.100281
2156.47, 0.100384
2157.37, 0.100435
2158.27, 0.100435
2159.16, 0.100487
2160.06, 0.100538
2160.96, 0.100435
2161.86, 0.100281
2162.77, 0.100333
2163.67, 0.100435
2164.57, 0.100333
2165.48, 0.100127
2166.38, 0.100127
2167.29, 0.100230
2168.2, 0.100435
2169.1, 0.100435
2170.01, 0.100333
2170.92, 0.100281
2171.83, 0.100435
2172.74, 0.100435
2173.65, 0.100333
2174.56, 0.100281
2175.47, 0.100384
2176.39, 0.100333
2177.3, 0.100281
2178.22, 0.100281
2179.13, 0.100384
2180.05, 0.100538
2180.96, 0.100487
2181.88, 0.100384
2182.8, 0.100333
2183.72, 0.100281
2184.64, 0.100281
2185.56, 0.100281
2186.48, 0.100281
2187.41, 0.100281
2188.33, 0.100333
2189.25, 0.100179
2190.18, 0.100179
2191.1, 0.100384
2192.03, 0.100281
2192.96, 0.100281
2193.89, 0.100333
2194.82, 0.100435
2195.74, 0.100435
2196.68, 0.100333
2197.61, 0.100281
2198.54, 0.100384
2199.47, 0.100435
2200.4, 0.100435
2201.34, 0.100435
2202.28, 0.100384
2203.21, 0.100384
2204.15, 0.100384
2205.08, 0.100487
2206.02, 0.100435
2206.96, 0.100333
2207.9, 0.100435
2208.84, 0.100487
2209.78, 0.100487
2210.73, 0.100435
2211.67, 0.100384
2212.61, 0.100435
2213.56, 0.100641
2214.5, 0.100846
2215.45, 0.100846
2216.4, 0.100743
2217.35, 0.100692
2218.3, 0.100743
2219.24, 0.100743
2220.2, 0.100795
2221.15, 0.100795
2222.1, 0.100656
2223.05, 0.100518
2224.0, 0.100656
2224.96, 0.100702
2225.91, 0.100471
2226.87, 0.100656
2227.83, 0.100933
2228.79, 0.100980
2229.74, 0.100887
2230.7, 0.100702
2231.66, 0.100795
2232.63, 0.100887
2233.59, 0.100702
2234.55, 0.100610
2235.51, 0.100656
2236.48, 0.100564
2237.44, 0.100425
2238.41, 0.100610
2239.38, 0.100749
2240.34, 0.100795
2241.31, 0.100795
2242.28, 0.100656
2243.25, 0.100702
2244.22, 0.100887
2245.19, 0.100887
2246.17, 0.100980
2247.14, 0.100841
2248.12, 0.100749
2249.09, 0.100702
2250.07, 0.100749
2251.04, 0.100749
2252.02, 0.100702
2253.0, 0.100841
2253.98, 0.100933
2254.96, 0.100841
2255.94, 0.100656
2256.92, 0.100841
2257.91, 0.101072
2258.89, 0.101072
2259.88, 0.101118
2260.86, 0.100980
2261.85, 0.100702
2262.83, 0.100795
2263.82, 0.100795
2264.81, 0.100841
2265.8, 0.101026
2266.79, 0.101072
2267.78, 0.101118
2268.78, 0.101211
2269.77, 0.101165
2270.76, 0.100980
2271.76, 0.100841
2272.75, 0.100933
2273.75, 0.101026
2274.75, 0.100933
2275.75, 0.100841
2276.75, 0.101026
2277.75, 0.101072
2278.75, 0.101026
2279.75, 0.100933
2280.75, 0.100933
2281.76, 0.101257
2282.76, 0.101257
2283.77, 0.101118
2284.77, 0.101303
2285.78, 0.101349
2286.79, 0.100980
2287.8, 0.101072
2288.81, 0.100980
2289.82, 0.100749
2290.83, 0.100656
2291.84, 0.100795
2292.86, 0.100933
2293.87, 0.100841
2294.89, 0.100933
2295.91, 0.101072
2296.92, 0.100980
2297.94, 0.100749
2298.96, 0.100795
2299.98, 0.100795
2301.0, 0.100749
2302.02, 0.100841
2303.04, 0.101257
2304.07, 0.101349
2305.09, 0.100980
2306.12, 0.100841
2307.15, 0.100887
2308.17, 0.101026
2309.2, 0.100933
2310.23, 0.100749
2311.26, 0.100749
2312.29, 0.100749
2313.32, 0.100610
2314.35, 0.100518
2315.39, 0.100610
2316.42, 0.100656
2317.46, 0.100702
2318.5, 0.100702
2319.53, 0.100656
2320.57, 0.100610
2321.61, 0.100702
2322.65, 0.100749
2323.69, 0.100749
2324.73, 0.100656
2325.78, 0.100610
2326.82, 0.100610
2327.86, 0.100702
2328.91, 0.100702
2329.96, 0.100702
2331.01, 0.100656
2332.05, 0.100702
2333.1, 0.100749
2334.15, 0.100749
2335.21, 0.100749
2336.26, 0.100795
2337.31, 0.100749
2338.36, 0.100749
2339.42, 0.100795
2340.48, 0.100795
2341.53, 0.100795
2342.59, 0.100656
2343.65, 0.100610
2344.71, 0.100656
2345.77, 0.100933
2346.83, 0.100795
2347.9, 0.100564
2348.96, 0.100610
2350.02, 0.100702
2351.09, 0.100471
2352.16, 0.100333
2353.23, 0.100518
2354.29, 0.100702
2355.36, 0.100702
2356.43, 0.100702
2357.51, 0.100518
2358.58, 0.100610
2359.65, 0.100795
2360.73, 0.100795
2361.8, 0.100656
2362.88, 0.100702
2363.96, 0.100749
2365.03, 0.100933
2366.11, 0.100887
2367.19, 0.100980
2368.27, 0.100980
2369.36, 0.100933
2370.44, 0.100841
2371.53, 0.100980
2372.61, 0.100749
2373.7, 0.100610
2374.78, 0.100795
2375.87, 0.100841
2376.96, 0.100887
2378.05, 0.100980
2379.14, 0.101026
2380.24, 0.101026
2381.33, 0.100980
2382.42, 0.100841
2383.52, 0.100702
2384.61, 0.100702
2385.71, 0.100749
2386.81, 0.100656
2387.91, 0.100564
2389.01, 0.100702
2390.11, 0.100749
2391.22, 0.100933
2392.32, 0.101165
2393.42, 0.101118
2394.53, 0.101118
2395.64, 0.101072
2396.74, 0.100702
2397.85, 0.100610
2398.96, 0.100795
2400.07, 0.100933
2401.18, 0.100980
2402.3, 0.101072
2403.41, 0.100887
2404.52, 0.100795
2405.64, 0.100749
2406.76, 0.100610
2407.88, 0.100749
2408.99, 0.100749
2410.11, 0.100795
2411.23, 0.100795
2412.36, 0.100610
2413.48, 0.100795
2414.6, 0.101072
2415.73, 0.101118
2416.85, 0.100980
2417.98, 0.100980
2419.11, 0.100980
2420.24, 0.100795
2421.37, 0.100795
2422.5, 0.101026
2423.64, 0.101165
2424.77, 0.101165
2425.9, 0.101118
2427.04, 0.100841
2428.18, 0.100564
2429.31, 0.100702
2430.45, 0.100749
2431.59, 0.100749
2432.73, 0.100841
2433.88, 0.100702
2435.02, 0.100656
2436.16, 0.100656
2437.31, 0.100564
2438.45, 0.100610
2439.6, 0.100887
2440.75, 0.100980
2441.9, 0.100564
2443.05, 0.100379
2444.2, 0.100564
2445.35, 0.100518
2446.51, 0.100471
2447.67, 0.100518
2448.82, 0.100518
2449.98, 0.100564
2451.14, 0.100656
2452.3, 0.100471
2453.46, 0.100379
2454.62, 0.100286
2455.78, 0.100333
2456.94, 0.100610
2458.11, 0.100795
2459.28, 0.100887
2460.44, 0.100425
2461.61, 0.100240
2462.78, 0.100286
2463.95, 0.100333
2465.12, 0.100471
2466.3, 0.100656
2467.47, 0.100564
2468.65, 0.100518
2469.82, 0.100471
2471.0, 0.100425
2472.18, 0.100286
2473.36, 0.100379
2474.54, 0.100518
2475.72, 0.100379
2476.9, 0.100286
2478.08, 0.100333
2479.27, 0.100425
2480.46, 0.100518
2481.64, 0.100333
2482.83, 0.100148
2484.02, 0.100148
2485.21, 0.100194
2486.4, 0.100055
2487.6, 0.100148
2488.79, 0.100194
2489.99, 0.100194
2491.18, 0.100240
2492.38, 0.100379
2493.58, 0.100425
2494.78, 0.100240
2495.98, 0.100286
2497.18, 0.100425
2498.39, 0.100333
2499.59, 0.100194
2500.8, 0.100194
2502.01, 0.100194
2503.21, 0.0998710
2504.42, 0.0998240
2505.63, 0.100009
2506.84, 0.100055
2508.06, 0.100194
2509.27, 0.100240
2510.49, 0.100286
2511.7, 0.100286
2512.92, 0.100286
2514.14, 0.100240
2515.36, 0.100194
2516.58, 0.100194
2517.8, 0.100102
2519.03, 0.100055
2520.25, 0.0999170
2521.48, 0.0999630
2522.7, 0.100148
2523.93, 0.100240
2525.16, 0.100240
2526.39, 0.100194
2527.62, 0.100055
2528.86, 0.100148
2530.09, 0.100240
2531.33, 0.100148
2532.56, 0.100148
2533.8, 0.100240
2535.04, 0.100148
2536.28, 0.100194
2537.52, 0.100194
2538.76, 0.100102
2540.01, 0.100102
2541.25, 0.100102
2542.5, 0.0999630
2543.75, 0.0999170
2544.99, 0.100009
2546.24, 0.100102
2547.49, 0.100055
2548.75, 0.100102
2550.0, 0.100009
2551.26, 0.0999630
2552.51, 0.100055
2553.77, 0.100148
2555.03, 0.100102
2556.29, 0.100055
2557.55, 0.100194
2558.81, 0.100240
2560.08, 0.0996860
2561.34, 0.0993620
2562.61, 0.0993620
2563.88, 0.0993620
2565.14, 0.0997320
2566.41, 0.100148
2567.68, 0.100102
2568.96, 0.0995930
2570.23, 0.0996860
2571.51, 0.0998710
2572.78, 0.0993620
2574.06, 0.0996390
2575.34, 0.0997780
2576.62, 0.0993620
2577.9, 0.0996390
2579.18, 0.0999170
2580.47, 0.0995470
2581.75, 0.0995470
2583.04, 0.0992240
2584.32, 0.0991770
2585.61, 0.0995470
2586.9, 0.0994550
2588.2, 0.0995010
2589.49, 0.0996860
2590.78, 0.0997320
2592.08, 0.0994550
2593.37, 0.0983450
2594.67, 0.0974210
2595.97, 0.0982990
2597.27, 0.0992700
2598.57, 0.0995930
2599.88, 0.0995930
2601.18, 0.0993160
2602.49, 0.0990390
2603.79, 0.0987610
2605.1, 0.0984380
2606.41, 0.0987150
2607.72, 0.0991770
2609.03, 0.0993160
2610.35, 0.0992700
2611.66, 0.0993160
2612.98, 0.0993160
2614.3, 0.0994550
2615.62, 0.0989000
2616.94, 0.0984380
2618.26, 0.0989920
2619.58, 0.0986690
2620.91, 0.0987610
2622.23, 0.0994550
2623.56, 0.0995010
2624.89, 0.0991310
2626.22, 0.0985300
2627.55, 0.0987150
2628.88, 0.0986230
2630.21, 0.0982070
2631.55, 0.0987150
2632.89, 0.0989460
2634.22, 0.0990390
2635.56, 0.0992240
2636.9, 0.0992240
2638.25, 0.0992240
2639.59, 0.0992240
2640.93, 0.0991770
2642.28, 0.0990390
2643.63, 0.0989920
2644.98, 0.0987610
2646.33, 0.0989000
2647.68, 0.0990850
2649.03, 0.0990850
2650.39, 0.0988540
2651.74, 0.0985300
2653.1, 0.0986690
2654.46, 0.0987150
2655.82, 0.0986690
2657.18, 0.0989000
2658.54, 0.0986230
2659.9, 0.0985770
2661.27, 0.0986690
2662.64, 0.0984840
2664.01, 0.0975600
2665.38, 0.0969590
2666.74, 0.0970510
2668.12, 0.0974210
2669.49, 0.0964970
2670.87, 0.0964510
2672.24, 0.0977450
2673.62, 0.0981140
2675.0, 0.0975600
2676.38, 0.0968200
2677.76, 0.0968200
2679.15, 0.0970980
2680.54, 0.0976060
2681.92, 0.0975600
2683.31, 0.0973290
2684.7, 0.0971900
2686.09, 0.0970510
2687.48, 0.0969590
2688.88, 0.0967740
2690.27, 0.0964510
2691.67, 0.0959420
2693.07, 0.0950180
2694.47, 0.0944630
2695.87, 0.0943250
2697.27, 0.0939090
2698.67, 0.0930310
2700.08, 0.0920140
2701.49, 0.0909970
2702.9, 0.0899810
2704.31, 0.0890560
2705.72, 0.0885940
2707.13, 0.0882710
2708.54, 0.0880860
2709.96, 0.0881780
2711.38, 0.0888710
2712.8, 0.0901190
2714.22, 0.0909970
2715.64, 0.0915060
2717.06, 0.0915980
2718.49, 0.0913670
2719.91, 0.0905350
2721.34, 0.0908590
2722.77, 0.0909970
2724.2, 0.0906280
2725.63, 0.0910900
2727.07, 0.0915980
2728.5, 0.0916440
2729.94, 0.0915980
2731.38, 0.0916440
2732.82, 0.0915980
2734.26, 0.0912280
2735.7, 0.0912280
2737.15, 0.0911820
2738.59, 0.0905350
2740.04, 0.0904430
2741.49, 0.0912280
2742.94, 0.0920600
2744.39, 0.0924300
2745.84, 0.0926150
2747.3, 0.0927530
2748.76, 0.0927530
2750.21, 0.0926150
2751.67, 0.0923840
2753.14, 0.0917830
2754.6, 0.0905350
2756.06, 0.0900730
2757.53, 0.0900270
2759.0, 0.0895180
2760.46, 0.0890100
2761.94, 0.0891020
2763.41, 0.0901650
2764.88, 0.0915520
2766.36, 0.0923370
2767.83, 0.0929840
2769.31, 0.0933540
2770.79, 0.0934930
2772.27, 0.0937700
2773.76, 0.0940940
2775.24, 0.0943710
2776.73, 0.0943710
2778.22, 0.0944630
2779.71, 0.0944630
2781.2, 0.0945100
2782.69, 0.0945100
2784.18, 0.0945560
2785.68, 0.0943250
2787.18, 0.0941860
2788.68, 0.0944170
2790.18, 0.0948790
2791.68, 0.0948330
2793.19, 0.0946940
2794.69, 0.0947870
2796.2, 0.0949260
2797.71, 0.0950180
2799.22, 0.0948330
2800.73, 0.0946020
2802.24, 0.0943710
2803.76, 0.0944170
2805.28, 0.0946480
2806.8, 0.0946940
2808.32, 0.0946940
2809.84, 0.0947410
2811.36, 0.0947410
2812.89, 0.0946480
2814.42, 0.0945560
2815.94, 0.0944630
2817.48, 0.0945560
2819.01, 0.0945560
2820.54, 0.0945560
2822.08, 0.0945560
2823.61, 0.0945560
2825.15, 0.0944170
2826.69, 0.0942790
2828.23, 0.0941860
2829.78, 0.0940470
2831.32, 0.0940010
2832.87, 0.0940010
2834.42, 0.0940010
2835.97, 0.0940010
2837.52, 0.0940010
2839.08, 0.0940470
2840.63, 0.0940470
2842.19, 0.0940940
2843.75, 0.0941400
2845.31, 0.0940010
2846.87, 0.0939090
2848.44, 0.0939090
2850.0, 0.0940010
2851.57, 0.0941860
2853.14, 0.0941400
2854.71, 0.0940470
2856.28, 0.0940940
2857.86, 0.0940470
2859.43, 0.0940010
2861.01, 0.0940010
2862.59, 0.0940470
2864.17, 0.0940470
2865.76, 0.0939550
2867.34, 0.0940010
2868.93, 0.0939550
2870.52, 0.0938160
2872.11, 0.0936780
2873.7, 0.0936310
2875.29, 0.0936310
2876.89, 0.0937240
2878.49, 0.0936310
2880.08, 0.0935390
2881.69, 0.0934470
2883.29, 0.0933540
2884.89, 0.0933080
2886.5, 0.0933540
2888.11, 0.0934000
2889.72, 0.0934000
2891.33, 0.0933080
2892.94, 0.0933080
2894.56, 0.0932620
2896.17, 0.0931690
2897.79, 0.0932160
2899.42, 0.0933080
2901.04, 0.0934470
2902.66, 0.0934000
2904.29, 0.0934000
2905.92, 0.0934470
2907.55, 0.0934470
2909.18, 0.0935390
2910.81, 0.0934470
2912.45, 0.0933080
2914.08, 0.0934470
2915.72, 0.0936310
2917.36, 0.0936310
2919.01, 0.0935390
2920.65, 0.0935390
2922.3, 0.0936310
2923.94, 0.0937700
2925.59, 0.0936780
2927.25, 0.0936310
2928.9, 0.0936780
2930.56, 0.0936310
2932.21, 0.0936780
2933.87, 0.0935850
2935.53, 0.0934930
2937.2, 0.0935850
2938.86, 0.0936310
2940.53, 0.0935390
2942.2, 0.0934470
2943.87, 0.0934930
2945.54, 0.0936310
2947.22, 0.0936310
2948.89, 0.0934930
2950.57, 0.0934470
2952.25, 0.0934470
2953.93, 0.0934000
2955.62, 0.0932620
2957.3, 0.0933080
2958.99, 0.0934930
2960.68, 0.0936310
2962.37, 0.0937240
2964.07, 0.0936780
2965.76, 0.0935390
2967.46, 0.0935390
2969.16, 0.0935390
2970.86, 0.0935390
2972.56, 0.0935850
2974.27, 0.0936780
2975.98, 0.0936310
2977.69, 0.0934930
2979.4, 0.0934000
2981.11, 0.0934000
2982.83, 0.0934470
2984.54, 0.0934000
2986.26, 0.0933540
2987.98, 0.0933080
2989.71, 0.0933080
2991.43, 0.0934000
2993.16, 0.0934930
2994.89, 0.0934000
2996.62, 0.0933080
2998.35, 0.0932620
3000.09, 0.0932160
3001.83, 0.0932620
3003.57, 0.0933080
3005.31, 0.0932160
3007.05, 0.0931230
3008.79, 0.0931230
3010.54, 0.0930770
3012.29, 0.0930770
3014.04, 0.0931690
3015.8, 0.0930770
3017.55, 0.0930310
3019.31, 0.0931230
3021.07, 0.0931690
3022.83, 0.0931230
3024.59, 0.0930310
3026.36, 0.0930310
3028.13, 0.0930310
3029.9, 0.0929840
3031.67, 0.0930310
3033.44, 0.0931230
3035.22, 0.0931230
3037.0, 0.0930310
3038.78, 0.0929380
3040.56, 0.0928460
3042.34, 0.0928460
3044.13, 0.0929380
3045.92, 0.0929380
3047.71, 0.0929380
3049.5, 0.0929840
3051.3, 0.0929840
3053.09, 0.0928000
3054.89, 0.0927070
3056.69, 0.0928000
3058.5, 0.0928000
3060.3, 0.0928460
3062.11, 0.0928460
3063.92, 0.0928000
3065.73, 0.0927530
3067.55, 0.0927070
3069.36, 0.0926610
3071.18, 0.0926610
3073.0, 0.0927070
3074.82, 0.0928000
3076.65, 0.0928000
3078.48, 0.0927530
3080.31, 0.0927070
3082.14, 0.0926150
3083.97, 0.0925690
3085.8, 0.0926150
3087.64, 0.0926150
3089.48, 0.0925690
3091.33, 0.0926150
3093.17, 0.0927070
3095.02, 0.0927070
3096.87, 0.0926150
3098.72, 0.0925690
3100.57, 0.0925220
3102.43, 0.0925690
3104.28, 0.0925220
3106.14, 0.0922910
3108.01, 0.0924300
3109.87, 0.0926150
3111.74, 0.0926610
3113.61, 0.0925690
3115.48, 0.0926150
3117.35, 0.0926610
3119.23, 0.0926610
3121.1, 0.0925690
3122.98, 0.0925690
3124.87, 0.0925690
3126.75, 0.0925690
3128.64, 0.0926150
3130.53, 0.0926150
3132.42, 0.0926150
3134.31, 0.0927070
3136.21, 0.0928000
3138.11, 0.0927070
3140.01, 0.0927530
3141.91, 0.0927530
3143.82, 0.0926150
3145.73, 0.0925690
3147.64, 0.0926150
3149.55, 0.0926610
3151.46, 0.0927070
3153.38, 0.0927530
3155.3, 0.0927530
3157.22, 0.0927530
3159.14, 0.0927070
3161.07, 0.0926150
3163.0, 0.0926150
3164.93, 0.0926610
3166.86, 0.0927530
3168.8, 0.0927070
3170.74, 0.0927070
3172.68, 0.0927530
3174.62, 0.0928000
3176.56, 0.0927530
3178.51, 0.0927070
3180.46, 0.0926610
3182.42, 0.0926150
3184.37, 0.0926610
3186.33, 0.0928000
3188.29, 0.0928460
3190.25, 0.0928000
3192.21, 0.0927530
3194.18, 0.0927530
3196.15, 0.0926610
3198.12, 0.0926610
3200.09, 0.0927530
3202.07, 0.0927530
3204.05, 0.0927070
3206.03, 0.0926610
3208.02, 0.0926150
3210.0, 0.0926150
3211.99, 0.0926150
3213.98, 0.0927070
3215.98, 0.0926610
3217.97, 0.0926610
3219.97, 0.0927070
3221.97, 0.0927070
3223.98, 0.0927070
3225.98, 0.0927070
3227.99, 0.0927530
3230.0, 0.0926610
3232.02, 0.0925690
3234.03, 0.0926150
3236.05, 0.0927530
3238.07, 0.0927530
3240.1, 0.0926610
3242.12, 0.0925220
3244.15, 0.0925690
3246.18, 0.0926610
3248.22, 0.0926150
3250.25, 0.0925690
3252.29, 0.0926150
3254.33, 0.0925690
3256.38, 0.0924760
3258.43, 0.0925220
3260.47, 0.0926610
3262.53, 0.0926610
3264.58, 0.0926150
3266.64, 0.0926150
3268.7, 0.0925690
3270.76, 0.0926150
3272.82, 0.0925690
3274.89, 0.0925690
3276.96, 0.0926150
3279.04, 0.0926150
3281.11, 0.0924760
3283.19, 0.0924760
3285.27, 0.0925220
3287.35, 0.0925220
3289.44, 0.0925220
3291.53, 0.0924300
3293.62, 0.0922910
3295.71, 0.0923840
3297.81, 0.0924760
3299.91, 0.0924300
3302.01, 0.0924300
3304.11, 0.0925220
3306.22, 0.0925690
3308.33, 0.0925220
3310.44, 0.0924760
3312.56, 0.0924300
3314.68, 0.0924300
3316.8, 0.0924300
3318.92, 0.0925220
3321.05, 0.0925220
3323.18, 0.0925220
3325.31, 0.0925220
3327.44, 0.0924760
3329.58, 0.0924760
3331.72, 0.0925220
3333.86, 0.0924760
3336.01, 0.0925220
3338.16, 0.0925690
3340.31, 0.0925690
3342.46, 0.0924760
3344.61, 0.0923840
3346.77, 0.0924300
3348.94, 0.0923840
3351.1, 0.0923840
3353.27, 0.0923840
3355.44, 0.0923840
3357.61, 0.0923370
3359.79, 0.0922450
3361.97, 0.0922910
3364.15, 0.0923370
3366.33, 0.0922450
3368.52, 0.0921990
3370.71, 0.0922450
3372.9, 0.0922450
3375.1, 0.0922450
3377.3, 0.0922450
3379.5, 0.0921990
3381.71, 0.0921530
3383.91, 0.0921990
3386.12, 0.0921530
3388.34, 0.0921530
3390.55, 0.0921990
3392.77, 0.0922450
3394.99, 0.0921990
3397.22, 0.0921530
3399.45, 0.0921530
3401.68, 0.0921530
3403.91, 0.0921060
3406.15, 0.0920140
3408.39, 0.0920140
3410.63, 0.0920600
3412.87, 0.0920600
3415.12, 0.0920600
3417.37, 0.0921060
3419.63, 0.0921060
3421.88, 0.0921530
3424.14, 0.0921530
3426.41, 0.0921060
3428.67, 0.0921990
3430.94, 0.0922910
3433.21, 0.0921990
3435.49, 0.0921990
3437.77, 0.0923370
3440.05, 0.0923370
3442.33, 0.0922910
3444.62, 0.0922450
3446.91, 0.0922910
3449.2, 0.0923370
3451.5, 0.0923370
3453.8, 0.0921530
3456.1, 0.0920600
3458.41, 0.0921530
3460.72, 0.0921990
3463.03, 0.0922450
3465.34, 0.0922910
3467.66, 0.0922450
3469.98, 0.0921990
3472.31, 0.0921060
3474.63, 0.0920600
3476.96, 0.0921060
3479.3, 0.0921530
3481.64, 0.0921530
3483.97, 0.0921530
3486.32, 0.0920600
3488.66, 0.0919680
3491.01, 0.0918750
3493.36, 0.0920140
3495.72, 0.0920600
3498.08, 0.0919220
3500.44, 0.0919220
3502.81, 0.0920140
3505.18, 0.0919680
3507.55, 0.0919220
3509.92, 0.0918750
3512.3, 0.0918750
3514.68, 0.0919220
3517.06, 0.0919220
3519.45, 0.0919220
3521.84, 0.0918750
3524.24, 0.0919220
3526.64, 0.0919680
3529.04, 0.0918750
3531.44, 0.0917370
3533.85, 0.0917830
3536.26, 0.0919220
3538.67, 0.0918750
3541.09, 0.0917830
3543.51, 0.0917830
3545.93, 0.0917370
3548.36, 0.0916900
3550.79, 0.0916900
3553.22, 0.0915980
3555.66, 0.0915520
3558.1, 0.0915060
3560.54, 0.0915060
3562.99, 0.0915980
3565.44, 0.0915060
3567.9, 0.0914590
3570.35, 0.0914590
3572.81, 0.0915520
3575.28, 0.0915980
3577.75, 0.0914590
3580.22, 0.0913670
3582.69, 0.0913210
3585.17, 0.0913210
3587.65, 0.0913210
3590.14, 0.0914130
3592.62, 0.0914590
3595.11, 0.0913210
3597.61, 0.0912280
3600.11, 0.0913670
3602.61, 0.0914590
3605.11, 0.0914130
3607.62, 0.0912750
3610.14, 0.0911820
3612.65, 0.0911360
3615.17, 0.0911360
3617.69, 0.0910900
3620.22, 0.0910430
3622.75, 0.0910900
3625.28, 0.0911820
3627.82, 0.0911360
3630.36, 0.0910430
3632.9, 0.0909970
3635.45, 0.0910430
3638.0, 0.0910900
3640.56, 0.0910430
3643.12, 0.0909050
3645.68, 0.0908590
3648.24, 0.0909510
3650.81, 0.0909510
3653.39, 0.0909970
3655.96, 0.0909970
3658.54, 0.0909970
3661.13, 0.0909510
3663.71, 0.0908120
3666.3, 0.0907200
3668.9, 0.0907660
3671.5, 0.0908120
3674.1, 0.0908590
3676.7, 0.0909050
3679.31, 0.0909050
3681.93, 0.0907660
3684.54, 0.0907200
3687.17, 0.0907200
3689.79, 0.0907660
3692.42, 0.0907660
3695.05, 0.0907660
3697.69, 0.0907660
3700.32, 0.0907660
3702.97, 0.0907200
3705.61, 0.0907660
3708.27, 0.0907200
3710.92, 0.0907200
3713.58, 0.0907200
3716.24, 0.0907200
3718.91, 0.0907200
3721.58, 0.0907200
3724.25, 0.0907200
3726.93, 0.0906740
3729.61, 0.0906740
3732.29, 0.0906740
3734.98, 0.0906280
3737.67, 0.0906740
3740.37, 0.0906740
3743.07, 0.0906280
3745.78, 0.0906280
3748.49, 0.0906280
3751.2, 0.0905810
3753.91, 0.0905810
3756.63, 0.0906740
3759.36, 0.0907660
3762.09, 0.0906740
3764.82, 0.0905810
3767.55, 0.0905350
3770.29, 0.0904890
3773.04, 0.0905810
3775.78, 0.0906740
3778.54, 0.0906280
3781.29, 0.0906280
3784.05, 0.0906280
3786.82, 0.0905810
3789.59, 0.0904890
3792.36, 0.0903960
3795.13, 0.0903960
3797.92, 0.0903960
3800.7, 0.0904430
3803.49, 0.0904430
3806.28, 0.0903500
3809.08, 0.0903040
3811.88, 0.0903040
3814.68, 0.0903040
3817.49, 0.0902580
3820.31, 0.0903040
3823.12, 0.0903040
3825.94, 0.0902120
3828.77, 0.0900730
3831.6, 0.0900270
3834.43, 0.0900730
3837.27, 0.0901190
3840.11, 0.0900270
3842.96, 0.0900270
3845.81, 0.0900270
3848.67, 0.0899810
3851.53, 0.0899810
3854.39, 0.0898880
3857.26, 0.0898420
3860.13, 0.0898880
3863.01, 0.0898880
3865.89, 0.0898420
3868.77, 0.0897960
3871.66, 0.0897490
3874.55, 0.0897030
3877.45, 0.0897030
3880.35, 0.0897030
3883.26, 0.0896570
3886.17, 0.0896110
3889.09, 0.0895650
3892.01, 0.0895650
3894.93, 0.0895180
3897.86, 0.0895650
3900.79, 0.0896110
3903.73, 0.0895650
3906.67, 0.0895180
3909.62, 0.0894720
3912.57, 0.0893800
3915.52, 0.0893800
3918.48, 0.0894260
3921.45, 0.0893340
3924.42, 0.0893340
3927.39, 0.0892410
3930.37, 0.0891950
3933.35, 0.0892410
3936.34, 0.0891950
3939.33, 0.0891490
3942.32, 0.0891950
3945.32, 0.0891950
3948.33, 0.0891020
3951.34, 0.0890560
3954.35, 0.0889640
3957.37, 0.0890100
3960.39, 0.0889640
3963.42, 0.0889640
3966.45, 0.0888250
3969.49, 0.0888250
3972.53, 0.0888710
3975.58, 0.0888710
3978.63, 0.0888710
3981.68, 0.0888710
3984.75, 0.0889180
3987.81, 0.0889640
3990.88, 0.0889640
3993.95, 0.0889640
3997.03, 0.0889180
4000.12, 0.0888250
4003.21, 0.0887790
4006.3, 0.0887790
4009.4, 0.0887790
4012.5, 0.0887330
4015.61, 0.0886870
4018.72, 0.0886400
4021.84, 0.0886400
4024.96, 0.0886400
4028.09, 0.0886400
4031.22, 0.0885940
4034.36, 0.0885940
4037.5, 0.0885940
4040.65, 0.0885480
4043.8, 0.0885020
4046.96, 0.0885020
4050.12, 0.0885480
4053.29, 0.0885480
4056.46, 0.0885020
4059.64, 0.0884550
4062.82, 0.0883630
4066.0, 0.0882710
4069.19, 0.0882710
4072.39, 0.0883170
4075.59, 0.0883170
4078.8, 0.0882710
4082.01, 0.0882240
4085.23, 0.0881780
4088.45, 0.0881320
4091.68, 0.0881320
4094.91, 0.0881320
4098.15, 0.0880390
4101.39, 0.0879930
4104.63, 0.0879930
4107.89, 0.0879930
4111.14, 0.0879470
4114.41, 0.0879010
4117.67, 0.0878080
4120.95, 0.0878080
4124.23, 0.0878080
4127.51, 0.0878550
4130.8, 0.0878080
4134.09, 0.0877160
4137.39, 0.0877620
4140.7, 0.0877160
4144.01, 0.0876240
4147.32, 0.0875310
4150.64, 0.0875310
4153.97, 0.0875770
4157.3, 0.0875770
4160.64, 0.0874850
4163.98, 0.0874850
4167.33, 0.0874850
4170.68, 0.0874390
4174.04, 0.0873920
4177.4, 0.0874390
4180.77, 0.0873460
4184.14, 0.0873000
4187.52, 0.0873000
4190.91, 0.0873460
4194.3, 0.0873460
4197.69, 0.0873460
4201.1, 0.0873000
4204.5, 0.0873000
4207.92, 0.0873000
4211.34, 0.0873000
4214.76, 0.0872540
4218.19, 0.0872540
4221.62, 0.0872540
4225.06, 0.0873000
4228.51, 0.0873000
4231.96, 0.0873460
4235.42, 0.0873460
4238.88, 0.0872540
4242.35, 0.0871610
4245.83, 0.0871610
4249.31, 0.0870690
4252.79, 0.0868840
4256.28, 0.0867920
4259.78, 0.0868380
4263.29, 0.0868840
4266.79, 0.0868840
4270.31, 0.0868840
4273.83, 0.0869300
4277.35, 0.0868840
4280.89, 0.0867920
4284.42, 0.0867920
4287.97, 0.0866990
4291.52, 0.0866530
4295.07, 0.0866530
4298.63, 0.0866070
4302.2, 0.0866070
4305.78, 0.0866070
4309.35, 0.0865610
4312.94, 0.0865140
4316.53, 0.0864220
4320.13, 0.0862370
4323.73, 0.0862370
4327.34, 0.0862830
4330.96, 0.0862370
4334.58, 0.0861450
4338.21, 0.0861450
4341.84, 0.0861910
4345.48, 0.0861910
4349.12, 0.0862370
4352.77, 0.0860980
4356.43, 0.0859140
4360.1, 0.0859140
4363.76, 0.0859140
4367.44, 0.0859140
4371.12, 0.0858670
4374.81, 0.0858210
4378.51, 0.0858210
4382.21, 0.0858670
4385.92, 0.0857750
4389.63, 0.0857290
4393.35, 0.0856830
4397.08, 0.0856360
4400.81, 0.0856360
4404.55, 0.0856360
4408.29, 0.0856360
4412.04, 0.0855440
4415.8, 0.0854980
4419.57, 0.0854510
4423.34, 0.0854510
4427.12, 0.0854050
4430.9, 0.0854050
4434.69, 0.0854510
4438.49, 0.0854510
4442.29, 0.0853590
4446.1, 0.0852670
4449.92, 0.0852670
4453.74, 0.0852670
4457.57, 0.0852200
4461.41, 0.0851740
4465.25, 0.0851280
4469.1, 0.0850360
4472.95, 0.0850820
4476.82, 0.0851280
4480.69, 0.0850820
4484.56, 0.0849890
4488.44, 0.0849890
4492.33, 0.0849890
4496.23, 0.0849430
4500.13, 0.0848040
4504.04, 0.0848510
4507.96, 0.0849430
4511.88, 0.0848510
4515.81, 0.0848040
4519.75, 0.0848040
4523.69, 0.0848510
4527.65, 0.0848510
4531.6, 0.0848510
4535.57, 0.0847580
4539.54, 0.0847120
4543.52, 0.0846660
4547.5, 0.0846200
4551.5, 0.0845270
4555.5, 0.0845730
4559.5, 0.0846660
4563.52, 0.0846200
4567.54, 0.0845730
4571.56, 0.0845730
4575.6, 0.0845270
4579.64, 0.0844810
4583.69, 0.0845270
4587.75, 0.0845730
4591.81, 0.0845270
4595.88, 0.0843890
4599.96, 0.0843420
4604.04, 0.0842960
4608.14, 0.0842500
4612.24, 0.0841570
4616.34, 0.0841110
4620.46, 0.0841570
4624.58, 0.0842040
4628.71, 0.0841570
4632.84, 0.0841570
4636.99, 0.0841110
4641.14, 0.0840190
4645.3, 0.0839260
4649.47, 0.0839260
4653.64, 0.0838340
4657.82, 0.0837420
4662.01, 0.0836490
4666.21, 0.0836030
4670.41, 0.0836030
4674.62, 0.0834640
4678.84, 0.0835100
4683.07, 0.0835570
4687.3, 0.0834640
4691.54, 0.0835100
4695.79, 0.0835100
4700.05, 0.0834640
4704.31, 0.0834180
4708.59, 0.0834640
4712.87, 0.0833720
4717.15, 0.0833260
4721.45, 0.0832790
4725.76, 0.0832790
4730.07, 0.0831870
4734.39, 0.0831870
4738.72, 0.0830940
4743.05, 0.0830480
4747.39, 0.0830020
4751.75, 0.0830020
4756.1, 0.0829100
4760.47, 0.0828630
4764.85, 0.0828170
4769.23, 0.0828170
4773.62, 0.0828170
4778.02, 0.0827710
4782.43, 0.0827250
4786.85, 0.0826790
4791.27, 0.0827250
4795.7, 0.0826320
4800.14, 0.0825400
4804.59, 0.0824940
4809.05, 0.0824940
4813.51, 0.0824470
4817.99, 0.0823550
4822.47, 0.0823550
4826.96, 0.0823550
4831.46, 0.0823090
4835.96, 0.0823090
4840.48, 0.0822160
4845.0, 0.0821240
4849.54, 0.0820320
4854.08, 0.0820320
4858.63, 0.0819850
4863.18, 0.0818930
4867.75, 0.0817540
4872.33, 0.0817540
4876.91, 0.0817540
4881.5, 0.0817080
4886.1, 0.0816620
4890.71, 0.0815230
4895.33, 0.0814770
4899.96, 0.0814770
4904.59, 0.0813380
4909.24, 0.0812460
4913.89, 0.0812000
4918.55, 0.0811530
4923.22, 0.0811070
4927.9, 0.0810150
4932.59, 0.0809220
4937.29, 0.0808300
4942.0, 0.0807840
4946.71, 0.0807380
4951.44, 0.0806450
4956.17, 0.0805990
4960.91, 0.0805530
4965.67, 0.0804140
4970.43, 0.0803220
4975.2, 0.0802290
4979.98, 0.0802290
4984.76, 0.0801830
4989.56, 0.0800910
4994.37, 0.0799980
4999.18, 0.0799520
5004.01, 0.0799060
5008.84, 0.0799060
5013.69, 0.0798130
5018.54, 0.0796750
5023.4, 0.0796750
5028.28, 0.0796750
5033.16, 0.0797210
5038.05, 0.0796280
5042.95, 0.0794900
5047.86, 0.0795820
5052.78, 0.0796280
5057.71, 0.0795360
5062.65, 0.0794440
5067.6, 0.0794440
5072.56, 0.0794440
5077.53, 0.0793970
5082.5, 0.0793050
5087.49, 0.0792590
5092.49, 0.0792120
5097.5, 0.0791660
5102.51, 0.0791660
5107.54, 0.0791660
5112.58, 0.0791200
5117.62, 0.0790740
5122.68, 0.0790740
5127.75, 0.0790740
5132.82, 0.0789810
5137.91, 0.0788890
5143.01, 0.0787970
5148.12, 0.0787970
5153.23, 0.0788890
5158.36, 0.0788430
5163.5, 0.0788430
5168.65, 0.0787970
5173.81, 0.0787040
5178.98, 0.0786580
5184.15, 0.0786580
5189.34, 0.0786580
5194.54, 0.0786120
5199.75, 0.0784730
5204.98, 0.0783810
5210.21, 0.0781960
5215.45, 0.0781490
5220.7, 0.0782420
5225.96, 0.0781960
5231.23, 0.0780570
5236.52, 0.0779650
5241.81, 0.0779180
5247.12, 0.0777800
5252.44, 0.0776410
5257.76, 0.0775950
5263.1, 0.0775020
5268.45, 0.0774100
5273.81, 0.0773180
5279.18, 0.0773180
5284.56, 0.0772250
5289.95, 0.0769480
5295.36, 0.0768550
5300.77, 0.0769480
5306.2, 0.0768550
5311.63, 0.0768090
5317.08, 0.0767630
5322.54, 0.0766710
5328.01, 0.0766240
5333.49, 0.0765780
5338.98, 0.0765320
5344.49, 0.0763470
5350.0, 0.0761620
5355.53, 0.0763010
5361.07, 0.0763930
5366.62, 0.0763930
5372.18, 0.0764400
5377.75, 0.0765320
5383.34, 0.0765320
5388.93, 0.0765780
5394.54, 0.0765320
5400.16, 0.0765780
5405.79, 0.0766710
5411.44, 0.0766240
5417.09, 0.0763470
5422.76, 0.0762080
5428.43, 0.0765320
5434.12, 0.0766710
5439.83, 0.0766710
5445.54, 0.0766240
5451.26, 0.0765780
5457.0, 0.0764400
5462.75, 0.0761620
5468.52, 0.0762080
5474.29, 0.0762550
5480.08, 0.0761620
5485.88, 0.0763010
5491.69, 0.0762550
5497.51, 0.0762080
5503.35, 0.0760700
5509.2, 0.0760240
5515.06, 0.0758850
5520.93, 0.0757460
5526.82, 0.0756540
5532.71, 0.0757460
5538.63, 0.0757460
5544.55, 0.0755610
5550.49, 0.0752380
5556.44, 0.0751920
5562.4, 0.0753300
5568.37, 0.0752840
5574.36, 0.0749140
5580.36, 0.0747760
5586.37, 0.0750990
5592.4, 0.0751920
5598.44, 0.0750070
5604.49, 0.0749610
5610.56, 0.0749140
5616.63, 0.0748680
5622.73, 0.0749140
5628.83, 0.0748680
5634.95, 0.0745450
5641.08, 0.0742210
5647.23, 0.0744990
5653.39, 0.0746370
5659.56, 0.0748220
5665.74, 0.0749610
5671.94, 0.0746830
5678.15, 0.0746370
5684.38, 0.0747760
5690.62, 0.0746830
5696.87, 0.0746830
5703.14, 0.0744990
5709.42, 0.0741290
5715.72, 0.0742210
5722.03, 0.0744060
5728.35, 0.0744520
5734.69, 0.0743600
5741.03, 0.0743140
5747.4, 0.0741290
5753.78, 0.0741750
5760.17, 0.0736200
5766.58, 0.0730660
5773.0, 0.0736200
5779.44, 0.0738980
5785.88, 0.0738980
5792.35, 0.0738510
5798.83, 0.0737130
5805.32, 0.0736670
5811.83, 0.0733890
5818.35, 0.0726500
5824.89, 0.0725110
5831.45, 0.0729730
5838.01, 0.0731580
5844.59, 0.0731580
5851.19, 0.0730200
5857.8, 0.0727420
5864.43, 0.0725110
5871.07, 0.0724190
5877.73, 0.0713560
5884.4, 0.0713100
5891.09, 0.0715410
5897.79, 0.0713560
5904.5, 0.0720490
5911.23, 0.0722340
5917.98, 0.0720950
5924.75, 0.0719100
5931.53, 0.0709860
5938.32, 0.0705700
5945.13, 0.0714020
5951.96, 0.0716790
5958.8, 0.0716330
5965.65, 0.0711250
5972.53, 0.0710790
5979.42, 0.0712630
5986.32, 0.0708940
5993.24, 0.0709860
6000.18, 0.0713100
6007.13, 0.0711250
6014.1, 0.0708940
6021.08, 0.0710790
6028.09, 0.0711250
6035.1, 0.0708480
6042.14, 0.0697850
6049.19, 0.0688600
6056.25, 0.0699230
6063.34, 0.0703390
6070.44, 0.0698310
6077.55, 0.0699690
6084.69, 0.0704320
6091.84, 0.0704780
6099.0, 0.0703390
6106.19, 0.0697380
6113.39, 0.0690910
6120.61, 0.0695540
6127.84, 0.0700160
6135.09, 0.0697850
6142.36, 0.0696000
6149.65, 0.0694610
6156.95, 0.0691840
6164.27, 0.0691840
6171.61, 0.0693220
6178.97, 0.0686750
6186.34, 0.0683060
6193.73, 0.0687680
6201.14, 0.0689990
6208.57, 0.0689530
6216.01, 0.0688600
6223.47, 0.0688140
6230.95, 0.0687680
6238.45, 0.0686750
6245.97, 0.0686750
6253.5, 0.0686290
6261.06, 0.0685830
6268.63, 0.0685370
6276.21, 0.0685830
6283.82, 0.0686290
6291.45, 0.0685830
6299.1, 0.0685370
6306.76, 0.0684440
6314.44, 0.0684440
6322.14, 0.0684440
6329.86, 0.0683980
6337.6, 0.0677970
6345.35, 0.0674740
6353.13, 0.0680750
6360.92, 0.0681210
6368.74, 0.0677970
6376.57, 0.0679820
6384.43, 0.0680750
6392.3, 0.0680280
6400.19, 0.0677510
6408.1, 0.0665500
6416.03, 0.0660870
6423.98, 0.0670120
6431.95, 0.0673350
6439.94, 0.0675200
6447.95, 0.0675660
6455.98, 0.0675200
6464.03, 0.0674740
6472.1, 0.0671040
6480.19, 0.0665960
6488.31, 0.0658560
6496.44, 0.0658100
6504.59, 0.0665500
6512.76, 0.0666880
6520.95, 0.0663650
6529.16, 0.0665500
6537.4, 0.0665500
6545.65, 0.0662720
6553.92, 0.0659490
6562.22, 0.0657180
6570.54, 0.0651630
6578.88, 0.0653480
6587.23, 0.0655790
6595.61, 0.0656250
6604.02, 0.0658100
6612.44, 0.0656710
6620.89, 0.0654400
6629.35, 0.0647010
6637.84, 0.0641460
6646.35, 0.0649320
6654.88, 0.0655330
6663.44, 0.0653020
6672.01, 0.0649320
6680.61, 0.0647010
6689.23, 0.0649320
6697.88, 0.0651170
6706.54, 0.0647470
6715.23, 0.0645620
6723.94, 0.0646550
6732.67, 0.0647470
6741.42, 0.0648400
6750.2, 0.0647470
6759.0, 0.0646550
6767.82, 0.0644240
6776.67, 0.0640540
6785.54, 0.0636380
6794.44, 0.0636840
6803.35, 0.0641000
6812.29, 0.0641000
6821.26, 0.0636840
6830.24, 0.0636380
6839.25, 0.0638690
6848.29, 0.0634990
6857.35, 0.0626210
6866.43, 0.0624360
6875.54, 0.0631760
6884.67, 0.0633140
6893.82, 0.0631760
6903.0, 0.0629450
6912.2, 0.0628520
6921.43, 0.0628060
6930.69, 0.0627600
6939.96, 0.0626210
6949.27, 0.0622980
6958.59, 0.0617430
6967.95, 0.0619280
6977.33, 0.0621130
6986.73, 0.0619740
6996.16, 0.0618820
7005.61, 0.0618820
7015.09, 0.0616970
7024.6, 0.0615120
7034.13, 0.0612350
7043.69, 0.0607260
7053.27, 0.0608190
7062.88, 0.0610960
7072.52, 0.0610040
7082.18, 0.0609580
7091.87, 0.0608650
7101.58, 0.0606800
7111.32, 0.0605420
7121.09, 0.0604490
7130.88, 0.0603110
7140.71, 0.0600330
7150.56, 0.0599870
7160.43, 0.0598950
7170.33, 0.0596640
7180.27, 0.0597100
7190.23, 0.0597100
7200.21, 0.0595250
7210.23, 0.0593400
7220.27, 0.0593860
7230.34, 0.0592940
7240.44, 0.0591090
7250.56, 0.0589700
7260.72, 0.0588780
7270.9, 0.0586470
7281.12, 0.0584620
7291.36, 0.0583230
7301.63, 0.0582310
7311.93, 0.0581380
7322.25, 0.0580000
7332.61, 0.0577690
7343.0, 0.0575840
7353.41, 0.0574910
7363.86, 0.0574450
7374.33, 0.0573990
7384.83, 0.0572600
7395.37, 0.0570290
7405.93, 0.0568910
7416.53, 0.0567520
7427.15, 0.0566600
7437.81, 0.0566130
7448.5, 0.0565210
7459.22, 0.0562900
7469.96, 0.0561970
7480.74, 0.0560590
7491.55, 0.0559200
7502.39, 0.0558280
7513.27, 0.0557350
7524.17, 0.0556430
7535.11, 0.0555970
7546.08, 0.0555040
7557.08, 0.0553660
7568.11, 0.0551340
7579.17, 0.0549500
7590.27, 0.0548110
7601.4, 0.0547650
7612.56, 0.0547190
7623.76, 0.0546260
7634.98, 0.0544870
7646.24, 0.0543950
7657.54, 0.0542560
7668.87, 0.0542100
7680.23, 0.0542560
7691.62, 0.0541180
7703.05, 0.0539790
7714.51, 0.0538870
7726.01, 0.0538870
7737.54, 0.0538870
7749.11, 0.0537020
7760.71, 0.0535170
7772.35, 0.0534240
7784.02, 0.0534240
7795.72, 0.0533320
7807.46, 0.0532860
7819.23, 0.0531930
7831.04, 0.0531470
7842.89, 0.0530550
7854.77, 0.0530090
7866.69, 0.0529160
7878.65, 0.0528700
7890.64, 0.0527770
7902.67, 0.0527310
7914.74, 0.0527770
7926.84, 0.0527770
7938.98, 0.0527770
7951.16, 0.0528700
7963.37, 0.0529160
7975.62, 0.0528700
7987.91, 0.0529160
8000.24, 0.0529160
8012.6, 0.0529160
8025.01, 0.0528240
8037.45, 0.0527310
8049.93, 0.0527310
8062.45, 0.0527770
8075.01, 0.0528700
8087.61, 0.0530090
8100.24, 0.0530550
8112.91, 0.0531010
8125.63, 0.0531930
8138.39, 0.0532400
8151.18, 0.0532860
8164.02, 0.0532860
8176.9, 0.0533320
8189.81, 0.0533780
8202.77, 0.0532860
8215.77, 0.0531010
8228.82, 0.0529620
8241.9, 0.0527770
8255.02, 0.0525930
8268.19, 0.0523620
8281.39, 0.0520380
8294.65, 0.0516680
8307.94, 0.0514830
8321.28, 0.0513450
8334.66, 0.0511140
8348.08, 0.0508360
8361.54, 0.0506050
8375.05, 0.0505130
8388.6, 0.0503740
8402.2, 0.0501430
8415.84, 0.0500050
8429.52, 0.0498660
8443.25, 0.0496810
8457.02, 0.0494500
8470.84, 0.0494040
8484.7, 0.0492650
8498.61, 0.0490800
8512.57, 0.0488490
8526.57, 0.0486180
8540.62, 0.0485260
8554.71, 0.0483410
8568.85, 0.0478790
8583.04, 0.0472780
8597.27, 0.0466770
8611.55, 0.0460760
8625.88, 0.0456600
8640.26, 0.0455680
8654.68, 0.0457070
8669.16, 0.0459380
8683.68, 0.0460300
8698.25, 0.0461230
8712.87, 0.0462150
8727.53, 0.0462610
8742.25, 0.0461690
8757.02, 0.0459380
8771.83, 0.0457530
8786.7, 0.0456140
8801.62, 0.0455220
8816.59, 0.0454760
8831.61, 0.0453830
8846.68, 0.0452440
8861.8, 0.0450600
8876.97, 0.0447360
8892.2, 0.0444130
8907.48, 0.0441810
8922.81, 0.0438580
8938.2, 0.0434420
8953.63, 0.0431190
8969.13, 0.0427950
8984.67, 0.0424720
9000.27, 0.0422400
9015.92, 0.0420560
9031.63, 0.0419630
9047.39, 0.0419170
9063.21, 0.0419630
9079.08, 0.0420560
9095.01, 0.0421480
9111.0, 0.0421480
9127.04, 0.0420090
9143.13, 0.0418710
9159.28, 0.0418710
9175.49, 0.0418250
9191.76, 0.0417780
9208.09, 0.0418250
9224.47, 0.0418250
9240.92, 0.0416400
9257.42, 0.0415010
9273.98, 0.0412700
9290.6, 0.0410390
9307.28, 0.0406690
9324.02, 0.0400220
9340.82, 0.0393750
9357.68, 0.0387280
9374.6, 0.0379890
9391.58, 0.0371110
9408.62, 0.0362790
9425.73, 0.0355390
9442.9, 0.0348460
9460.13, 0.0342450
9477.42, 0.0337370
9494.78, 0.0333670
9512.2, 0.0328590
9529.69, 0.0324430
9547.24, 0.0320270
9564.86, 0.0317030
9582.54, 0.0313340
9600.28, 0.0309180
9618.1, 0.0305480
9635.97, 0.0302710
9653.92, 0.0300400
9671.93, 0.0297160
9690.01, 0.0293930
9708.16, 0.0291620
9726.37, 0.0288840
9744.65, 0.0287460
9763.0, 0.0285610
9781.43, 0.0283300
9799.92, 0.0280520
9818.48, 0.0279140
9837.1, 0.0278210
9855.8, 0.0276370
9874.58, 0.0273590
9893.42, 0.0272210
9912.34, 0.0271280
9931.33, 0.0269900
9950.39, 0.0268510
9969.52, 0.0267580
9988.74, 0.0266660
10008.0, 0.0265270
10027.4, 0.0263430
10046.8, 0.0262960
10066.3, 0.0261580
10085.9, 0.0259730
10105.6, 0.0258800
10125.3, 0.0259730
10145.1, 0.0258800
10165.0, 0.0257420
10185.0, 0.0256490
10205.0, 0.0254640
10225.2, 0.0253260
10245.4, 0.0252330
10265.7, 0.0250950
10286.0, 0.0248170
10306.5, 0.0246790
10327.0, 0.0245400
10347.6, 0.0244940
10368.3, 0.0243550
10389.1, 0.0241240
10409.9, 0.0238930
10430.9, 0.0237080
10451.9, 0.0235230
10473.0, 0.0233390
10494.2, 0.0232460
10515.5, 0.0232460
10536.9, 0.0231540
10558.4, 0.0229690
10579.9, 0.0229690
10601.5, 0.0229230
10623.3, 0.0227840
10645.1, 0.0227840
10667.0, 0.0227840
10689.0, 0.0228760
10711.1, 0.0228300
10733.2, 0.0226920
10755.5, 0.0226920
10777.9, 0.0227840
10800.3, 0.0227840
10822.9, 0.0229230
10845.5, 0.0231540
10868.2, 0.0232000
10891.1, 0.0234310
10914.0, 0.0236160
10937.0, 0.0238010
10960.2, 0.0239860
10983.4, 0.0242630
11006.7, 0.0245860
11030.1, 0.0251870
11053.6, 0.0258340
11077.3, 0.0263430
11101.0, 0.0269430
11124.8, 0.0275900
11148.7, 0.0283300
11172.7, 0.0291150
11196.9, 0.0299470
11221.1, 0.0306410
11245.4, 0.0315190
11269.9, 0.0325350
11294.4, 0.0335060
11319.1, 0.0346610
11343.9, 0.0357240
11368.8, 0.0367410
11393.7, 0.0377110
11418.8, 0.0387740
11444.0, 0.0398840
11469.4, 0.0409460
11494.8, 0.0419170
11520.3, 0.0429800
11546.0, 0.0439500
11571.8, 0.0448750
11597.7, 0.0457070
11623.7, 0.0464460
11649.8, 0.0470930
11676.0, 0.0478320
11702.4, 0.0486180
11728.9, 0.0493110
11755.5, 0.0499580
11782.2, 0.0505590
11809.0, 0.0510680
11836.0, 0.0516220
11863.0, 0.0522690
11890.3, 0.0527310
11917.6, 0.0531930
11945.0, 0.0535630
11972.6, 0.0540720
12000.4, 0.0547650
12028.2, 0.0551340
12056.2, 0.0555040
12084.3, 0.0562900
12112.5, 0.0569830
12140.9, 0.0577690
12169.4, 0.0586930
12198.0, 0.0596170
12226.8, 0.0604950
12255.7, 0.0614660
12284.7, 0.0627140
12313.9, 0.0641000
12343.2, 0.0654400
12372.7, 0.0669650
12402.3, 0.0685370
12432.0, 0.0701080
12461.9, 0.0717260
12491.9, 0.0732040
12522.1, 0.0745450
12552.4, 0.0759770
12582.9, 0.0774100
12613.5, 0.0789810
12644.3, 0.0806450
12675.2, 0.0823090
12706.3, 0.0839730
12737.5, 0.0855900
12768.9, 0.0872540
12800.4, 0.0888250
12832.1, 0.0901650
12863.9, 0.0915520
12895.9, 0.0929840
12928.1, 0.0943250
12960.4, 0.0954800
12992.9, 0.0966820
13025.5, 0.0978830
13058.3, 0.0989920
13091.3, 0.100286
13124.4, 0.101534
13157.8, 0.102597
13191.2, 0.103614
13224.9, 0.104723
13258.7, 0.105740
13292.7, 0.106664
13326.9, 0.107681
13361.2, 0.108651
13395.7, 0.109622
13430.4, 0.110592
13465.3, 0.111424
13500.4, 0.112117
13535.7, 0.112996
13571.1, 0.113920
13606.7, 0.114613
13642.5, 0.115306
13678.5, 0.115953
13714.7, 0.116600
13751.1, 0.116970
13787.6, 0.117432
13824.4, 0.118172
13861.4, 0.118772
13898.5, 0.119466
13935.9, 0.120066
13973.5, 0.120020
14011.2, 0.120159
14049.2, 0.120852
14087.4, 0.121360
14125.8, 0.121268
14164.3, 0.121499
14203.2, 0.121869
14242.2, 0.121915
14281.4, 0.121869
14320.9, 0.122054
14360.5, 0.122377
14400.4, 0.122932
14440.5, 0.123486
14480.9, 0.123764
14521.4, 0.124087
14562.2, 0.124780
14603.3, 0.125474
14644.5, 0.125797
14686.0, 0.126074
14727.7, 0.126444
14769.7, 0.126952
14811.9, 0.127461
14854.3, 0.127738
14897.0, 0.128154
14939.9, 0.128662
14983.1, 0.129032
15026.5, 0.129402
15070.2, 0.129633
15114.2, 0.129772
15158.3, 0.130188
15202.8, 0.130511
15247.5, 0.130696
15292.5, 0.130881
15337.7, 0.131066
15383.2, 0.131250
15429.0, 0.131482
15475.1, 0.131713
15521.4, 0.132129
15568.0, 0.132313
15614.9, 0.132313
15662.1, 0.132221
15709.6, 0.132175
15757.3, 0.132267
15805.4, 0.132544
15853.7, 0.132776
15902.3, 0.132914
15951.2, 0.132868
16000.5, 0.132822
16050.0, 0.133053
16099.8, 0.133145
16150.0, 0.133053
16200.5, 0.133007
16251.3, 0.133376
16302.4, 0.133607
16353.8, 0.133700
16405.5, 0.133700
16457.6, 0.133792
16510.0, 0.133561
16562.8, 0.133376
16615.9, 0.133792
16669.3, 0.133700
16723.1, 0.133376
16777.2, 0.133469
16831.7, 0.133561
16886.5, 0.133376
16941.7, 0.133145
16997.2, 0.132960
17053.1, 0.132683
17109.4, 0.132313
17166.1, 0.131713
17223.1, 0.130696
17280.5, 0.129448
17338.3, 0.128385
17396.5, 0.127461
17455.1, 0.126721
17514.0, 0.125612
17573.4, 0.124180
17633.2, 0.122608
17693.4, 0.121083
17754.0, 0.119882
17815.0, 0.118819
17876.4, 0.117617
17938.3, 0.116415
18000.5, 0.115491
18063.3, 0.115029
18126.4, 0.114844
18190.0, 0.115075
18254.1, 0.115168
18318.6, 0.115353
18383.5, 0.116046
18449.0, 0.116924
18514.9, 0.117432
18581.2, 0.117894
18648.0, 0.118264
18715.4, 0.118449
18783.2, 0.118357
18851.5, 0.117617
18920.3, 0.116739
18989.6, 0.115630
19059.4, 0.114752
19129.7, 0.113643
19200.6, 0.112256
19272.0, 0.110546
19343.9, 0.109021
19416.3, 0.108051
19489.3, 0.106803
19562.8, 0.105416
19637.0, 0.105093
19711.6, 0.104908
19786.8, 0.105278
19862.6, 0.105370
19939.0, 0.105832
20016.0, 0.106988
20093.6, 0.107404
20171.8, 0.108051
20250.6, 0.108744
20330.0, 0.108790
20410.0, 0.109252
20490.7, 0.109576
20572.0, 0.108605
20654.0, 0.108189
20736.6, 0.108698
20819.9, 0.108328
20903.8, 0.108282
20988.5, 0.107542
21073.8, 0.106341
21159.8, 0.105509
21246.5, 0.104122
21334.0, 0.102181
21422.1, 0.100749
21511.0, 0.100194
21600.7, 0.0995930
21691.0, 0.0984840
21782.1, 0.0988080
21874.0, 0.101442
21966.7, 0.105925
22060.2, 0.110361
22154.5, 0.114567
22249.6, 0.118310
22345.5, 0.121268
22442.2, 0.124318
22539.8, 0.127738
22638.2, 0.130881
22737.5, 0.134855
22837.7, 0.137813
22938.7, 0.139015
23040.7, 0.140817
23143.5, 0.143497
23247.3, 0.146964
23352.1, 0.148951
23457.7, 0.148997
23564.4, 0.148258
23672.0, 0.148720
23780.5, 0.149089
23890.1, 0.148350
24000.7, 0.149505
24112.3, 0.148858
24225.0, 0.145115
24338.7, 0.140863
24453.5, 0.137767
24569.4, 0.134162
24686.4, 0.130696
24804.5, 0.128431
24923.8, 0.125612
