Database of Origin, USGS Spectral Database
Sample Description, See USGS database for additional info
Date Added,2017-07-03 06:06:54.884446

Data ID,USGS_mag06          
Sample ID, magnetite_hs78.13246
Mineral Name, magnetite
Material Class,Oxide

Wavelength
1499.61, 0.0395860
1500.04, 0.0396560
1500.48, 0.0395860
1500.91, 0.0398670
1501.35, 0.0397270
1501.78, 0.0397970
1502.22, 0.0397620
1502.65, 0.0393750
1503.09, 0.0392350
1503.53, 0.0391640
1503.96, 0.0391990
1504.4, 0.0393400
1504.83, 0.0394810
1505.27, 0.0396210
1505.71, 0.0397620
1506.15, 0.0396210
1506.58, 0.0393400
1507.02, 0.0391990
1507.46, 0.0393400
1507.9, 0.0397970
1508.34, 0.0397970
1508.78, 0.0397270
1509.21, 0.0397970
1509.66, 0.0391990
1510.09, 0.0389880
1510.53, 0.0393050
1510.97, 0.0394810
1511.42, 0.0397620
1511.86, 0.0399030
1512.3, 0.0397620
1512.74, 0.0398320
1513.18, 0.0397970
1513.62, 0.0397270
1514.06, 0.0396210
1514.51, 0.0394810
1514.95, 0.0396210
1515.39, 0.0397620
1515.83, 0.0395860
1516.28, 0.0396560
1516.72, 0.0395860
1517.16, 0.0396560
1517.61, 0.0397270
1518.05, 0.0397270
1518.5, 0.0397970
1518.94, 0.0398320
1519.39, 0.0399030
1519.83, 0.0397270
1520.28, 0.0395510
1520.73, 0.0398320
1521.17, 0.0398670
1521.62, 0.0400780
1522.07, 0.0403240
1522.51, 0.0397970
1522.96, 0.0394450
1523.41, 0.0397620
1523.85, 0.0402540
1524.3, 0.0400780
1524.75, 0.0397620
1525.2, 0.0400080
1525.65, 0.0399730
1526.1, 0.0399030
1526.55, 0.0400780
1527.0, 0.0400080
1527.45, 0.0400080
1527.9, 0.0401490
1528.35, 0.0402190
1528.8, 0.0401490
1529.25, 0.0398670
1529.7, 0.0399380
1530.15, 0.0400780
1530.6, 0.0399030
1531.05, 0.0399030
1531.51, 0.0398320
1531.96, 0.0399030
1532.41, 0.0397620
1532.87, 0.0398670
1533.32, 0.0399030
1533.77, 0.0398670
1534.23, 0.0398320
1534.68, 0.0397270
1535.14, 0.0398670
1535.59, 0.0401130
1536.05, 0.0399380
1536.5, 0.0399030
1536.96, 0.0401130
1537.41, 0.0401490
1537.87, 0.0402540
1538.32, 0.0404300
1538.78, 0.0404650
1539.24, 0.0403600
1539.7, 0.0400780
1540.15, 0.0400430
1540.61, 0.0400430
1541.07, 0.0401840
1541.53, 0.0403600
1541.98, 0.0402190
1542.44, 0.0401490
1542.9, 0.0402190
1543.36, 0.0401840
1543.82, 0.0399030
1544.28, 0.0399030
1544.74, 0.0399380
1545.2, 0.0400780
1545.66, 0.0401840
1546.12, 0.0402540
1546.59, 0.0405700
1547.05, 0.0406060
1547.51, 0.0403240
1547.97, 0.0403950
1548.43, 0.0406060
1548.9, 0.0406060
1549.36, 0.0403950
1549.82, 0.0400080
1550.29, 0.0400780
1550.75, 0.0402540
1551.21, 0.0400780
1551.68, 0.0400780
1552.14, 0.0403950
1552.61, 0.0407110
1553.07, 0.0407810
1553.54, 0.0405000
1554.0, 0.0403240
1554.47, 0.0405350
1554.93, 0.0406760
1555.4, 0.0407110
1555.87, 0.0406410
1556.34, 0.0402540
1556.8, 0.0401490
1557.27, 0.0402540
1557.74, 0.0403950
1558.21, 0.0406760
1558.68, 0.0406760
1559.14, 0.0407460
1559.61, 0.0406760
1560.08, 0.0402890
1560.55, 0.0403240
1561.02, 0.0407460
1561.49, 0.0410280
1561.96, 0.0409570
1562.43, 0.0405700
1562.9, 0.0405000
1563.38, 0.0408170
1563.85, 0.0410630
1564.32, 0.0409570
1564.79, 0.0407110
1565.26, 0.0406760
1565.74, 0.0407460
1566.21, 0.0408170
1566.68, 0.0407810
1567.16, 0.0406760
1567.63, 0.0408520
1568.1, 0.0408520
1568.58, 0.0405350
1569.05, 0.0407810
1569.53, 0.0411330
1570.0, 0.0409920
1570.48, 0.0406760
1570.96, 0.0407810
1571.43, 0.0407110
1571.91, 0.0407110
1572.39, 0.0405350
1572.86, 0.0405700
1573.34, 0.0408870
1573.82, 0.0408870
1574.3, 0.0409220
1574.77, 0.0411680
1575.25, 0.0413090
1575.73, 0.0410280
1576.21, 0.0408520
1576.69, 0.0409920
1577.17, 0.0410280
1577.65, 0.0408520
1578.13, 0.0408870
1578.61, 0.0409570
1579.09, 0.0412030
1579.57, 0.0412380
1580.05, 0.0408870
1580.54, 0.0408520
1581.02, 0.0407810
1581.5, 0.0410280
1581.98, 0.0412380
1582.47, 0.0412030
1582.95, 0.0411330
1583.43, 0.0411330
1583.92, 0.0410980
1584.4, 0.0411680
1584.88, 0.0411330
1585.37, 0.0412030
1585.85, 0.0412740
1586.34, 0.0411680
1586.82, 0.0411330
1587.31, 0.0411330
1587.8, 0.0413440
1588.28, 0.0413090
1588.77, 0.0412030
1589.26, 0.0411680
1589.74, 0.0411330
1590.23, 0.0411330
1590.72, 0.0412030
1591.21, 0.0412380
1591.7, 0.0413090
1592.19, 0.0412030
1592.67, 0.0412030
1593.16, 0.0413790
1593.65, 0.0414850
1594.14, 0.0414490
1594.63, 0.0415200
1595.12, 0.0414850
1595.61, 0.0415550
1596.11, 0.0416950
1596.6, 0.0415900
1597.09, 0.0416950
1597.58, 0.0413440
1598.08, 0.0410980
1598.57, 0.0412380
1599.06, 0.0414850
1599.55, 0.0414140
1600.05, 0.0412740
1600.54, 0.0412740
1601.04, 0.0413790
1601.53, 0.0413090
1602.03, 0.0410630
1602.52, 0.0411330
1603.02, 0.0413440
1603.51, 0.0413090
1604.01, 0.0414140
1604.5, 0.0416600
1605.0, 0.0415900
1605.5, 0.0415200
1606.0, 0.0416600
1606.49, 0.0418360
1606.99, 0.0416600
1607.49, 0.0415550
1607.99, 0.0417310
1608.49, 0.0416250
1608.99, 0.0414490
1609.49, 0.0415200
1609.99, 0.0416250
1610.49, 0.0416950
1610.99, 0.0416950
1611.49, 0.0416950
1611.99, 0.0418010
1612.49, 0.0416250
1612.99, 0.0416250
1613.49, 0.0418360
1614.0, 0.0419420
1614.5, 0.0416600
1615.0, 0.0415550
1615.51, 0.0419060
1616.01, 0.0420820
1616.51, 0.0417660
1617.02, 0.0418360
1617.52, 0.0419770
1618.03, 0.0417660
1618.53, 0.0415550
1619.04, 0.0417660
1619.54, 0.0419770
1620.05, 0.0420120
1620.55, 0.0422230
1621.06, 0.0421880
1621.57, 0.0420820
1622.08, 0.0420120
1622.58, 0.0418360
1623.09, 0.0418360
1623.6, 0.0419420
1624.11, 0.0418360
1624.62, 0.0416950
1625.13, 0.0418010
1625.64, 0.0419420
1626.15, 0.0418010
1626.66, 0.0419060
1627.17, 0.0420820
1627.68, 0.0421880
1628.19, 0.0422230
1628.7, 0.0421880
1629.21, 0.0421170
1629.72, 0.0421880
1630.24, 0.0422580
1630.75, 0.0421170
1631.26, 0.0416950
1631.78, 0.0415550
1632.29, 0.0418010
1632.8, 0.0419770
1633.32, 0.0420820
1633.83, 0.0421530
1634.35, 0.0421530
1634.86, 0.0419770
1635.38, 0.0419420
1635.9, 0.0420470
1636.41, 0.0419770
1636.93, 0.0418710
1637.45, 0.0421530
1637.96, 0.0426100
1638.48, 0.0425390
1639.0, 0.0421880
1639.52, 0.0420470
1640.04, 0.0421530
1640.56, 0.0423630
1641.08, 0.0423990
1641.59, 0.0424340
1642.11, 0.0421530
1642.63, 0.0423280
1643.16, 0.0426800
1643.68, 0.0426800
1644.2, 0.0424690
1644.72, 0.0423280
1645.24, 0.0424340
1645.76, 0.0426450
1646.29, 0.0425040
1646.81, 0.0421880
1647.33, 0.0420120
1647.86, 0.0420820
1648.38, 0.0423280
1648.9, 0.0424340
1649.43, 0.0423630
1649.95, 0.0424340
1650.48, 0.0425740
1651.0, 0.0427500
1651.53, 0.0427150
1652.06, 0.0426100
1652.58, 0.0423630
1653.11, 0.0424690
1653.64, 0.0427150
1654.17, 0.0425390
1654.69, 0.0424340
1655.22, 0.0425390
1655.75, 0.0426450
1656.28, 0.0424340
1656.81, 0.0423630
1657.34, 0.0425390
1657.87, 0.0427500
1658.4, 0.0426450
1658.93, 0.0426450
1659.46, 0.0426100
1659.99, 0.0426450
1660.52, 0.0427850
1661.05, 0.0428200
1661.59, 0.0428200
1662.12, 0.0426100
1662.65, 0.0425040
1663.19, 0.0426100
1663.72, 0.0428200
1664.26, 0.0427850
1664.79, 0.0427150
1665.32, 0.0428200
1665.86, 0.0428200
1666.39, 0.0429260
1666.93, 0.0428560
1667.47, 0.0427850
1668.0, 0.0426800
1668.54, 0.0426800
1669.08, 0.0426450
1669.61, 0.0425390
1670.15, 0.0425390
1670.69, 0.0428560
1671.23, 0.0429610
1671.77, 0.0427150
1672.31, 0.0427500
1672.85, 0.0429260
1673.39, 0.0429260
1673.93, 0.0429610
1674.47, 0.0430670
1675.01, 0.0429610
1675.55, 0.0428200
1676.09, 0.0429960
1676.64, 0.0431720
1677.18, 0.0429960
1677.72, 0.0429260
1678.26, 0.0429610
1678.81, 0.0430310
1679.35, 0.0431370
1679.89, 0.0429260
1680.44, 0.0428910
1680.98, 0.0430670
1681.53, 0.0432780
1682.07, 0.0433480
1682.62, 0.0431370
1683.17, 0.0431370
1683.71, 0.0432070
1684.26, 0.0429260
1684.81, 0.0428200
1685.36, 0.0430670
1685.9, 0.0433130
1686.45, 0.0433130
1687.0, 0.0431720
1687.55, 0.0430670
1688.1, 0.0431370
1688.65, 0.0433830
1689.2, 0.0433130
1689.75, 0.0430670
1690.3, 0.0431720
1690.85, 0.0432070
1691.41, 0.0431370
1691.96, 0.0432780
1692.51, 0.0433830
1693.06, 0.0434180
1693.61, 0.0433130
1694.17, 0.0432780
1694.72, 0.0432070
1695.28, 0.0433130
1695.83, 0.0433830
1696.39, 0.0433130
1696.94, 0.0432780
1697.5, 0.0432420
1698.05, 0.0431020
1698.61, 0.0432420
1699.17, 0.0434180
1699.72, 0.0432070
1700.28, 0.0431720
1700.84, 0.0432420
1701.4, 0.0433480
1701.95, 0.0434530
1702.51, 0.0434880
1703.07, 0.0434880
1703.63, 0.0435590
1704.19, 0.0434530
1704.75, 0.0434880
1705.31, 0.0436290
1705.88, 0.0436290
1706.44, 0.0433830
1707.0, 0.0432780
1707.56, 0.0435240
1708.12, 0.0436290
1708.69, 0.0435940
1709.25, 0.0434180
1709.81, 0.0433830
1710.38, 0.0434530
1710.94, 0.0435940
1711.51, 0.0437350
1712.07, 0.0436640
1712.64, 0.0437700
1713.2, 0.0437350
1713.77, 0.0435240
1714.34, 0.0435590
1714.9, 0.0435940
1715.47, 0.0435240
1716.04, 0.0434880
1716.61, 0.0435590
1717.18, 0.0435590
1717.74, 0.0435590
1718.31, 0.0436290
1718.88, 0.0437700
1719.45, 0.0438750
1720.02, 0.0438750
1720.59, 0.0437350
1721.17, 0.0434180
1721.74, 0.0433830
1722.31, 0.0436640
1722.88, 0.0439450
1723.45, 0.0440510
1724.03, 0.0438400
1724.6, 0.0437700
1725.18, 0.0437700
1725.75, 0.0439100
1726.33, 0.0441210
1726.9, 0.0440510
1727.48, 0.0437700
1728.05, 0.0437700
1728.63, 0.0439100
1729.2, 0.0439810
1729.78, 0.0440160
1730.36, 0.0438750
1730.94, 0.0437700
1731.51, 0.0439810
1732.09, 0.0441210
1732.67, 0.0439450
1733.25, 0.0437700
1733.83, 0.0438750
1734.41, 0.0441560
1734.99, 0.0441920
1735.57, 0.0441210
1736.15, 0.0439810
1736.73, 0.0438400
1737.32, 0.0437350
1737.9, 0.0438050
1738.48, 0.0438400
1739.07, 0.0439100
1739.65, 0.0438750
1740.23, 0.0440160
1740.82, 0.0440860
1741.4, 0.0438750
1741.99, 0.0439810
1742.57, 0.0440160
1743.16, 0.0440160
1743.74, 0.0441210
1744.33, 0.0442270
1744.92, 0.0442270
1745.51, 0.0441920
1746.09, 0.0442970
1746.68, 0.0441920
1747.27, 0.0441920
1747.86, 0.0442970
1748.45, 0.0444030
1749.04, 0.0442620
1749.63, 0.0442970
1750.22, 0.0444030
1750.81, 0.0443320
1751.4, 0.0442970
1751.99, 0.0444380
1752.59, 0.0444380
1753.18, 0.0442970
1753.77, 0.0442970
1754.37, 0.0441920
1754.96, 0.0441210
1755.56, 0.0442970
1756.15, 0.0443670
1756.74, 0.0442620
1757.34, 0.0443320
1757.94, 0.0445080
1758.53, 0.0446490
1759.13, 0.0446840
1759.73, 0.0445780
1760.32, 0.0444730
1760.92, 0.0444030
1761.52, 0.0445430
1762.12, 0.0447190
1762.72, 0.0446840
1763.32, 0.0445430
1763.92, 0.0445430
1764.52, 0.0444030
1765.12, 0.0443320
1765.72, 0.0444380
1766.32, 0.0446130
1766.92, 0.0446840
1767.53, 0.0445780
1768.13, 0.0445780
1768.73, 0.0447190
1769.34, 0.0446130
1769.94, 0.0445080
1770.55, 0.0445780
1771.15, 0.0446490
1771.76, 0.0446130
1772.36, 0.0445780
1772.97, 0.0445430
1773.57, 0.0445430
1774.18, 0.0446490
1774.79, 0.0446840
1775.4, 0.0446490
1776.0, 0.0445430
1776.61, 0.0445080
1777.22, 0.0445080
1777.83, 0.0445780
1778.44, 0.0447190
1779.05, 0.0447890
1779.66, 0.0448600
1780.27, 0.0448950
1780.88, 0.0447190
1781.5, 0.0446130
1782.11, 0.0445430
1782.72, 0.0445430
1783.33, 0.0445780
1783.95, 0.0447190
1784.56, 0.0448240
1785.18, 0.0447540
1785.79, 0.0446840
1786.41, 0.0447890
1787.02, 0.0447890
1787.64, 0.0447540
1788.26, 0.0447190
1788.87, 0.0447190
1789.49, 0.0448240
1790.11, 0.0448240
1790.73, 0.0448240
1791.35, 0.0448600
1791.96, 0.0448950
1792.58, 0.0448600
1793.21, 0.0449300
1793.83, 0.0450350
1794.45, 0.0448600
1795.07, 0.0447190
1795.69, 0.0447890
1796.31, 0.0449300
1796.93, 0.0449300
1797.56, 0.0450000
1798.18, 0.0450000
1798.8, 0.0449300
1799.43, 0.0449300
1800.05, 0.0449300
1800.68, 0.0449650
1801.3, 0.0451410
1801.93, 0.0451760
1802.56, 0.0451060
1803.18, 0.0451760
1803.81, 0.0451060
1804.44, 0.0449300
1805.07, 0.0449650
1805.7, 0.0450350
1806.33, 0.0450350
1806.95, 0.0450710
1807.58, 0.0451410
1808.22, 0.0450350
1808.85, 0.0450350
1809.48, 0.0450000
1810.11, 0.0449650
1810.74, 0.0450710
1811.38, 0.0452110
1812.01, 0.0450710
1812.64, 0.0451060
1813.28, 0.0452810
1813.91, 0.0452460
1814.55, 0.0451410
1815.18, 0.0451760
1815.82, 0.0452110
1816.45, 0.0452460
1817.09, 0.0453870
1817.73, 0.0452810
1818.36, 0.0451760
1819.0, 0.0452810
1819.64, 0.0452810
1820.28, 0.0452110
1820.92, 0.0452460
1821.56, 0.0453170
1822.2, 0.0452810
1822.84, 0.0453520
1823.48, 0.0453870
1824.12, 0.0452110
1824.76, 0.0452460
1825.41, 0.0453870
1826.05, 0.0452460
1826.69, 0.0452810
1827.34, 0.0452810
1827.98, 0.0452810
1828.63, 0.0453170
1829.27, 0.0453170
1829.92, 0.0453870
1830.56, 0.0453870
1831.21, 0.0454920
1831.86, 0.0454570
1832.5, 0.0454220
1833.15, 0.0454920
1833.8, 0.0454220
1834.45, 0.0453870
1835.1, 0.0455630
1835.75, 0.0454570
1836.4, 0.0454220
1837.05, 0.0454570
1837.7, 0.0454220
1838.35, 0.0454920
1839.01, 0.0455280
1839.66, 0.0455280
1840.31, 0.0455280
1840.96, 0.0455630
1841.62, 0.0455280
1842.27, 0.0455980
1842.93, 0.0456680
1843.58, 0.0457740
1844.24, 0.0458090
1844.9, 0.0459850
1845.55, 0.0460200
1846.21, 0.0455980
1846.87, 0.0453520
1847.53, 0.0455280
1848.18, 0.0457030
1848.84, 0.0458440
1849.5, 0.0458090
1850.16, 0.0459140
1850.82, 0.0459490
1851.48, 0.0460200
1852.14, 0.0459490
1852.81, 0.0458090
1853.47, 0.0456680
1854.13, 0.0456680
1854.8, 0.0457740
1855.46, 0.0457380
1856.12, 0.0457030
1856.79, 0.0458790
1857.45, 0.0459490
1858.12, 0.0459490
1858.79, 0.0459490
1859.45, 0.0459140
1860.12, 0.0460550
1860.79, 0.0460200
1861.46, 0.0459490
1862.12, 0.0459850
1862.79, 0.0460550
1863.46, 0.0461250
1864.13, 0.0460550
1864.8, 0.0460900
1865.48, 0.0460900
1866.15, 0.0460200
1866.82, 0.0459490
1867.49, 0.0458790
1868.16, 0.0459140
1868.84, 0.0459850
1869.51, 0.0459490
1870.19, 0.0458790
1870.86, 0.0459490
1871.54, 0.0460900
1872.21, 0.0460200
1872.89, 0.0458790
1873.56, 0.0460900
1874.24, 0.0462660
1874.92, 0.0462310
1875.6, 0.0460900
1876.28, 0.0460550
1876.96, 0.0460550
1877.64, 0.0460900
1878.32, 0.0462660
1879.0, 0.0463360
1879.68, 0.0461960
1880.36, 0.0461250
1881.04, 0.0461250
1881.73, 0.0461960
1882.41, 0.0461250
1883.09, 0.0460550
1883.78, 0.0461600
1884.46, 0.0464060
1885.15, 0.0463360
1885.83, 0.0461960
1886.52, 0.0462310
1887.21, 0.0464420
1887.89, 0.0465120
1888.58, 0.0464420
1889.27, 0.0463010
1889.96, 0.0463010
1890.65, 0.0462660
1891.34, 0.0463010
1892.03, 0.0464770
1892.72, 0.0465470
1893.41, 0.0464770
1894.1, 0.0465120
1894.79, 0.0465470
1895.49, 0.0465470
1896.18, 0.0464420
1896.87, 0.0463360
1897.57, 0.0464060
1898.26, 0.0464420
1898.96, 0.0463010
1899.65, 0.0463010
1900.35, 0.0465470
1901.05, 0.0466530
1901.74, 0.0465470
1902.44, 0.0464420
1903.14, 0.0464770
1903.84, 0.0465120
1904.54, 0.0465120
1905.24, 0.0465120
1905.94, 0.0465120
1906.64, 0.0466530
1907.34, 0.0466170
1908.04, 0.0465820
1908.75, 0.0466530
1909.45, 0.0466880
1910.15, 0.0467230
1910.86, 0.0466170
1911.56, 0.0466170
1912.27, 0.0467230
1912.97, 0.0467580
1913.68, 0.0465820
1914.39, 0.0466170
1915.09, 0.0467230
1915.8, 0.0467580
1916.51, 0.0467580
1917.22, 0.0467580
1917.93, 0.0467230
1918.64, 0.0467580
1919.35, 0.0467230
1920.06, 0.0466880
1920.77, 0.0468630
1921.48, 0.0468990
1922.19, 0.0467930
1922.91, 0.0468630
1923.62, 0.0468990
1924.33, 0.0469340
1925.05, 0.0469340
1925.76, 0.0470390
1926.48, 0.0470390
1927.19, 0.0470040
1927.91, 0.0470040
1928.63, 0.0470040
1929.35, 0.0470740
1930.07, 0.0470390
1930.78, 0.0469340
1931.5, 0.0470040
1932.22, 0.0471800
1932.94, 0.0471450
1933.66, 0.0470740
1934.39, 0.0471450
1935.11, 0.0472150
1935.83, 0.0471800
1936.55, 0.0470390
1937.28, 0.0469690
1938.0, 0.0470390
1938.73, 0.0471450
1939.45, 0.0472150
1940.18, 0.0472500
1940.9, 0.0472500
1941.63, 0.0472850
1942.36, 0.0473210
1943.09, 0.0472150
1943.81, 0.0472150
1944.54, 0.0472850
1945.27, 0.0471450
1946.0, 0.0471100
1946.73, 0.0472500
1947.47, 0.0473560
1948.2, 0.0474260
1948.93, 0.0474260
1949.66, 0.0472850
1950.4, 0.0472150
1951.13, 0.0472850
1951.86, 0.0472150
1952.6, 0.0471800
1953.34, 0.0472500
1954.07, 0.0472850
1954.81, 0.0472500
1955.55, 0.0471800
1956.29, 0.0472500
1957.02, 0.0473910
1957.76, 0.0473560
1958.5, 0.0473560
1959.24, 0.0473560
1959.98, 0.0473910
1960.72, 0.0474960
1961.47, 0.0474960
1962.21, 0.0473910
1962.95, 0.0473560
1963.7, 0.0474610
1964.44, 0.0474610
1965.18, 0.0474610
1965.93, 0.0473910
1966.67, 0.0473210
1967.42, 0.0474960
1968.17, 0.0475310
1968.92, 0.0474260
1969.66, 0.0474960
1970.41, 0.0475670
1971.16, 0.0476370
1971.91, 0.0475310
1972.66, 0.0474610
1973.41, 0.0475310
1974.16, 0.0475670
1974.92, 0.0475310
1975.67, 0.0475670
1976.42, 0.0475670
1977.18, 0.0474960
1977.93, 0.0475670
1978.69, 0.0476720
1979.44, 0.0477070
1980.2, 0.0476720
1980.95, 0.0477420
1981.71, 0.0477420
1982.47, 0.0476720
1983.23, 0.0476370
1983.99, 0.0477420
1984.74, 0.0477780
1985.51, 0.0477070
1986.27, 0.0477420
1987.03, 0.0478480
1987.79, 0.0479530
1988.55, 0.0479180
1989.32, 0.0478130
1990.08, 0.0477420
1990.84, 0.0478130
1991.61, 0.0478130
1992.37, 0.0477420
1993.14, 0.0477420
1993.9, 0.0478480
1994.67, 0.0478130
1995.44, 0.0479530
1996.21, 0.0479530
1996.98, 0.0479180
1997.75, 0.0479180
1998.52, 0.0479180
1999.29, 0.0479180
2000.06, 0.0480240
2000.83, 0.0480590
2001.6, 0.0481290
2002.38, 0.0480590
2003.15, 0.0480590
2003.93, 0.0481290
2004.7, 0.0481290
2005.48, 0.0481290
2006.25, 0.0481640
2007.03, 0.0480240
2007.81, 0.0478830
2008.58, 0.0479880
2009.36, 0.0481990
2010.14, 0.0482350
2010.92, 0.0481640
2011.7, 0.0481990
2012.48, 0.0481990
2013.26, 0.0480940
2014.05, 0.0480240
2014.83, 0.0480940
2015.61, 0.0481990
2016.4, 0.0481290
2017.18, 0.0480590
2017.97, 0.0481640
2018.75, 0.0483050
2019.54, 0.0483750
2020.32, 0.0483750
2021.11, 0.0484460
2021.9, 0.0483400
2022.69, 0.0481990
2023.48, 0.0482350
2024.27, 0.0482350
2025.06, 0.0483050
2025.85, 0.0484460
2026.64, 0.0483400
2027.44, 0.0482350
2028.23, 0.0484460
2029.02, 0.0484460
2029.82, 0.0484100
2030.61, 0.0484100
2031.41, 0.0483750
2032.2, 0.0484100
2033.0, 0.0484810
2033.8, 0.0485510
2034.6, 0.0485160
2035.4, 0.0484460
2036.2, 0.0485860
2037.0, 0.0487270
2037.8, 0.0485860
2038.6, 0.0485860
2039.4, 0.0486560
2040.2, 0.0487270
2041.01, 0.0486210
2041.81, 0.0484810
2042.61, 0.0484460
2043.42, 0.0483400
2044.22, 0.0482700
2045.03, 0.0484810
2045.84, 0.0486560
2046.65, 0.0486560
2047.46, 0.0485860
2048.26, 0.0486920
2049.07, 0.0488320
2049.88, 0.0486920
2050.69, 0.0486210
2051.51, 0.0486920
2052.32, 0.0488320
2053.13, 0.0488670
2053.94, 0.0487970
2054.76, 0.0485860
2055.57, 0.0485160
2056.39, 0.0486560
2057.2, 0.0487270
2058.02, 0.0486920
2058.84, 0.0488320
2059.66, 0.0489030
2060.48, 0.0488320
2061.29, 0.0487620
2062.11, 0.0487970
2062.94, 0.0487620
2063.76, 0.0487620
2064.58, 0.0487620
2065.4, 0.0487620
2066.22, 0.0487970
2067.05, 0.0487620
2067.87, 0.0488320
2068.7, 0.0490780
2069.52, 0.0490780
2070.35, 0.0489030
2071.18, 0.0488670
2072.0, 0.0487970
2072.83, 0.0487970
2073.66, 0.0488670
2074.49, 0.0488320
2075.32, 0.0487970
2076.15, 0.0487970
2076.98, 0.0489380
2077.82, 0.0491130
2078.65, 0.0490080
2079.48, 0.0490430
2080.32, 0.0490430
2081.15, 0.0490080
2081.99, 0.0490080
2082.83, 0.0489730
2083.66, 0.0489730
2084.5, 0.0490080
2085.34, 0.0490430
2086.18, 0.0490780
2087.02, 0.0491840
2087.86, 0.0492190
2088.7, 0.0491840
2089.54, 0.0491130
2090.39, 0.0490780
2091.23, 0.0490780
2092.07, 0.0492190
2092.92, 0.0491840
2093.76, 0.0492190
2094.61, 0.0492890
2095.45, 0.0491840
2096.3, 0.0490780
2097.15, 0.0491840
2098.0, 0.0493950
2098.85, 0.0493240
2099.7, 0.0491840
2100.55, 0.0491840
2101.4, 0.0492540
2102.25, 0.0493600
2103.1, 0.0495000
2103.96, 0.0494650
2104.81, 0.0494300
2105.67, 0.0494300
2106.52, 0.0494650
2107.38, 0.0494650
2108.24, 0.0493950
2109.09, 0.0494650
2109.95, 0.0495000
2110.81, 0.0494650
2111.67, 0.0495000
2112.53, 0.0494650
2113.39, 0.0495000
2114.25, 0.0495350
2115.12, 0.0495350
2115.98, 0.0495350
2116.84, 0.0495710
2117.71, 0.0496760
2118.58, 0.0496410
2119.44, 0.0495000
2120.31, 0.0495000
2121.18, 0.0495710
2122.04, 0.0495710
2122.91, 0.0495350
2123.78, 0.0496060
2124.65, 0.0496060
2125.52, 0.0495000
2126.4, 0.0495350
2127.27, 0.0496760
2128.14, 0.0496410
2129.02, 0.0496410
2129.89, 0.0497460
2130.77, 0.0496760
2131.64, 0.0496760
2132.52, 0.0497810
2133.4, 0.0498520
2134.27, 0.0499220
2135.15, 0.0499220
2136.03, 0.0499220
2136.91, 0.0498870
2137.79, 0.0498520
2138.68, 0.0498170
2139.56, 0.0498170
2140.44, 0.0499220
2141.33, 0.0500280
2142.21, 0.0499570
2143.1, 0.0498520
2143.99, 0.0498520
2144.87, 0.0498170
2145.76, 0.0498170
2146.65, 0.0499220
2147.54, 0.0499920
2148.43, 0.0499920
2149.32, 0.0499920
2150.21, 0.0500280
2151.1, 0.0500980
2151.99, 0.0501330
2152.89, 0.0500980
2153.78, 0.0500630
2154.68, 0.0500980
2155.57, 0.0500630
2156.47, 0.0500280
2157.37, 0.0500980
2158.27, 0.0501330
2159.16, 0.0500630
2160.06, 0.0500980
2160.96, 0.0501680
2161.86, 0.0502740
2162.77, 0.0503090
2163.67, 0.0503440
2164.57, 0.0502380
2165.48, 0.0502380
2166.38, 0.0502740
2167.29, 0.0502380
2168.2, 0.0502380
2169.1, 0.0502380
2170.01, 0.0502030
2170.92, 0.0501500
2171.83, 0.0501230
2172.74, 0.0501760
2173.65, 0.0503380
2174.56, 0.0503380
2175.47, 0.0502840
2176.39, 0.0504460
2177.3, 0.0506070
2178.22, 0.0504990
2179.13, 0.0504460
2180.05, 0.0503380
2180.96, 0.0503650
2181.88, 0.0504190
2182.8, 0.0504190
2183.72, 0.0504730
2184.64, 0.0504190
2185.56, 0.0504730
2186.48, 0.0506070
2187.41, 0.0506610
2188.33, 0.0505260
2189.25, 0.0506070
2190.18, 0.0504730
2191.1, 0.0503650
2192.03, 0.0503380
2192.96, 0.0504190
2193.89, 0.0506610
2194.82, 0.0505530
2195.74, 0.0503380
2196.68, 0.0504990
2197.61, 0.0505800
2198.54, 0.0504990
2199.47, 0.0505800
2200.4, 0.0507150
2201.34, 0.0506340
2202.28, 0.0506070
2203.21, 0.0505800
2204.15, 0.0505260
2205.08, 0.0504730
2206.02, 0.0505800
2206.96, 0.0504190
2207.9, 0.0503650
2208.84, 0.0506880
2209.78, 0.0506880
2210.73, 0.0504730
2211.67, 0.0505260
2212.61, 0.0506340
2213.56, 0.0506880
2214.5, 0.0506340
2215.45, 0.0506340
2216.4, 0.0508490
2217.35, 0.0508760
2218.3, 0.0506610
2219.24, 0.0506880
2220.2, 0.0508220
2221.15, 0.0507420
2222.1, 0.0507150
2223.05, 0.0507960
2224.0, 0.0508760
2224.96, 0.0506880
2225.91, 0.0507150
2226.87, 0.0509030
2227.83, 0.0508490
2228.79, 0.0508490
2229.74, 0.0507960
2230.7, 0.0506880
2231.66, 0.0508490
2232.63, 0.0510110
2233.59, 0.0510920
2234.55, 0.0511990
2235.51, 0.0511450
2236.48, 0.0510110
2237.44, 0.0509570
2238.41, 0.0508760
2239.38, 0.0509030
2240.34, 0.0509300
2241.31, 0.0509300
2242.28, 0.0509300
2243.25, 0.0509300
2244.22, 0.0511190
2245.19, 0.0512530
2246.17, 0.0512530
2247.14, 0.0511450
2248.12, 0.0510920
2249.09, 0.0510920
2250.07, 0.0510920
2251.04, 0.0511720
2252.02, 0.0512530
2253.0, 0.0511990
2253.98, 0.0511450
2254.96, 0.0511450
2255.94, 0.0511190
2256.92, 0.0511190
2257.91, 0.0511450
2258.89, 0.0511990
2259.88, 0.0513340
2260.86, 0.0513610
2261.85, 0.0512800
2262.83, 0.0512530
2263.82, 0.0511720
2264.81, 0.0511450
2265.8, 0.0512800
2266.79, 0.0513880
2267.78, 0.0513610
2268.78, 0.0511450
2269.77, 0.0511190
2270.76, 0.0511990
2271.76, 0.0512260
2272.75, 0.0511720
2273.75, 0.0513070
2274.75, 0.0513880
2275.75, 0.0512260
2276.75, 0.0511720
2277.75, 0.0512260
2278.75, 0.0514690
2279.75, 0.0516570
2280.75, 0.0514950
2281.76, 0.0513880
2282.76, 0.0514950
2283.77, 0.0515220
2284.77, 0.0515490
2285.78, 0.0515490
2286.79, 0.0515220
2287.8, 0.0515220
2288.81, 0.0514150
2289.82, 0.0514150
2290.83, 0.0513880
2291.84, 0.0514690
2292.86, 0.0515760
2293.87, 0.0515220
2294.89, 0.0515220
2295.91, 0.0516030
2296.92, 0.0517110
2297.94, 0.0516840
2298.96, 0.0515220
2299.98, 0.0514420
2301.0, 0.0514150
2302.02, 0.0514150
2303.04, 0.0515760
2304.07, 0.0516570
2305.09, 0.0517380
2306.12, 0.0516300
2307.15, 0.0514420
2308.17, 0.0513610
2309.2, 0.0514150
2310.23, 0.0514690
2311.26, 0.0515490
2312.29, 0.0517380
2313.32, 0.0517110
2314.35, 0.0515760
2315.39, 0.0515760
2316.42, 0.0517110
2317.46, 0.0517650
2318.5, 0.0518180
2319.53, 0.0517110
2320.57, 0.0516300
2321.61, 0.0515490
2322.65, 0.0516840
2323.69, 0.0519530
2324.73, 0.0520070
2325.78, 0.0518720
2326.82, 0.0517650
2327.86, 0.0517650
2328.91, 0.0517380
2329.96, 0.0517110
2331.01, 0.0517110
2332.05, 0.0517650
2333.1, 0.0518720
2334.15, 0.0519800
2335.21, 0.0520070
2336.26, 0.0521150
2337.31, 0.0520070
2338.36, 0.0518450
2339.42, 0.0519260
2340.48, 0.0519260
2341.53, 0.0519530
2342.59, 0.0519800
2343.65, 0.0520340
2344.71, 0.0520880
2345.77, 0.0521410
2346.83, 0.0522490
2347.9, 0.0523570
2348.96, 0.0523300
2350.02, 0.0522490
2351.09, 0.0523300
2352.16, 0.0524110
2353.23, 0.0523570
2354.29, 0.0522490
2355.36, 0.0522760
2356.43, 0.0523570
2357.51, 0.0524380
2358.58, 0.0524650
2359.65, 0.0524380
2360.73, 0.0523840
2361.8, 0.0523570
2362.88, 0.0524110
2363.96, 0.0524110
2365.03, 0.0524380
2366.11, 0.0525450
2367.19, 0.0526800
2368.27, 0.0525450
2369.36, 0.0524650
2370.44, 0.0524110
2371.53, 0.0523840
2372.61, 0.0523840
2373.7, 0.0524110
2374.78, 0.0524380
2375.87, 0.0525450
2376.96, 0.0525720
2378.05, 0.0525180
2379.14, 0.0523840
2380.24, 0.0523030
2381.33, 0.0524110
2382.42, 0.0526260
2383.52, 0.0525450
2384.61, 0.0524650
2385.71, 0.0525180
2386.81, 0.0525720
2387.91, 0.0525180
2389.01, 0.0525180
2390.11, 0.0525990
2391.22, 0.0525720
2392.32, 0.0525720
2393.42, 0.0525720
2394.53, 0.0526260
2395.64, 0.0526800
2396.74, 0.0527880
2397.85, 0.0527610
2398.96, 0.0527070
2400.07, 0.0527610
2401.18, 0.0527880
2402.3, 0.0527340
2403.41, 0.0526530
2404.52, 0.0526800
2405.64, 0.0526530
2406.76, 0.0526530
2407.88, 0.0527610
2408.99, 0.0528410
2410.11, 0.0527610
2411.23, 0.0526800
2412.36, 0.0527340
2413.48, 0.0529220
2414.6, 0.0529490
2415.73, 0.0528140
2416.85, 0.0528140
2417.98, 0.0529220
2419.11, 0.0529220
2420.24, 0.0529760
2421.37, 0.0529760
2422.5, 0.0528950
2423.64, 0.0530030
2424.77, 0.0530570
2425.9, 0.0530300
2427.04, 0.0530570
2428.18, 0.0530840
2429.31, 0.0530570
2430.45, 0.0530030
2431.59, 0.0531110
2432.73, 0.0531110
2433.88, 0.0528410
2435.02, 0.0528410
2436.16, 0.0529490
2437.31, 0.0530570
2438.45, 0.0529490
2439.6, 0.0530030
2440.75, 0.0530570
2441.9, 0.0531370
2443.05, 0.0532450
2444.2, 0.0531910
2445.35, 0.0531370
2446.51, 0.0531640
2447.67, 0.0530840
2448.82, 0.0530840
2449.98, 0.0530300
2451.14, 0.0530570
2452.3, 0.0531910
2453.46, 0.0532450
2454.62, 0.0532720
2455.78, 0.0532720
2456.94, 0.0532180
2458.11, 0.0531910
2459.28, 0.0531640
2460.44, 0.0532990
2461.61, 0.0533530
2462.78, 0.0532990
2463.95, 0.0532720
2465.12, 0.0533530
2466.3, 0.0535140
2467.47, 0.0535410
2468.65, 0.0534610
2469.82, 0.0533800
2471.0, 0.0533800
2472.18, 0.0534070
2473.36, 0.0534610
2474.54, 0.0535410
2475.72, 0.0535950
2476.9, 0.0535950
2478.08, 0.0535680
2479.27, 0.0535140
2480.46, 0.0534340
2481.64, 0.0533800
2482.83, 0.0534340
2484.02, 0.0535410
2485.21, 0.0535680
2486.4, 0.0535950
2487.6, 0.0537030
2488.79, 0.0538100
2489.99, 0.0537840
2491.18, 0.0536220
2492.38, 0.0536220
2493.58, 0.0537030
2494.78, 0.0536760
2495.98, 0.0537300
2497.18, 0.0536760
2498.39, 0.0536220
2499.59, 0.0536490
2500.8, 0.0537300
2502.01, 0.0537570
2503.21, 0.0537570
2504.42, 0.0536760
2505.63, 0.0537570
2506.84, 0.0538640
2508.06, 0.0537840
2509.27, 0.0537570
2510.49, 0.0537840
2511.7, 0.0538370
2512.92, 0.0539180
2514.14, 0.0539720
2515.36, 0.0539450
2516.58, 0.0538640
2517.8, 0.0538640
2519.03, 0.0539720
2520.25, 0.0540530
2521.48, 0.0540530
2522.7, 0.0540260
2523.93, 0.0539990
2525.16, 0.0539990
2526.39, 0.0541070
2527.62, 0.0541870
2528.86, 0.0541070
2530.09, 0.0540800
2531.33, 0.0541600
2532.56, 0.0541600
2533.8, 0.0541330
2535.04, 0.0542410
2536.28, 0.0543760
2537.52, 0.0543220
2538.76, 0.0541870
2540.01, 0.0541330
2541.25, 0.0541870
2542.5, 0.0542410
2543.75, 0.0541870
2544.99, 0.0540530
2546.24, 0.0541870
2547.49, 0.0544300
2548.75, 0.0544030
2550.0, 0.0544300
2551.26, 0.0545100
2552.51, 0.0545100
2553.77, 0.0543490
2555.03, 0.0541600
2556.29, 0.0541600
2557.55, 0.0541600
2558.81, 0.0542140
2560.08, 0.0546450
2561.34, 0.0549950
2562.61, 0.0550220
2563.88, 0.0550220
2565.14, 0.0547260
2566.41, 0.0544030
2567.68, 0.0544300
2568.96, 0.0547530
2570.23, 0.0549140
2571.51, 0.0546180
2572.78, 0.0548600
2574.06, 0.0549680
2575.34, 0.0548060
2576.62, 0.0550760
2577.9, 0.0548330
2579.18, 0.0545640
2580.47, 0.0547800
2581.75, 0.0549140
2583.04, 0.0552100
2584.32, 0.0554260
2585.61, 0.0550220
2586.9, 0.0551290
2588.2, 0.0551290
2589.49, 0.0548600
2590.78, 0.0546720
2592.08, 0.0547530
2593.37, 0.0555600
2594.67, 0.0567450
2595.97, 0.0560990
2597.27, 0.0551560
2598.57, 0.0547800
2599.88, 0.0547530
2601.18, 0.0549410
2602.49, 0.0550220
2603.79, 0.0551030
2605.1, 0.0555870
2606.41, 0.0556950
2607.72, 0.0553720
2609.03, 0.0551560
2610.35, 0.0549140
2611.66, 0.0547530
2612.98, 0.0548600
2614.3, 0.0548870
2615.62, 0.0553450
2616.94, 0.0557490
2618.26, 0.0554260
2619.58, 0.0555600
2620.91, 0.0556680
2622.23, 0.0550220
2623.56, 0.0547260
2624.89, 0.0548600
2626.22, 0.0555060
2627.55, 0.0555060
2628.88, 0.0553990
2630.21, 0.0558560
2631.55, 0.0555600
2632.89, 0.0551290
2634.22, 0.0550760
2635.56, 0.0548600
2636.9, 0.0548600
2638.25, 0.0550220
2639.59, 0.0550490
2640.93, 0.0550220
2642.28, 0.0550760
2643.63, 0.0550760
2644.98, 0.0552100
2646.33, 0.0552370
2647.68, 0.0551290
2649.03, 0.0551030
2650.39, 0.0552100
2651.74, 0.0554260
2653.1, 0.0554790
2654.46, 0.0554260
2655.82, 0.0554790
2657.18, 0.0552100
2658.54, 0.0554260
2659.9, 0.0556410
2661.27, 0.0555870
2662.64, 0.0553720
2664.01, 0.0557490
2665.38, 0.0565830
2666.74, 0.0568250
2668.12, 0.0561790
2669.49, 0.0565290
2670.87, 0.0569060
2672.24, 0.0558560
2673.62, 0.0555870
2675.0, 0.0558560
2676.38, 0.0562330
2677.76, 0.0561250
2679.15, 0.0560450
2680.54, 0.0556950
2681.92, 0.0554260
2683.31, 0.0553720
2684.7, 0.0552370
2686.09, 0.0552100
2687.48, 0.0550760
2688.88, 0.0548870
2690.27, 0.0546720
2691.67, 0.0546990
2693.07, 0.0551560
2694.47, 0.0552100
2695.87, 0.0547260
2697.27, 0.0540530
2698.67, 0.0534610
2700.08, 0.0534610
2701.49, 0.0535950
2702.9, 0.0532180
2704.31, 0.0528950
2705.72, 0.0527880
2707.13, 0.0527070
2708.54, 0.0529220
2709.96, 0.0532450
2711.38, 0.0531910
2712.8, 0.0525990
2714.22, 0.0523300
2715.64, 0.0524380
2717.06, 0.0527340
2718.49, 0.0530570
2719.91, 0.0537840
2721.34, 0.0537840
2722.77, 0.0535410
2724.2, 0.0539720
2725.63, 0.0537300
2727.07, 0.0531640
2728.5, 0.0529490
2729.94, 0.0529490
2731.38, 0.0530840
2732.82, 0.0531910
2734.26, 0.0535140
2735.7, 0.0535410
2737.15, 0.0535140
2738.59, 0.0540530
2740.04, 0.0545370
2741.49, 0.0544030
2742.94, 0.0537570
2744.39, 0.0534070
2745.84, 0.0533530
2747.3, 0.0534070
2748.76, 0.0534870
2750.21, 0.0536220
2751.67, 0.0538640
2753.14, 0.0539180
2754.6, 0.0545100
2756.06, 0.0547530
2757.53, 0.0540800
2759.0, 0.0537570
2760.46, 0.0537840
2761.94, 0.0541870
2763.41, 0.0544030
2764.88, 0.0541330
2766.36, 0.0540260
2767.83, 0.0541070
2769.31, 0.0540800
2770.79, 0.0542140
2772.27, 0.0540800
2773.76, 0.0537840
2775.24, 0.0536760
2776.73, 0.0537840
2778.22, 0.0538370
2779.71, 0.0539180
2781.2, 0.0539720
2782.69, 0.0538370
2784.18, 0.0537570
2785.68, 0.0539720
2787.18, 0.0541600
2788.68, 0.0538910
2790.18, 0.0537030
2791.68, 0.0537300
2793.19, 0.0537300
2794.69, 0.0537300
2796.2, 0.0537300
2797.71, 0.0535680
2799.22, 0.0533530
2800.73, 0.0534610
2802.24, 0.0539450
2803.76, 0.0540260
2805.28, 0.0537840
2806.8, 0.0536760
2808.32, 0.0536490
2809.84, 0.0536220
2811.36, 0.0535680
2812.89, 0.0535950
2814.42, 0.0536490
2815.94, 0.0534870
2817.48, 0.0534870
2819.01, 0.0536490
2820.54, 0.0537030
2822.08, 0.0536490
2823.61, 0.0535950
2825.15, 0.0536490
2826.69, 0.0536490
2828.23, 0.0535410
2829.78, 0.0534340
2831.32, 0.0534610
2832.87, 0.0535680
2834.42, 0.0535680
2835.97, 0.0535950
2837.52, 0.0537030
2839.08, 0.0535950
2840.63, 0.0535140
2842.19, 0.0535410
2843.75, 0.0534610
2845.31, 0.0535140
2846.87, 0.0535140
2848.44, 0.0535140
2850.0, 0.0535410
2851.57, 0.0535680
2853.14, 0.0536490
2854.71, 0.0536490
2856.28, 0.0535950
2857.86, 0.0535680
2859.43, 0.0536490
2861.01, 0.0536490
2862.59, 0.0535140
2864.17, 0.0535140
2865.76, 0.0536490
2867.34, 0.0537300
2868.93, 0.0536490
2870.52, 0.0535680
2872.11, 0.0535950
2873.7, 0.0535680
2875.29, 0.0535410
2876.89, 0.0535410
2878.49, 0.0535950
2880.08, 0.0535680
2881.69, 0.0534610
2883.29, 0.0534340
2884.89, 0.0534610
2886.5, 0.0535680
2888.11, 0.0535950
2889.72, 0.0535950
2891.33, 0.0535410
2892.94, 0.0535410
2894.56, 0.0534610
2896.17, 0.0533800
2897.79, 0.0534610
2899.42, 0.0535680
2901.04, 0.0535950
2902.66, 0.0535950
2904.29, 0.0536220
2905.92, 0.0535950
2907.55, 0.0535410
2909.18, 0.0535680
2910.81, 0.0535140
2912.45, 0.0535140
2914.08, 0.0535680
2915.72, 0.0536220
2917.36, 0.0536760
2919.01, 0.0537030
2920.65, 0.0536490
2922.3, 0.0537030
2923.94, 0.0538370
2925.59, 0.0537570
2927.25, 0.0536760
2928.9, 0.0537030
2930.56, 0.0537300
2932.21, 0.0537840
2933.87, 0.0537840
2935.53, 0.0537030
2937.2, 0.0537030
2938.86, 0.0538100
2940.53, 0.0537840
2942.2, 0.0538100
2943.87, 0.0538910
2945.54, 0.0539180
2947.22, 0.0539180
2948.89, 0.0538910
2950.57, 0.0538640
2952.25, 0.0538910
2953.93, 0.0539180
2955.62, 0.0539990
2957.3, 0.0540800
2958.99, 0.0541070
2960.68, 0.0541070
2962.37, 0.0541330
2964.07, 0.0540800
2965.76, 0.0540530
2967.46, 0.0541330
2969.16, 0.0542140
2970.86, 0.0542410
2972.56, 0.0542410
2974.27, 0.0542950
2975.98, 0.0543760
2977.69, 0.0543490
2979.4, 0.0542680
2981.11, 0.0542950
2982.83, 0.0543220
2984.54, 0.0542950
2986.26, 0.0542950
2987.98, 0.0544030
2989.71, 0.0544830
2991.43, 0.0544830
2993.16, 0.0545100
2994.89, 0.0545100
2996.62, 0.0545100
2998.35, 0.0546180
3000.09, 0.0545910
3001.83, 0.0545640
3003.57, 0.0545910
3005.31, 0.0546450
3007.05, 0.0547260
3008.79, 0.0547530
3010.54, 0.0548060
3012.29, 0.0548060
3014.04, 0.0548600
3015.8, 0.0548870
3017.55, 0.0548600
3019.31, 0.0548870
3021.07, 0.0548600
3022.83, 0.0548330
3024.59, 0.0548600
3026.36, 0.0548870
3028.13, 0.0549680
3029.9, 0.0550760
3031.67, 0.0551290
3033.44, 0.0551290
3035.22, 0.0551030
3037.0, 0.0551830
3038.78, 0.0552100
3040.56, 0.0551830
3042.34, 0.0552100
3044.13, 0.0552640
3045.92, 0.0553180
3047.71, 0.0553450
3049.5, 0.0553720
3051.3, 0.0553450
3053.09, 0.0553450
3054.89, 0.0553450
3056.69, 0.0553450
3058.5, 0.0554260
3060.3, 0.0554790
3062.11, 0.0555600
3063.92, 0.0555060
3065.73, 0.0554520
3067.55, 0.0555330
3069.36, 0.0555330
3071.18, 0.0555870
3073.0, 0.0557220
3074.82, 0.0556950
3076.65, 0.0556410
3078.48, 0.0556950
3080.31, 0.0556950
3082.14, 0.0556950
3083.97, 0.0557220
3085.8, 0.0557760
3087.64, 0.0558560
3089.48, 0.0558290
3091.33, 0.0558020
3093.17, 0.0559370
3095.02, 0.0559640
3096.87, 0.0559100
3098.72, 0.0558830
3100.57, 0.0558830
3102.43, 0.0558560
3104.28, 0.0558830
3106.14, 0.0559640
3108.01, 0.0560180
3109.87, 0.0561250
3111.74, 0.0562060
3113.61, 0.0562060
3115.48, 0.0561790
3117.35, 0.0561520
3119.23, 0.0561790
3121.1, 0.0561520
3122.98, 0.0561520
3124.87, 0.0562060
3126.75, 0.0562870
3128.64, 0.0563140
3130.53, 0.0563680
3132.42, 0.0563950
3134.31, 0.0563680
3136.21, 0.0563410
3138.11, 0.0563680
3140.01, 0.0563950
3141.91, 0.0564220
3143.82, 0.0564480
3145.73, 0.0564750
3147.64, 0.0565020
3149.55, 0.0565290
3151.46, 0.0565290
3153.38, 0.0565290
3155.3, 0.0565020
3157.22, 0.0565290
3159.14, 0.0565560
3161.07, 0.0566100
3163.0, 0.0566640
3164.93, 0.0567450
3166.86, 0.0567720
3168.8, 0.0567980
3170.74, 0.0567720
3172.68, 0.0567450
3174.62, 0.0567450
3176.56, 0.0567450
3178.51, 0.0567980
3180.46, 0.0568520
3182.42, 0.0568520
3184.37, 0.0569060
3186.33, 0.0569060
3188.29, 0.0569330
3190.25, 0.0569870
3192.21, 0.0570140
3194.18, 0.0570410
3196.15, 0.0570410
3198.12, 0.0570680
3200.09, 0.0570680
3202.07, 0.0570950
3204.05, 0.0571210
3206.03, 0.0572020
3208.02, 0.0571750
3210.0, 0.0571210
3211.99, 0.0571750
3213.98, 0.0571750
3215.98, 0.0571480
3217.97, 0.0570680
3219.97, 0.0570950
3221.97, 0.0572560
3223.98, 0.0572830
3225.98, 0.0572290
3227.99, 0.0572830
3230.0, 0.0573100
3232.02, 0.0573100
3234.03, 0.0573100
3236.05, 0.0572830
3238.07, 0.0573370
3240.1, 0.0574180
3242.12, 0.0574440
3244.15, 0.0574440
3246.18, 0.0574980
3248.22, 0.0575520
3250.25, 0.0575520
3252.29, 0.0575520
3254.33, 0.0575520
3256.38, 0.0575790
3258.43, 0.0575790
3260.47, 0.0576060
3262.53, 0.0575790
3264.58, 0.0575790
3266.64, 0.0576330
3268.7, 0.0576600
3270.76, 0.0577140
3272.82, 0.0577410
3274.89, 0.0577140
3276.96, 0.0576600
3279.04, 0.0577140
3281.11, 0.0577670
3283.19, 0.0577670
3285.27, 0.0577670
3287.35, 0.0577670
3289.44, 0.0577940
3291.53, 0.0578210
3293.62, 0.0578480
3295.71, 0.0578480
3297.81, 0.0579290
3299.91, 0.0579560
3302.01, 0.0579290
3304.11, 0.0579290
3306.22, 0.0580100
3308.33, 0.0580100
3310.44, 0.0580100
3312.56, 0.0580100
3314.68, 0.0580640
3316.8, 0.0581170
3318.92, 0.0581170
3321.05, 0.0581440
3323.18, 0.0581980
3325.31, 0.0581710
3327.44, 0.0581170
3329.58, 0.0581710
3331.72, 0.0582250
3333.86, 0.0581980
3336.01, 0.0582250
3338.16, 0.0582790
3340.31, 0.0583330
3342.46, 0.0582790
3344.61, 0.0582250
3346.77, 0.0582520
3348.94, 0.0583330
3351.1, 0.0583600
3353.27, 0.0583600
3355.44, 0.0583600
3357.61, 0.0584140
3359.79, 0.0584670
3361.97, 0.0585210
3364.15, 0.0586020
3366.33, 0.0586020
3368.52, 0.0585210
3370.71, 0.0584940
3372.9, 0.0585210
3375.1, 0.0585750
3377.3, 0.0586560
3379.5, 0.0586830
3381.71, 0.0586290
3383.91, 0.0586560
3386.12, 0.0587100
3388.34, 0.0587630
3390.55, 0.0588170
3392.77, 0.0588440
3394.99, 0.0587630
3397.22, 0.0586290
3399.45, 0.0587370
3401.68, 0.0588440
3403.91, 0.0588710
3406.15, 0.0589250
3408.39, 0.0589250
3410.63, 0.0588710
3412.87, 0.0588980
3415.12, 0.0589520
3417.37, 0.0589520
3419.63, 0.0590060
3421.88, 0.0590330
3424.14, 0.0590060
3426.41, 0.0590060
3428.67, 0.0590600
3430.94, 0.0591400
3433.21, 0.0591670
3435.49, 0.0591670
3437.77, 0.0592480
3440.05, 0.0592480
3442.33, 0.0592210
3444.62, 0.0592750
3446.91, 0.0593290
3449.2, 0.0593020
3451.5, 0.0593020
3453.8, 0.0593560
3456.1, 0.0593830
3458.41, 0.0593830
3460.72, 0.0594100
3463.03, 0.0594100
3465.34, 0.0594100
3467.66, 0.0594630
3469.98, 0.0595170
3472.31, 0.0595710
3474.63, 0.0595710
3476.96, 0.0595170
3479.3, 0.0595440
3481.64, 0.0595710
3483.97, 0.0595710
3486.32, 0.0596250
3488.66, 0.0596250
3491.01, 0.0595980
3493.36, 0.0596250
3495.72, 0.0597330
3498.08, 0.0598130
3500.44, 0.0597590
3502.81, 0.0597590
3505.18, 0.0598130
3507.55, 0.0598940
3509.92, 0.0599750
3512.3, 0.0599750
3514.68, 0.0600020
3517.06, 0.0600020
3519.45, 0.0600290
3521.84, 0.0600820
3524.24, 0.0601360
3526.64, 0.0601900
3529.04, 0.0601900
3531.44, 0.0602170
3533.85, 0.0602440
3536.26, 0.0601900
3538.67, 0.0602170
3541.09, 0.0602980
3543.51, 0.0602980
3545.93, 0.0602710
3548.36, 0.0602980
3550.79, 0.0602980
3553.22, 0.0603250
3555.66, 0.0603790
3558.1, 0.0603790
3560.54, 0.0603790
3562.99, 0.0604590
3565.44, 0.0605130
3567.9, 0.0605400
3570.35, 0.0605130
3572.81, 0.0605130
3575.28, 0.0605670
3577.75, 0.0606210
3580.22, 0.0606480
3582.69, 0.0606480
3585.17, 0.0606480
3587.65, 0.0606210
3590.14, 0.0606750
3592.62, 0.0607020
3595.11, 0.0607820
3597.61, 0.0607820
3600.11, 0.0608090
3602.61, 0.0608630
3605.11, 0.0608900
3607.62, 0.0608900
3610.14, 0.0609170
3612.65, 0.0609710
3615.17, 0.0609980
3617.69, 0.0610250
3620.22, 0.0610250
3622.75, 0.0609980
3625.28, 0.0610250
3627.82, 0.0610520
3630.36, 0.0610520
3632.9, 0.0610250
3635.45, 0.0610520
3638.0, 0.0611320
3640.56, 0.0611590
3643.12, 0.0611590
3645.68, 0.0611860
3648.24, 0.0612130
3650.81, 0.0612130
3653.39, 0.0611860
3655.96, 0.0611860
3658.54, 0.0612940
3661.13, 0.0613210
3663.71, 0.0613210
3666.3, 0.0613210
3668.9, 0.0613750
3671.5, 0.0614020
3674.1, 0.0614280
3676.7, 0.0614280
3679.31, 0.0614550
3681.93, 0.0614820
3684.54, 0.0614820
3687.17, 0.0615090
3689.79, 0.0615360
3692.42, 0.0615900
3695.05, 0.0616170
3697.69, 0.0615900
3700.32, 0.0616170
3702.97, 0.0616710
3705.61, 0.0616980
3708.27, 0.0616710
3710.92, 0.0616980
3713.58, 0.0617510
3716.24, 0.0617250
3718.91, 0.0617250
3721.58, 0.0617780
3724.25, 0.0618050
3726.93, 0.0618590
3729.61, 0.0619400
3732.29, 0.0619670
3734.98, 0.0619670
3737.67, 0.0619670
3740.37, 0.0620210
3743.07, 0.0620480
3745.78, 0.0620480
3748.49, 0.0620740
3751.2, 0.0621010
3753.91, 0.0621010
3756.63, 0.0621280
3759.36, 0.0621820
3762.09, 0.0622090
3764.82, 0.0621550
3767.55, 0.0622360
3770.29, 0.0622630
3773.04, 0.0622360
3775.78, 0.0622360
3778.54, 0.0623170
3781.29, 0.0623980
3784.05, 0.0624510
3786.82, 0.0624240
3789.59, 0.0623980
3792.36, 0.0623710
3795.13, 0.0623440
3797.92, 0.0623980
3800.7, 0.0624240
3803.49, 0.0624510
3806.28, 0.0625050
3809.08, 0.0625050
3811.88, 0.0625320
3814.68, 0.0625860
3817.49, 0.0626400
3820.31, 0.0625860
3823.12, 0.0625590
3825.94, 0.0625590
3828.77, 0.0626130
3831.6, 0.0626400
3834.43, 0.0626940
3837.27, 0.0627470
3840.11, 0.0627470
3842.96, 0.0627210
3845.81, 0.0627740
3848.67, 0.0627470
3851.53, 0.0627470
3854.39, 0.0628010
3857.26, 0.0628550
3860.13, 0.0628550
3863.01, 0.0628550
3865.89, 0.0628280
3868.77, 0.0628010
3871.66, 0.0628550
3874.55, 0.0629360
3877.45, 0.0629360
3880.35, 0.0628820
3883.26, 0.0628550
3886.17, 0.0629360
3889.09, 0.0629900
3892.01, 0.0630170
3894.93, 0.0629900
3897.86, 0.0629630
3900.79, 0.0629630
3903.73, 0.0630170
3906.67, 0.0630700
3909.62, 0.0630700
3912.57, 0.0630700
3915.52, 0.0630970
3918.48, 0.0630700
3921.45, 0.0630970
3924.42, 0.0630970
3927.39, 0.0630970
3930.37, 0.0631240
3933.35, 0.0631510
3936.34, 0.0631240
3939.33, 0.0631510
3942.32, 0.0631510
3945.32, 0.0631780
3948.33, 0.0632050
3951.34, 0.0631780
3954.35, 0.0631780
3957.37, 0.0631780
3960.39, 0.0631510
3963.42, 0.0631780
3966.45, 0.0631780
3969.49, 0.0632050
3972.53, 0.0631780
3975.58, 0.0632050
3978.63, 0.0632860
3981.68, 0.0633400
3984.75, 0.0633400
3987.81, 0.0633400
3990.88, 0.0633670
3993.95, 0.0633670
3997.03, 0.0633670
4000.12, 0.0633930
4003.21, 0.0634470
4006.3, 0.0634740
4009.4, 0.0635010
4012.5, 0.0635280
4015.61, 0.0635280
4018.72, 0.0635010
4021.84, 0.0635010
4024.96, 0.0635550
4028.09, 0.0636360
4031.22, 0.0636630
4034.36, 0.0637170
4037.5, 0.0637430
4040.65, 0.0637430
4043.8, 0.0636900
4046.96, 0.0636630
4050.12, 0.0637430
4053.29, 0.0637700
4056.46, 0.0638240
4059.64, 0.0638510
4062.82, 0.0638510
4066.0, 0.0638240
4069.19, 0.0638510
4072.39, 0.0638780
4075.59, 0.0639320
4078.8, 0.0639050
4082.01, 0.0639050
4085.23, 0.0639590
4088.45, 0.0639860
4091.68, 0.0639860
4094.91, 0.0639860
4098.15, 0.0639590
4101.39, 0.0639320
4104.63, 0.0639860
4107.89, 0.0640400
4111.14, 0.0640400
4114.41, 0.0640130
4117.67, 0.0640400
4120.95, 0.0640400
4124.23, 0.0640400
4127.51, 0.0641200
4130.8, 0.0640930
4134.09, 0.0640400
4137.39, 0.0640400
4140.7, 0.0640930
4144.01, 0.0641200
4147.32, 0.0640930
4150.64, 0.0641200
4153.97, 0.0641470
4157.3, 0.0641200
4160.64, 0.0641740
4163.98, 0.0642550
4167.33, 0.0643090
4170.68, 0.0643090
4174.04, 0.0642820
4177.4, 0.0642820
4180.77, 0.0642820
4184.14, 0.0642550
4187.52, 0.0643090
4190.91, 0.0643890
4194.3, 0.0644430
4197.69, 0.0644700
4201.1, 0.0644700
4204.5, 0.0644970
4207.92, 0.0644700
4211.34, 0.0645510
4214.76, 0.0646320
4218.19, 0.0646590
4221.62, 0.0647390
4225.06, 0.0648470
4228.51, 0.0649550
4231.96, 0.0650090
4235.42, 0.0650090
4238.88, 0.0649820
4242.35, 0.0649820
4245.83, 0.0648740
4249.31, 0.0647930
4252.79, 0.0647660
4256.28, 0.0647130
4259.78, 0.0647390
4263.29, 0.0647930
4266.79, 0.0649010
4270.31, 0.0649550
4273.83, 0.0649550
4277.35, 0.0649820
4280.89, 0.0649820
4284.42, 0.0649820
4287.97, 0.0649550
4291.52, 0.0649550
4295.07, 0.0649280
4298.63, 0.0649010
4302.2, 0.0648470
4305.78, 0.0648470
4309.35, 0.0648470
4312.94, 0.0648200
4316.53, 0.0647930
4320.13, 0.0647930
4323.73, 0.0647930
4327.34, 0.0647660
4330.96, 0.0647660
4334.58, 0.0647930
4338.21, 0.0648200
4341.84, 0.0647660
4345.48, 0.0648200
4349.12, 0.0648200
4352.77, 0.0647930
4356.43, 0.0647930
4360.1, 0.0648200
4363.76, 0.0648200
4367.44, 0.0648200
4371.12, 0.0648470
4374.81, 0.0648740
4378.51, 0.0648200
4382.21, 0.0648200
4385.92, 0.0649010
4389.63, 0.0649280
4393.35, 0.0649280
4397.08, 0.0649280
4400.81, 0.0649550
4404.55, 0.0649820
4408.29, 0.0649550
4412.04, 0.0649550
4415.8, 0.0650090
4419.57, 0.0650360
4423.34, 0.0650090
4427.12, 0.0649820
4430.9, 0.0650090
4434.69, 0.0649820
4438.49, 0.0650360
4442.29, 0.0651160
4446.1, 0.0651160
4449.92, 0.0650890
4453.74, 0.0650890
4457.57, 0.0650620
4461.41, 0.0650620
4465.25, 0.0650890
4469.1, 0.0651160
4472.95, 0.0650890
4476.82, 0.0650890
4480.69, 0.0651160
4484.56, 0.0650890
4488.44, 0.0651430
4492.33, 0.0651700
4496.23, 0.0651700
4500.13, 0.0651430
4504.04, 0.0651430
4507.96, 0.0651430
4511.88, 0.0651700
4515.81, 0.0651700
4519.75, 0.0651700
4523.69, 0.0651970
4527.65, 0.0651700
4531.6, 0.0651430
4535.57, 0.0651430
4539.54, 0.0651700
4543.52, 0.0651430
4547.5, 0.0651430
4551.5, 0.0651430
4555.5, 0.0651160
4559.5, 0.0651160
4563.52, 0.0651700
4567.54, 0.0651970
4571.56, 0.0651700
4575.6, 0.0651700
4579.64, 0.0651430
4583.69, 0.0651160
4587.75, 0.0651430
4591.81, 0.0651430
4595.88, 0.0651160
4599.96, 0.0651430
4604.04, 0.0651970
4608.14, 0.0651430
4612.24, 0.0651160
4616.34, 0.0651430
4620.46, 0.0651700
4624.58, 0.0651700
4628.71, 0.0651160
4632.84, 0.0650620
4636.99, 0.0650360
4641.14, 0.0650360
4645.3, 0.0650890
4649.47, 0.0650890
4653.64, 0.0650620
4657.82, 0.0649820
4662.01, 0.0649550
4666.21, 0.0649550
4670.41, 0.0649280
4674.62, 0.0649280
4678.84, 0.0649280
4683.07, 0.0649280
4687.3, 0.0649550
4691.54, 0.0649550
4695.79, 0.0649280
4700.05, 0.0648740
4704.31, 0.0648470
4708.59, 0.0648740
4712.87, 0.0648740
4717.15, 0.0648740
4721.45, 0.0648470
4725.76, 0.0648470
4730.07, 0.0648470
4734.39, 0.0647930
4738.72, 0.0648470
4743.05, 0.0648470
4747.39, 0.0647930
4751.75, 0.0648200
4756.1, 0.0648470
4760.47, 0.0648200
4764.85, 0.0648200
4769.23, 0.0648470
4773.62, 0.0648470
4778.02, 0.0648200
4782.43, 0.0647930
4786.85, 0.0647660
4791.27, 0.0647930
4795.7, 0.0647930
4800.14, 0.0647390
4804.59, 0.0647390
4809.05, 0.0647390
4813.51, 0.0647130
4817.99, 0.0647390
4822.47, 0.0647660
4826.96, 0.0647660
4831.46, 0.0647390
4835.96, 0.0647660
4840.48, 0.0647930
4845.0, 0.0647660
4849.54, 0.0647660
4854.08, 0.0647390
4858.63, 0.0646590
4863.18, 0.0646590
4867.75, 0.0646320
4872.33, 0.0645780
4876.91, 0.0645780
4881.5, 0.0645510
4886.1, 0.0644970
4890.71, 0.0644160
4895.33, 0.0643630
4899.96, 0.0642820
4904.59, 0.0642010
4909.24, 0.0641470
4913.89, 0.0640400
4918.55, 0.0639590
4923.22, 0.0639320
4927.9, 0.0638510
4932.59, 0.0637970
4937.29, 0.0637700
4942.0, 0.0636900
4946.71, 0.0636360
4951.44, 0.0636360
4956.17, 0.0636360
4960.91, 0.0635550
4965.67, 0.0635010
4970.43, 0.0635010
4975.2, 0.0635550
4979.98, 0.0635550
4984.76, 0.0635280
4989.56, 0.0635280
4994.37, 0.0635280
4999.18, 0.0635280
5004.01, 0.0635280
5008.84, 0.0635280
5013.69, 0.0635820
5018.54, 0.0636900
5023.4, 0.0636900
5028.28, 0.0636360
5033.16, 0.0636630
5038.05, 0.0636090
5042.95, 0.0636360
5047.86, 0.0636630
5052.78, 0.0636900
5057.71, 0.0636630
5062.65, 0.0636900
5067.6, 0.0637170
5072.56, 0.0637700
5077.53, 0.0637970
5082.5, 0.0638780
5087.49, 0.0638240
5092.49, 0.0637970
5097.5, 0.0637700
5102.51, 0.0637700
5107.54, 0.0638240
5112.58, 0.0638510
5117.62, 0.0638240
5122.68, 0.0637700
5127.75, 0.0637970
5132.82, 0.0638240
5137.91, 0.0638240
5143.01, 0.0639050
5148.12, 0.0639320
5153.23, 0.0638240
5158.36, 0.0637430
5163.5, 0.0637700
5168.65, 0.0637170
5173.81, 0.0636900
5178.98, 0.0636360
5184.15, 0.0636360
5189.34, 0.0636360
5194.54, 0.0636900
5199.75, 0.0637700
5204.98, 0.0636900
5210.21, 0.0637170
5215.45, 0.0637430
5220.7, 0.0635280
5225.96, 0.0634740
5231.23, 0.0634740
5236.52, 0.0635550
5241.81, 0.0635280
5247.12, 0.0634740
5252.44, 0.0634470
5257.76, 0.0634470
5263.1, 0.0634470
5268.45, 0.0634740
5273.81, 0.0635010
5279.18, 0.0635550
5284.56, 0.0635550
5289.95, 0.0637170
5295.36, 0.0636630
5300.77, 0.0635550
5306.2, 0.0635550
5311.63, 0.0635280
5317.08, 0.0635280
5322.54, 0.0635280
5328.01, 0.0635280
5333.49, 0.0634740
5338.98, 0.0634470
5344.49, 0.0636630
5350.0, 0.0639590
5355.53, 0.0637700
5361.07, 0.0635010
5366.62, 0.0634470
5372.18, 0.0634200
5377.75, 0.0633930
5383.34, 0.0633400
5388.93, 0.0632860
5394.54, 0.0632590
5400.16, 0.0632590
5405.79, 0.0633130
5411.44, 0.0633670
5417.09, 0.0636360
5422.76, 0.0638780
5428.43, 0.0633930
5434.12, 0.0630970
5439.83, 0.0630440
5445.54, 0.0630170
5451.26, 0.0629360
5457.0, 0.0630440
5462.75, 0.0633670
5468.52, 0.0632860
5474.29, 0.0631510
5480.08, 0.0632050
5485.88, 0.0629900
5491.69, 0.0629090
5497.51, 0.0628820
5503.35, 0.0629090
5509.2, 0.0629360
5515.06, 0.0629900
5520.93, 0.0630440
5526.82, 0.0630700
5532.71, 0.0629900
5538.63, 0.0629630
5544.55, 0.0629630
5550.49, 0.0630970
5556.44, 0.0631240
5562.4, 0.0630170
5568.37, 0.0629630
5574.36, 0.0633130
5580.36, 0.0635010
5586.37, 0.0630170
5592.4, 0.0626940
5598.44, 0.0627210
5604.49, 0.0627210
5610.56, 0.0626670
5616.63, 0.0626940
5622.73, 0.0625590
5628.83, 0.0625320
5634.95, 0.0628280
5641.08, 0.0633670
5647.23, 0.0631510
5653.39, 0.0628820
5659.56, 0.0627210
5665.74, 0.0625320
5671.94, 0.0628550
5678.15, 0.0629630
5684.38, 0.0628010
5690.62, 0.0628550
5696.87, 0.0627740
5703.14, 0.0629090
5709.42, 0.0634740
5715.72, 0.0634740
5722.03, 0.0632860
5728.35, 0.0631240
5734.69, 0.0632050
5741.03, 0.0633930
5747.4, 0.0636630
5753.78, 0.0634200
5760.17, 0.0639320
5766.58, 0.0647930
5773.0, 0.0640400
5779.44, 0.0634200
5785.88, 0.0632320
5792.35, 0.0631240
5798.83, 0.0631780
5805.32, 0.0631240
5811.83, 0.0633930
5818.35, 0.0642820
5824.89, 0.0645510
5831.45, 0.0639320
5838.01, 0.0634200
5844.59, 0.0632050
5851.19, 0.0632860
5857.8, 0.0635280
5864.43, 0.0637430
5871.07, 0.0637430
5877.73, 0.0649820
5884.4, 0.0649820
5891.09, 0.0643360
5897.79, 0.0644700
5904.5, 0.0635280
5911.23, 0.0631510
5917.98, 0.0632320
5924.75, 0.0633670
5931.53, 0.0643360
5938.32, 0.0649280
5945.13, 0.0637700
5951.96, 0.0631510
5958.8, 0.0630440
5965.65, 0.0636630
5972.53, 0.0636360
5979.42, 0.0632590
5986.32, 0.0636360
5993.24, 0.0635010
6000.18, 0.0628550
6007.13, 0.0629090
6014.1, 0.0632860
6021.08, 0.0629900
6028.09, 0.0627210
6035.1, 0.0630170
6042.14, 0.0644700
6049.19, 0.0660320
6056.25, 0.0645780
6063.34, 0.0638780
6070.44, 0.0645780
6077.55, 0.0644160
6084.69, 0.0636900
6091.84, 0.0635550
6099.0, 0.0637170
6106.19, 0.0644160
6113.39, 0.0653050
6120.61, 0.0645510
6127.84, 0.0637970
6135.09, 0.0639320
6142.36, 0.0641740
6149.65, 0.0642010
6156.95, 0.0645240
6164.27, 0.0643890
6171.61, 0.0640130
6178.97, 0.0645240
6186.34, 0.0650620
6193.73, 0.0643360
6201.14, 0.0639590
6208.57, 0.0640400
6216.01, 0.0640660
6223.47, 0.0639590
6230.95, 0.0639860
6238.45, 0.0640130
6245.97, 0.0639590
6253.5, 0.0638510
6261.06, 0.0639050
6268.63, 0.0639590
6276.21, 0.0639590
6283.82, 0.0638780
6291.45, 0.0637970
6299.1, 0.0637700
6306.76, 0.0637430
6314.44, 0.0637170
6322.14, 0.0637700
6329.86, 0.0638510
6337.6, 0.0645240
6345.35, 0.0650890
6353.13, 0.0642820
6360.92, 0.0640930
6368.74, 0.0646860
6376.57, 0.0644700
6384.43, 0.0641740
6392.3, 0.0642010
6400.19, 0.0644970
6408.1, 0.0661390
6416.03, 0.0670540
6423.98, 0.0656820
6431.95, 0.0650090
6439.94, 0.0645780
6447.95, 0.0644160
6455.98, 0.0643890
6464.03, 0.0644160
6472.1, 0.0648740
6480.19, 0.0654660
6488.31, 0.0664350
6496.44, 0.0663280
6504.59, 0.0648470
6512.76, 0.0644970
6520.95, 0.0649010
6529.16, 0.0643630
6537.4, 0.0641740
6545.65, 0.0643890
6553.92, 0.0646050
6562.22, 0.0647660
6570.54, 0.0653850
6578.88, 0.0650360
6587.23, 0.0646320
6595.61, 0.0643890
6604.02, 0.0639860
6612.44, 0.0639860
6620.89, 0.0641200
6629.35, 0.0650890
6637.84, 0.0658160
6646.35, 0.0645780
6654.88, 0.0635820
6663.44, 0.0636630
6672.01, 0.0640400
6680.61, 0.0642820
6689.23, 0.0638240
6697.88, 0.0634740
6706.54, 0.0639050
6715.23, 0.0640660
6723.94, 0.0637700
6732.67, 0.0633400
6741.42, 0.0631510
6750.2, 0.0631780
6759.0, 0.0631240
6767.82, 0.0633400
6776.67, 0.0636900
6785.54, 0.0641740
6794.44, 0.0640130
6803.35, 0.0631510
6812.29, 0.0629360
6821.26, 0.0633400
6830.24, 0.0633930
6839.25, 0.0629630
6848.29, 0.0632050
6857.35, 0.0642280
6866.43, 0.0644160
6875.54, 0.0632050
6884.67, 0.0626940
6893.82, 0.0626130
6903.0, 0.0627740
6912.2, 0.0627210
6921.43, 0.0624780
6930.69, 0.0623710
6939.96, 0.0623440
6949.27, 0.0626130
6958.59, 0.0632050
6967.95, 0.0626940
6977.33, 0.0621820
6986.73, 0.0622360
6996.16, 0.0621820
7005.61, 0.0619940
7015.09, 0.0619940
7024.6, 0.0619130
7034.13, 0.0619670
7043.69, 0.0624780
7053.27, 0.0621280
7062.88, 0.0615360
7072.52, 0.0613480
7082.18, 0.0613210
7091.87, 0.0612940
7101.58, 0.0612940
7111.32, 0.0613750
7121.09, 0.0613210
7130.88, 0.0612130
7140.71, 0.0613480
7150.56, 0.0614550
7160.43, 0.0614820
7170.33, 0.0615360
7180.27, 0.0612400
7190.23, 0.0611050
7200.21, 0.0612940
7210.23, 0.0614020
7220.27, 0.0611050
7230.34, 0.0609980
7240.44, 0.0609440
7250.56, 0.0609440
7260.72, 0.0609170
7270.9, 0.0610780
7281.12, 0.0610520
7291.36, 0.0608630
7301.63, 0.0608090
7311.93, 0.0607820
7322.25, 0.0607290
7332.61, 0.0608360
7343.0, 0.0607820
7353.41, 0.0605400
7363.86, 0.0603790
7374.33, 0.0603250
7384.83, 0.0602710
7395.37, 0.0601630
7405.93, 0.0601090
7416.53, 0.0600560
7427.15, 0.0599750
7437.81, 0.0599480
7448.5, 0.0599480
7459.22, 0.0600820
7469.96, 0.0601630
7480.74, 0.0600560
7491.55, 0.0599210
7502.39, 0.0599210
7513.27, 0.0599750
7524.17, 0.0599480
7535.11, 0.0598940
7546.08, 0.0598940
7557.08, 0.0598670
7568.11, 0.0598670
7579.17, 0.0598670
7590.27, 0.0598670
7601.4, 0.0598670
7612.56, 0.0598400
7623.76, 0.0598400
7634.98, 0.0598940
7646.24, 0.0598940
7657.54, 0.0598400
7668.87, 0.0598130
7680.23, 0.0598670
7691.62, 0.0599210
7703.05, 0.0598940
7714.51, 0.0598940
7726.01, 0.0599210
7737.54, 0.0599480
7749.11, 0.0599750
7760.71, 0.0599750
7772.35, 0.0599750
7784.02, 0.0599480
7795.72, 0.0599210
7807.46, 0.0599480
7819.23, 0.0599750
7831.04, 0.0599480
7842.89, 0.0599750
7854.77, 0.0600020
7866.69, 0.0599750
7878.65, 0.0599480
7890.64, 0.0599210
7902.67, 0.0599480
7914.74, 0.0599480
7926.84, 0.0599480
7938.98, 0.0599750
7951.16, 0.0599750
7963.37, 0.0599750
7975.62, 0.0599480
7987.91, 0.0598940
8000.24, 0.0598670
8012.6, 0.0598400
8025.01, 0.0598400
8037.45, 0.0598400
8049.93, 0.0597330
8062.45, 0.0595980
8075.01, 0.0594630
8087.61, 0.0594100
8100.24, 0.0593830
8112.91, 0.0593290
8125.63, 0.0592210
8138.39, 0.0591400
8151.18, 0.0591400
8164.02, 0.0591400
8176.9, 0.0590870
8189.81, 0.0590600
8202.77, 0.0590870
8215.77, 0.0590330
8228.82, 0.0589520
8241.9, 0.0589250
8255.02, 0.0588710
8268.19, 0.0588170
8281.39, 0.0587630
8294.65, 0.0587100
8307.94, 0.0586560
8321.28, 0.0586290
8334.66, 0.0585480
8348.08, 0.0585210
8361.54, 0.0584400
8375.05, 0.0583330
8388.6, 0.0582250
8402.2, 0.0581980
8415.84, 0.0581170
8429.52, 0.0580640
8443.25, 0.0580910
8457.02, 0.0580100
8470.84, 0.0579020
8484.7, 0.0578480
8498.61, 0.0578210
8512.57, 0.0577670
8526.57, 0.0576600
8540.62, 0.0575520
8554.71, 0.0575250
8568.85, 0.0574710
8583.04, 0.0573640
8597.27, 0.0573100
8611.55, 0.0572560
8625.88, 0.0571750
8640.26, 0.0571210
8654.68, 0.0570950
8669.16, 0.0570410
8683.68, 0.0569600
8698.25, 0.0569060
8712.87, 0.0569060
8727.53, 0.0568250
8742.25, 0.0566910
8757.02, 0.0566640
8771.83, 0.0566910
8786.7, 0.0566370
8801.62, 0.0565830
8816.59, 0.0565290
8831.61, 0.0564750
8846.68, 0.0564480
8861.8, 0.0564220
8876.97, 0.0563140
8892.2, 0.0563140
8907.48, 0.0562870
8922.81, 0.0562600
8938.2, 0.0562330
8953.63, 0.0561790
8969.13, 0.0561250
8984.67, 0.0560180
9000.27, 0.0559100
9015.92, 0.0558830
9031.63, 0.0558560
9047.39, 0.0558560
9063.21, 0.0559370
9079.08, 0.0559370
9095.01, 0.0559100
9111.0, 0.0559640
9127.04, 0.0560450
9143.13, 0.0561520
9159.28, 0.0562870
9175.49, 0.0564220
9191.76, 0.0565560
9208.09, 0.0567720
9224.47, 0.0570140
9240.92, 0.0571750
9257.42, 0.0572830
9273.98, 0.0574710
9290.6, 0.0577140
9307.28, 0.0579560
9324.02, 0.0581170
9340.82, 0.0581980
9357.68, 0.0582790
9374.6, 0.0584400
9391.58, 0.0585750
9408.62, 0.0586290
9425.73, 0.0587370
9442.9, 0.0588710
9460.13, 0.0588980
9477.42, 0.0589250
9494.78, 0.0588710
9512.2, 0.0588440
9529.69, 0.0588170
9547.24, 0.0587900
9564.86, 0.0587370
9582.54, 0.0586830
9600.28, 0.0586020
9618.1, 0.0584670
9635.97, 0.0583870
9653.92, 0.0582790
9671.93, 0.0582250
9690.01, 0.0581710
9708.16, 0.0581170
9726.37, 0.0580100
9744.65, 0.0578210
9763.0, 0.0577410
9781.43, 0.0577410
9799.92, 0.0575520
9818.48, 0.0573910
9837.1, 0.0573370
9855.8, 0.0572290
9874.58, 0.0571750
9893.42, 0.0571210
9912.34, 0.0569870
9931.33, 0.0568520
9950.39, 0.0567450
9969.52, 0.0567180
9988.74, 0.0567450
10008.0, 0.0566640
10027.4, 0.0565560
10046.8, 0.0565560
10066.3, 0.0565560
10085.9, 0.0565020
10105.6, 0.0564480
10125.3, 0.0565020
10145.1, 0.0567980
10165.0, 0.0569330
10185.0, 0.0569600
10205.0, 0.0569060
10225.2, 0.0567720
10245.4, 0.0565560
10265.7, 0.0564220
10286.0, 0.0560990
10306.5, 0.0556950
10327.0, 0.0554260
10347.6, 0.0553180
10368.3, 0.0553180
10389.1, 0.0551830
10409.9, 0.0548870
10430.9, 0.0547800
10451.9, 0.0550220
10473.0, 0.0555870
10494.2, 0.0560720
10515.5, 0.0563140
10536.9, 0.0565290
10558.4, 0.0565830
10579.9, 0.0565020
10601.5, 0.0565020
10623.3, 0.0565020
10645.1, 0.0563680
10667.0, 0.0562060
10689.0, 0.0561250
10711.1, 0.0559910
10733.2, 0.0559640
10755.5, 0.0558020
10777.9, 0.0555870
10800.3, 0.0555060
10822.9, 0.0554260
10845.5, 0.0552910
10868.2, 0.0551830
10891.1, 0.0550490
10914.0, 0.0549410
10937.0, 0.0547800
10960.2, 0.0546720
10983.4, 0.0545370
11006.7, 0.0543760
11030.1, 0.0542680
11053.6, 0.0542410
11077.3, 0.0540530
11101.0, 0.0539180
11124.8, 0.0537840
11148.7, 0.0536760
11172.7, 0.0534610
11196.9, 0.0532720
11221.1, 0.0531110
11245.4, 0.0529760
11269.9, 0.0528140
11294.4, 0.0526260
11319.1, 0.0524380
11343.9, 0.0521410
11368.8, 0.0518720
11393.7, 0.0516570
11418.8, 0.0513880
11444.0, 0.0509840
11469.4, 0.0504990
11494.8, 0.0501230
11520.3, 0.0498260
11546.0, 0.0494500
11571.8, 0.0490730
11597.7, 0.0487770
11623.7, 0.0485880
11649.8, 0.0483190
11676.0, 0.0481310
11702.4, 0.0478880
11728.9, 0.0476460
11755.5, 0.0474310
11782.2, 0.0471880
11809.0, 0.0469730
11836.0, 0.0469460
11863.0, 0.0469460
11890.3, 0.0468650
11917.6, 0.0468120
11945.0, 0.0468120
11972.6, 0.0467040
12000.4, 0.0465420
12028.2, 0.0463270
12056.2, 0.0460580
12084.3, 0.0458430
12112.5, 0.0456810
12140.9, 0.0454660
12169.4, 0.0452770
12198.0, 0.0451430
12226.8, 0.0450080
12255.7, 0.0447930
12284.7, 0.0445770
12313.9, 0.0443890
12343.2, 0.0442000
12372.7, 0.0440390
12402.3, 0.0439040
12432.0, 0.0438510
12461.9, 0.0436350
12491.9, 0.0434470
12522.1, 0.0434200
12552.4, 0.0433660
12582.9, 0.0432850
12613.5, 0.0431780
12644.3, 0.0431780
12675.2, 0.0432850
12706.3, 0.0433120
12737.5, 0.0433660
12768.9, 0.0435280
12800.4, 0.0436890
12832.1, 0.0440120
12863.9, 0.0443620
12895.9, 0.0445770
12928.1, 0.0447930
12960.4, 0.0450350
12992.9, 0.0454390
13025.5, 0.0460040
13058.3, 0.0464080
13091.3, 0.0467850
13124.4, 0.0472690
13157.8, 0.0478080
13191.2, 0.0484000
13224.9, 0.0489650
13258.7, 0.0494770
13292.7, 0.0499880
13326.9, 0.0505800
13361.2, 0.0513070
13395.7, 0.0520070
13430.4, 0.0526530
13465.3, 0.0533260
13500.4, 0.0539990
13535.7, 0.0546450
13571.1, 0.0552370
13606.7, 0.0559370
13642.5, 0.0568520
13678.5, 0.0579560
13714.7, 0.0588440
13751.1, 0.0595980
13787.6, 0.0608360
13824.4, 0.0623710
13861.4, 0.0639590
13898.5, 0.0655740
13935.9, 0.0672700
13973.5, 0.0692350
14011.2, 0.0712270
14049.2, 0.0733260
14087.4, 0.0753990
14125.8, 0.0774450
14164.3, 0.0795450
14203.2, 0.0814830
14242.2, 0.0834210
14281.4, 0.0853050
14320.9, 0.0870820
14360.5, 0.0889390
14400.4, 0.0907160
14440.5, 0.0923580
14480.9, 0.0939730
14521.4, 0.0954810
14562.2, 0.0967460
14603.3, 0.0980380
14644.5, 0.0992490
14686.0, 0.100568
14727.7, 0.101699
14769.7, 0.102668
14811.9, 0.103583
14854.3, 0.104364
14897.0, 0.105037
14939.9, 0.106113
14983.1, 0.107056
15026.5, 0.107459
15070.2, 0.107971
15114.2, 0.108617
15158.3, 0.109074
15202.8, 0.109505
15247.5, 0.109936
15292.5, 0.110582
15337.7, 0.111120
15383.2, 0.111470
15429.0, 0.111955
15475.1, 0.112116
15521.4, 0.112009
15568.0, 0.112251
15614.9, 0.112628
15662.1, 0.112816
15709.6, 0.112924
15757.3, 0.113032
15805.4, 0.113193
15853.7, 0.113381
15902.3, 0.113489
15951.2, 0.113758
16000.5, 0.114108
16050.0, 0.114216
16099.8, 0.114135
16150.0, 0.114351
16200.5, 0.114781
16251.3, 0.115212
16302.4, 0.115804
16353.8, 0.116666
16405.5, 0.117312
16457.6, 0.117877
16510.0, 0.118577
16562.8, 0.119600
16615.9, 0.120623
16669.3, 0.121672
16723.1, 0.122857
16777.2, 0.124068
16831.7, 0.125441
16886.5, 0.126949
16941.7, 0.128564
16997.2, 0.130125
17053.1, 0.131767
17109.4, 0.133651
17166.1, 0.135455
17223.1, 0.137366
17280.5, 0.139304
17338.3, 0.141323
17396.5, 0.143127
17455.1, 0.144957
17514.0, 0.146626
17573.4, 0.147945
17633.2, 0.149076
17693.4, 0.150072
17754.0, 0.150772
17815.0, 0.151256
17876.4, 0.151202
17938.3, 0.150664
18000.5, 0.149829
18063.3, 0.149210
18126.4, 0.148349
18190.0, 0.147326
18254.1, 0.146653
18318.6, 0.146357
18383.5, 0.145522
18449.0, 0.144473
18514.9, 0.143450
18581.2, 0.142750
18648.0, 0.142104
18715.4, 0.141646
18783.2, 0.141323
18851.5, 0.140919
18920.3, 0.140246
18989.6, 0.139843
19059.4, 0.139197
19129.7, 0.138066
19200.6, 0.137420
19272.0, 0.136397
19343.9, 0.135293
19416.3, 0.134513
19489.3, 0.133732
19562.8, 0.133274
19637.0, 0.133059
19711.6, 0.132682
19786.8, 0.131902
19862.6, 0.131605
19939.0, 0.131175
20016.0, 0.130636
20093.6, 0.130152
20171.8, 0.129479
20250.6, 0.128537
20330.0, 0.127648
20410.0, 0.127002
20490.7, 0.126276
20572.0, 0.125603
20654.0, 0.125522
20736.6, 0.124903
20819.9, 0.124176
20903.8, 0.124176
20988.5, 0.124665
21073.8, 0.124947
21159.8, 0.125138
21246.5, 0.125380
21334.0, 0.125687
21422.1, 0.125999
21511.0, 0.126099
21600.7, 0.125800
21691.0, 0.125229
21782.1, 0.124551
21874.0, 0.123734
21966.7, 0.122781
22060.2, 0.122025
22154.5, 0.121794
22249.6, 0.121980
22345.5, 0.122373
22442.2, 0.122819
22539.8, 0.123235
22638.2, 0.123810
22737.5, 0.124694
22837.7, 0.125565
22938.7, 0.126046
23040.7, 0.126084
23143.5, 0.125745
23247.3, 0.125260
23352.1, 0.124840
23457.7, 0.124421
23564.4, 0.123915
23672.0, 0.123444
23780.5, 0.123130
23890.1, 0.122864
24000.7, 0.122490
24112.3, 0.121918
24225.0, 0.121193
24338.7, 0.120835
24453.5, 0.121338
24569.4, 0.122498
24686.4, 0.123998
24804.5, 0.125840
24923.8, 0.128050
25044.2, 0.130417
25165.8, 0.132664
25288.6, 0.134551
25412.5, 0.135880
25537.7, 0.136626
25664.1, 0.136823
25791.8, 0.136550
25920.8, 0.135920
26051.1, 0.135131
26182.6, 0.134361
26315.5, 0.133590
26449.8, 0.132793
26585.4, 0.132141
26722.5, 0.131803
26860.9, 0.131714
27000.8, 0.131785
27142.1, 0.132125
27285.0, 0.132875
27429.4, 0.134093
27575.3, 0.135785
27722.7, 0.137816
27871.8, 0.140023
28022.4, 0.142302
28174.7, 0.144590
28328.7, 0.146970
28484.4, 0.149427
28641.7, 0.151380
28800.9, 0.152289
28961.8, 0.152478
29124.5, 0.152407
29289.0, 0.152082
29455.4, 0.151452
29623.8, 0.150724
29794.0, 0.150102
29966.3, 0.149472
30140.5, 0.148719
30316.7, 0.148099
30495.1, 0.147855
30675.5, 0.147718
30858.1, 0.147316
31042.8, 0.146467
31229.8, 0.145136
31419.1, 0.143736
31610.7, 0.142679
31804.6, 0.141829
32000.9, 0.140960
32199.7, 0.140120
32400.9, 0.139476
32604.8, 0.139373
32811.1, 0.140027
33020.1, 0.140868
33231.8, 0.141212
33446.2, 0.140867
33663.4, 0.139909
33883.4, 0.138976
34106.3, 0.138689
34332.1, 0.138854
34561.0, 0.139072
34792.9, 0.139067
35028.0, 0.138728
35266.3, 0.138549
35507.8, 0.138957
35752.7, 0.139327
36001.0, 0.138853
36252.8, 0.137282
36508.1, 0.134763
36767.0, 0.132522
37029.7, 0.131717
37296.1, 0.131759
37566.3, 0.131736
37840.5, 0.131454
38118.8, 0.130945
38401.2, 0.130371
38687.8, 0.129928
38978.6, 0.129761
39273.9, 0.129955
39573.7, 0.130386
39878.1, 0.130848
40187.3, 0.131073
40501.2, 0.130819
40820.0, 0.130081
41144.0, 0.128999
41473.2, 0.128037
41807.6, 0.127653
42147.5, 0.127792
42493.0, 0.128274
42844.2, 0.128982
43201.2, 0.129858
43564.3, 0.131027
43933.5, 0.132488
44309.0, 0.133483
44691.0, 0.133277
45079.6, 0.132278
45475.0, 0.131157
45877.5, 0.130264
46287.1, 0.129797
46704.2, 0.129608
47128.7, 0.129507
47561.1, 0.129547
48001.5, 0.129866
48450.1, 0.130646
48907.2, 0.131900
49373.0, 0.132827
49847.7, 0.132594
50331.5, 0.131393
50825.0, 0.129798
51328.2, 0.128738
51841.5, 0.128951
52365.1, 0.129715
52899.4, 0.130011
53444.8, 0.129501
54001.5, 0.128224
54570.1, 0.127075
55150.6, 0.126929
55743.6, 0.127289
56349.5, 0.127415
56968.7, 0.127320
57601.7, 0.127207
58248.9, 0.127197
58910.9, 0.127316
59588.1, 0.127259
60281.0, 0.126703
60990.2, 0.125748
61716.3, 0.124689
62459.8, 0.124131
63221.6, 0.124695
64002.1, 0.126511
64802.1, 0.129406
65622.1, 0.132476
66463.4, 0.134669
67326.6, 0.135497
68212.4, 0.134905
69121.9, 0.134155
70056.0, 0.134632
71015.7, 0.136153
72002.0, 0.138005
73016.3, 0.139250
74059.4, 0.139172
75132.7, 0.138640
76237.6, 0.138692
77375.5, 0.138717
78547.9, 0.137884
79756.3, 0.136779
81002.5, 0.136320
82288.5, 0.136779
83615.7, 0.138001
84986.5, 0.138716
86402.9, 0.137690
87867.4, 0.135878
89382.4, 0.134822
90950.5, 0.135269
92574.6, 0.137379
94257.2, 0.139480
96002.7, 0.139686
97814.1, 0.138503
99695.1, 0.137172
101650.0, 0.136611
103683.0, 0.137524
105799.0, 0.139647
108003.0, 0.142276
110301.0, 0.144285
112699.0, 0.144561
115204.0, 0.143278
117822.0, 0.141060
120562.0, 0.138517
123433.0, 0.136248
126443.0, 0.134429
129604.0, 0.133347
132926.0, 0.134354
136424.0, 0.138511
140111.0, 0.143004
144003.0, 0.144210
148118.0, 0.143095
152474.0, 0.142190
157095.0, 0.142973
162004.0, 0.146448
167231.0, 0.151899
172805.0, 0.151899
178764.0, 0.151899
185148.0, 0.151899
192005.0, 0.151899
199390.0, 0.151899
207366.0, 0.151899
216006.0, 0.151899
