Database of Origin,USGS Spectral Database
Sample Description,See USGS database for additional info
Date Added,2017-02-22 02:49:17.542355

Data ID,USGS_str01          
Sample ID,strontianite_hs272.21334
Mineral Name,strontianite

Wavelength
248.1, 0.511765
253.6, 0.524806
258.6, 0.531335
263.6, 0.537643
268.6, 0.541045
273.1, 0.553378
277.1, 0.558437
281.1, 0.568333
285.1, 0.576031
289.1, 0.584657
293.1, 0.594783
297.1, 0.602855
301.1, 0.616952
305.1, 0.629463
309.1, 0.637670
313.1, 0.649869
317.1, 0.664930
321.1, 0.675947
325.1, 0.680395
329.1, 0.693482
333.1, 0.707442
337.1, 0.717375
341.1, 0.724061
345.1, 0.732138
349.1, 0.740301
353.1, 0.742700
357.1, 0.751685
360.6, 0.758266
363.6, 0.765369
366.6, 0.772677
369.6, 0.777426
372.6, 0.780902
375.6, 0.788665
378.6, 0.791768
381.1, 0.797462
383.1, 0.801290
385.1, 0.806943
387.1, 0.808390
389.1, 0.812019
391.1, 0.814331
393.1, 0.819337
395.1, 0.821625
397.1, 0.824638
399.1, 0.828407
401.1, 0.827678
403.1, 0.830753
405.1, 0.832103
407.1, 0.835816
409.1, 0.837378
411.1, 0.842817
412.8, 0.843506
415.8, 0.847309
418.8, 0.847958
421.8, 0.852235
424.8, 0.855114
427.8, 0.859295
430.8, 0.862167
433.8, 0.864936
436.8, 0.868562
439.8, 0.870596
442.8, 0.872053
445.8, 0.874191
448.8, 0.874061
451.3, 0.878509
453.3, 0.881379
455.3, 0.881467
457.3, 0.882923
459.3, 0.884377
461.3, 0.886430
463.3, 0.886481
465.3, 0.888619
467.3, 0.890186
469.3, 0.890165
471.3, 0.890894
473.3, 0.892309
475.3, 0.893131
477.3, 0.894639
479.3, 0.893924
481.3, 0.895517
483.3, 0.897653
485.3, 0.898465
487.3, 0.898525
489.3, 0.900813
491.3, 0.900871
493.3, 0.902377
495.3, 0.904663
497.3, 0.904709
499.3, 0.905443
501.3, 0.907028
503.3, 0.906145
505.3, 0.909263
507.3, 0.911521
509.3, 0.910003
511.3, 0.912267
513.3, 0.911574
515.3, 0.913001
517.3, 0.913780
519.3, 0.913015
521.3, 0.916813
523.3, 0.916755
525.3, 0.918299
527.3, 0.919782
529.3, 0.922094
531.3, 0.922036
533.3, 0.920524
535.3, 0.923516
537.3, 0.922720
539.3, 0.924981
541.3, 0.927306
543.3, 0.927348
545.3, 0.928831
547.3, 0.927373
549.3, 0.925873
551.3, 0.927411
553.3, 0.926740
555.3, 0.928268
557.3, 0.928267
559.3, 0.930582
561.3, 0.928306
563.3, 0.929852
565.3, 0.928309
567.3, 0.929080
569.3, 0.931294
571.3, 0.932071
573.3, 0.932076
575.3, 0.930484
577.3, 0.931934
579.3, 0.933492
581.3, 0.934222
583.3, 0.934175
585.3, 0.934182
587.3, 0.934232
589.3, 0.934190
591.3, 0.935748
593.3, 0.933519
595.3, 0.936624
597.3, 0.934349
599.3, 0.938223
601.1, 0.935174
602.7, 0.937535
604.3, 0.935261
605.9, 0.935311
607.5, 0.936901
609.1, 0.933859
610.7, 0.933911
612.3, 0.931648
613.9, 0.933186
615.5, 0.933999
617.1, 0.934771
618.7, 0.935538
620.3, 0.933276
621.9, 0.932507
623.5, 0.933277
625.1, 0.934046
626.7, 0.934815
628.3, 0.935584
629.9, 0.935667
631.7, 0.934904
633.7, 0.934904
635.7, 0.934855
637.7, 0.933366
639.7, 0.935623
641.7, 0.932555
643.7, 0.935615
645.7, 0.934806
647.7, 0.937110
649.7, 0.937102
651.7, 0.937108
653.7, 0.938640
655.7, 0.935569
657.7, 0.934850
659.7, 0.934022
661.7, 0.936287
663.7, 0.936338
665.7, 0.933223
667.7, 0.937009
670.2, 0.934749
673.2, 0.936246
676.2, 0.935431
679.2, 0.935425
682.2, 0.936199
685.2, 0.938386
688.2, 0.937612
691.2, 0.936114
694.2, 0.938384
697.2, 0.936753
700.2, 0.934424
702.0, 0.935936
704.0, 0.938204
706.0, 0.937383
708.0, 0.935070
710.0, 0.936518
712.0, 0.936516
714.0, 0.934923
716.0, 0.936475
718.0, 0.939461
720.0, 0.935608
722.0, 0.937070
724.0, 0.938584
726.0, 0.938540
728.0, 0.938454
730.0, 0.936888
732.0, 0.936887
734.0, 0.937625
736.0, 0.936060
738.0, 0.937529
740.0, 0.936702
742.0, 0.938229
744.0, 0.938142
746.0, 0.938140
748.0, 0.939671
750.5, 0.936524
753.5, 0.937272
756.5, 0.938750
759.5, 0.937914
762.5, 0.938617
765.5, 0.939360
768.5, 0.939275
771.5, 0.939981
774.5, 0.941527
777.5, 0.936758
781.0, 0.939056
785.0, 0.937415
789.0, 0.938123
793.0, 0.938030
797.0, 0.937138
801.5, 0.937849
806.5, 0.937759
811.5, 0.938426
816.5, 0.937534
822.0, 0.938158
851.0, 0.941360
859.0, 0.944230
871.0, 0.944600
883.0, 0.942842
894.0, 0.946270
904.0, 0.946265
914.0, 0.947002
924.0, 0.943531
933.0, 0.943581
941.0, 0.942692
949.0, 0.942566
957.0, 0.944244
964.0, 0.945113
970.0, 0.942552
976.0, 0.945944
982.0, 0.941679
988.0, 0.942537
994.0, 0.942511
1000.0, 0.941605
1006.0, 0.943344
1012.0, 0.944100
1018.0, 0.940630
1023.5, 0.943164
1028.5, 0.943261
1033.5, 0.939897
1038.5, 0.940650
1043.5, 0.941451
1048.5, 0.942306
1053.5, 0.939751
1058.5, 0.942286
1063.5, 0.940575
1068.5, 0.943130
1073.5, 0.940559
1078.5, 0.943057
1083.5, 0.940512
1088.5, 0.942232
1093.5, 0.938735
1098.5, 0.940504
1103.5, 0.942164
1108.5, 0.940508
1113.5, 0.939658
1118.5, 0.939645
1123.5, 0.939673
1128.5, 0.941363
1133.5, 0.939698
1138.5, 0.943859
1143.5, 0.939570
1148.5, 0.939551
1153.5, 0.938599
1158.5, 0.941081
1163.5, 0.938433
1168.5, 0.939966
1173.5, 0.939853
1178.5, 0.938069
1183.5, 0.938867
1188.5, 0.942153
1193.5, 0.942873
1198.5, 0.939334
1203.5, 0.939288
1208.5, 0.938435
1213.5, 0.940154
1218.5, 0.941785
1223.5, 0.940121
1228.5, 0.939282
1233.5, 0.940112
1238.5, 0.938500
1243.5, 0.937575
1248.5, 0.940946
1253.5, 0.941767
1258.5, 0.941771
1263.5, 0.941657
1268.5, 0.941584
1273.5, 0.940591
1278.5, 0.939588
1283.5, 0.939517
1288.5, 0.941078
1293.5, 0.939241
1298.5, 0.938302
1303.5, 0.939006
1308.5, 0.938017
1313.5, 0.940471
1318.5, 0.938628
1323.5, 0.938518
1328.5, 0.939236
1333.5, 0.940017
1338.5, 0.939029
1343.5, 0.938957
1348.5, 0.938070
1353.5, 0.938833
1358.5, 0.940479
1363.5, 0.939588
1368.5, 0.937866
1373.5, 0.937865
1378.5, 0.936961
1383.5, 0.937888
1388.5, 0.937859
1393.5, 0.939671
1398.5, 0.934524
1403.5, 0.937161
1408.5, 0.936374
1413.5, 0.938176
1418.5, 0.934779
1423.5, 0.935778
1428.5, 0.935828
1433.5, 0.933368
1438.5, 0.936907
1443.5, 0.933512
1448.5, 0.933582
1453.5, 0.935328
1458.5, 0.935317
1463.5, 0.933681
1468.5, 0.933683
1473.5, 0.935359
1478.5, 0.935360
1483.5, 0.933600
1488.5, 0.934554
1493.5, 0.935232
1498.5, 0.937974
1503.5, 0.934615
1508.5, 0.934573
1513.5, 0.936217
1518.5, 0.936301
1523.5, 0.935459
1528.5, 0.936280
1534.0, 0.937984
1540.0, 0.938815
1546.0, 0.937913
1552.0, 0.935406
1558.0, 0.936362
1564.0, 0.936326
1570.5, 0.937939
1577.5, 0.932820
1584.5, 0.936249
1591.5, 0.937936
1598.5, 0.937074
1605.5, 0.938700
1612.5, 0.936886
1619.5, 0.935887
1626.5, 0.935716
1633.5, 0.935571
1640.5, 0.938914
1647.5, 0.936175
1654.5, 0.935104
1661.5, 0.934988
1668.5, 0.931305
1676.0, 0.932849
1684.0, 0.932765
1692.0, 0.934385
1700.0, 0.933415
1708.0, 0.931442
1716.0, 0.926251
1724.0, 0.925403
1732.0, 0.921007
1740.0, 0.927196
1748.0, 0.924604
1756.0, 0.922996
1764.0, 0.925620
1772.0, 0.923974
1780.0, 0.930046
1788.0, 0.934488
1796.0, 0.930720
1805.0, 0.927679
1815.0, 0.926934
1825.0, 0.920045
1835.0, 0.916508
1845.0, 0.910520
1855.0, 0.903802
1865.0, 0.893028
1875.0, 0.874593
1885.0, 0.858817
1895.0, 0.869154
1905.0, 0.887363
1915.0, 0.899234
1925.0, 0.898971
1935.0, 0.900456
1945.0, 0.897695
1955.0, 0.894126
1965.0, 0.888990
1975.0, 0.882639
1985.0, 0.884714
1995.0, 0.873921
2005.0, 0.850690
2015.0, 0.839923
2025.0, 0.864599
2035.0, 0.892662
2045.0, 0.909381
2055.0, 0.915625
2065.0, 0.916493
2075.0, 0.918925
2085.0, 0.918105
2095.0, 0.917109
2105.0, 0.913584
2115.0, 0.907576
2125.0, 0.902626
2135.0, 0.903156
2145.0, 0.890349
2155.0, 0.878700
2165.0, 0.850363
2175.0, 0.829689
2185.0, 0.834772
2195.0, 0.853794
2205.0, 0.851451
2215.0, 0.843760
2225.0, 0.826584
2235.0, 0.807934
2245.0, 0.787392
2255.0, 0.760241
2265.0, 0.734113
2275.0, 0.701378
2285.0, 0.675482
2295.0, 0.650450
2305.0, 0.630886
2315.0, 0.608739
2325.0, 0.576654
2335.0, 0.534925
2345.0, 0.500160
2355.0, 0.518288
2365.0, 0.570252
2375.0, 0.660570
2386.0, 0.734702
2400.0, 0.773524
2418.0, 0.779945
2440.0, 0.750421
2466.0, 0.658219
2496.0, 0.531101
2528.0, 0.440967
2560.0, 0.383996
2592.0, 0.601530
2624.0, 0.775573
2656.0, 0.792623
2688.0, 0.757369
2720.0, 0.680965
2752.0, 0.553711
2784.0, 0.460347
2816.0, 0.333228
2848.0, 0.393255
2880.0, 0.449407
2912.0, 0.437345
2944.0, 0.433715
2976.0, 0.436212
