Database of Origin, USGS Spectral Database
Sample Description, See USGS database for additional info
Date Added,2016-08-03 21:03:29.130975

Data ID,USGS_ars01          
Sample ID, arsenopyrite_hs262.3124
Mineral Name, arsenopyrite
Material Class,Sulfide

Wavelength
236.1, 0.0289650
242.1, 0.0324360
248.1, 0.0337350
253.6, 0.0344570
258.6, 0.0348460
263.6, 0.0335620
268.6, 0.0343000
273.1, 0.0334980
277.1, 0.0347160
281.1, 0.0341500
285.1, 0.0343090
289.1, 0.0347550
293.1, 0.0349660
297.1, 0.0367060
301.1, 0.0374400
305.1, 0.0380430
309.1, 0.0408290
313.1, 0.0419790
317.1, 0.0451910
321.1, 0.0471640
325.1, 0.0515970
329.1, 0.0570080
333.1, 0.0615750
337.1, 0.0675430
341.1, 0.0739420
345.1, 0.0809880
349.1, 0.0866470
353.1, 0.0947400
357.1, 0.0995100
360.6, 0.103428
363.6, 0.105951
366.6, 0.108270
369.6, 0.110431
372.6, 0.112671
375.6, 0.113847
378.6, 0.114941
381.1, 0.116071
383.1, 0.117707
385.1, 0.117236
387.1, 0.118634
389.1, 0.120380
391.1, 0.119901
393.1, 0.121208
395.1, 0.122239
397.1, 0.122731
399.1, 0.123755
401.1, 0.124386
403.1, 0.125006
405.1, 0.125125
407.1, 0.125782
409.1, 0.126139
411.1, 0.126941
412.8, 0.127383
415.8, 0.128690
418.8, 0.128395
421.8, 0.129219
424.8, 0.128934
427.8, 0.129374
430.8, 0.129694
433.8, 0.130048
436.8, 0.129921
439.8, 0.130973
442.8, 0.131055
445.8, 0.131387
448.8, 0.132126
451.3, 0.132329
453.3, 0.132870
455.3, 0.132601
457.3, 0.133273
459.3, 0.133415
461.3, 0.132661
463.3, 0.133342
465.3, 0.133448
467.3, 0.134157
469.3, 0.134373
471.3, 0.134407
473.3, 0.134726
475.3, 0.134350
477.3, 0.134675
479.3, 0.135065
481.3, 0.134429
483.3, 0.134890
485.3, 0.134857
487.3, 0.135220
489.3, 0.135300
491.3, 0.135182
493.3, 0.134943
495.3, 0.135064
497.3, 0.135082
499.3, 0.135583
501.3, 0.135356
503.3, 0.135475
505.3, 0.136001
507.3, 0.135430
509.3, 0.135319
511.3, 0.135772
513.3, 0.135684
515.3, 0.135391
517.3, 0.135707
519.3, 0.135733
521.3, 0.135708
523.3, 0.136052
525.3, 0.136604
527.3, 0.135773
529.3, 0.135879
531.3, 0.135834
533.3, 0.135717
535.3, 0.136187
537.3, 0.135487
539.3, 0.136194
541.3, 0.136303
543.3, 0.135868
545.3, 0.135940
547.3, 0.135672
549.3, 0.135423
551.3, 0.135707
553.3, 0.135401
555.3, 0.135113
557.3, 0.135500
559.3, 0.135151
561.3, 0.135517
563.3, 0.135235
565.3, 0.135062
567.3, 0.135561
569.3, 0.135153
571.3, 0.135005
573.3, 0.135561
575.3, 0.135032
577.3, 0.135226
579.3, 0.136233
581.3, 0.135348
583.3, 0.135502
585.3, 0.135525
587.3, 0.135620
589.3, 0.134727
591.3, 0.135519
593.3, 0.135052
595.3, 0.135587
597.3, 0.135107
599.3, 0.134822
601.1, 0.135089
602.7, 0.134656
604.3, 0.134327
605.9, 0.135043
607.5, 0.134325
609.1, 0.134746
610.7, 0.134131
612.3, 0.135054
613.9, 0.134392
615.5, 0.134027
617.1, 0.134302
618.7, 0.134663
620.3, 0.134340
621.9, 0.134206
623.5, 0.134519
625.1, 0.134589
626.7, 0.133811
628.3, 0.134394
629.9, 0.134558
631.7, 0.133564
633.7, 0.134388
635.7, 0.134134
637.7, 0.134228
639.7, 0.134308
641.7, 0.134061
643.7, 0.134351
645.7, 0.133943
647.7, 0.134399
649.7, 0.134459
651.7, 0.133879
653.7, 0.133907
655.7, 0.133976
657.7, 0.133972
659.7, 0.134035
661.7, 0.134130
663.7, 0.134266
665.7, 0.134023
667.7, 0.134265
670.2, 0.134211
673.2, 0.134362
676.2, 0.133595
679.2, 0.133519
682.2, 0.133657
685.2, 0.133876
688.2, 0.134343
691.2, 0.133666
694.2, 0.134316
697.2, 0.135178
700.2, 0.133406
702.0, 0.133061
704.0, 0.133636
706.0, 0.134307
708.0, 0.133450
710.0, 0.133995
712.0, 0.133618
714.0, 0.133567
716.0, 0.133518
718.0, 0.133894
720.0, 0.133704
722.0, 0.133403
724.0, 0.133574
726.0, 0.133693
728.0, 0.133659
730.0, 0.134044
732.0, 0.133410
734.0, 0.133861
736.0, 0.133712
738.0, 0.133322
740.0, 0.133608
742.0, 0.133679
744.0, 0.133433
746.0, 0.133698
748.0, 0.133114
750.5, 0.133351
753.5, 0.133601
756.5, 0.133088
759.5, 0.132931
762.5, 0.133620
765.5, 0.133224
768.5, 0.132996
771.5, 0.133305
774.5, 0.133715
777.5, 0.132810
781.0, 0.132753
785.0, 0.133008
789.0, 0.132838
793.0, 0.133088
797.0, 0.132752
801.5, 0.132673
806.5, 0.132871
811.5, 0.132281
816.5, 0.132767
822.0, 0.131769
828.0, 0.132699
835.0, 0.131390
843.0, 0.130734
851.0, 0.132538
859.0, 0.131780
871.0, 0.132672
883.0, 0.128891
894.0, 0.129477
904.0, 0.128925
914.0, 0.127313
924.0, 0.126544
933.0, 0.126739
941.0, 0.124751
949.0, 0.125184
957.0, 0.126383
964.0, 0.123835
970.0, 0.124829
976.0, 0.124502
982.0, 0.123042
988.0, 0.123863
994.0, 0.122990
1000.0, 0.122480
1006.0, 0.122769
1012.0, 0.120779
1018.0, 0.122145
1023.5, 0.120845
1028.5, 0.122082
1033.5, 0.120700
1038.5, 0.121748
1043.5, 0.120752
1048.5, 0.121290
1053.5, 0.121347
1058.5, 0.121182
1063.5, 0.120178
1068.5, 0.120769
1073.5, 0.119223
1078.5, 0.118927
1083.5, 0.118769
1088.5, 0.119212
1093.5, 0.118529
1098.5, 0.119216
1103.5, 0.119012
1108.5, 0.119403
1113.5, 0.118037
1118.5, 0.119040
1123.5, 0.118622
1128.5, 0.118040
1133.5, 0.118304
1138.5, 0.117746
1143.5, 0.116830
1148.5, 0.118093
1153.5, 0.117531
1158.5, 0.117349
1163.5, 0.117245
1168.5, 0.116737
1173.5, 0.117374
1178.5, 0.116889
1183.5, 0.116708
1188.5, 0.117292
1193.5, 0.116342
1198.5, 0.116766
1203.5, 0.116153
1208.5, 0.116876
1213.5, 0.116172
1218.5, 0.116326
1223.5, 0.115998
1228.5, 0.116858
1233.5, 0.115360
1238.5, 0.116440
1243.5, 0.115738
1248.5, 0.116215
1253.5, 0.115820
1258.5, 0.116194
1263.5, 0.115973
1268.5, 0.115734
1273.5, 0.115471
1278.5, 0.115357
1283.5, 0.115025
1288.5, 0.114849
1293.5, 0.115179
1298.5, 0.115636
1303.5, 0.115673
1308.5, 0.114287
1313.5, 0.115467
1318.5, 0.114413
1323.5, 0.115244
1328.5, 0.114932
1333.5, 0.114352
1338.5, 0.114850
1343.5, 0.113359
1348.5, 0.114733
1353.5, 0.115278
1358.5, 0.113804
1363.5, 0.114066
1368.5, 0.115097
1373.5, 0.114660
1378.5, 0.114306
1383.5, 0.115502
1388.5, 0.114278
1393.5, 0.112568
1398.5, 0.113416
1403.5, 0.114469
1408.5, 0.113886
1413.5, 0.112946
1418.5, 0.113819
1423.5, 0.113592
1428.5, 0.114712
1433.5, 0.114171
1438.5, 0.113476
1443.5, 0.113874
1448.5, 0.114029
1453.5, 0.113222
1458.5, 0.112923
1463.5, 0.112636
1468.5, 0.113795
1473.5, 0.114041
1478.5, 0.114606
1483.5, 0.115003
1488.5, 0.114184
1493.5, 0.113506
1498.5, 0.114324
1503.5, 0.114461
1508.5, 0.114233
1513.5, 0.111948
1518.5, 0.113834
1523.5, 0.112475
1528.5, 0.114060
1534.0, 0.113951
1540.0, 0.113406
1546.0, 0.113037
1552.0, 0.113371
1558.0, 0.115248
1564.0, 0.112930
1570.5, 0.112925
1577.5, 0.112506
1584.5, 0.113304
1591.5, 0.113647
1598.5, 0.113213
1605.5, 0.113205
1612.5, 0.112323
1619.5, 0.111377
1626.5, 0.112281
1633.5, 0.112107
1640.5, 0.112883
1647.5, 0.112560
1654.5, 0.111849
1661.5, 0.112278
1668.5, 0.112767
1676.0, 0.112051
1684.0, 0.111815
1692.0, 0.112442
1700.0, 0.111824
1708.0, 0.111782
1716.0, 0.112529
1724.0, 0.110758
1732.0, 0.110881
1740.0, 0.110905
1748.0, 0.111731
1756.0, 0.110910
1764.0, 0.111812
1772.0, 0.111181
1780.0, 0.111181
1788.0, 0.111555
1796.0, 0.111965
1805.0, 0.110387
1815.0, 0.110150
1825.0, 0.110408
1835.0, 0.110236
1845.0, 0.110496
1855.0, 0.111052
1865.0, 0.111031
1875.0, 0.110742
1885.0, 0.109743
1895.0, 0.108380
1905.0, 0.110173
1915.0, 0.108691
1925.0, 0.108889
1935.0, 0.108156
1945.0, 0.108451
1955.0, 0.108040
1965.0, 0.107186
1975.0, 0.109283
1985.0, 0.108464
1995.0, 0.108166
2005.0, 0.107455
2015.0, 0.107611
2025.0, 0.107520
2035.0, 0.108554
2045.0, 0.108154
2055.0, 0.108904
2065.0, 0.109299
2075.0, 0.108226
2085.0, 0.108548
2095.0, 0.107188
2105.0, 0.107990
2115.0, 0.109273
2125.0, 0.108785
2135.0, 0.108947
2145.0, 0.109652
2155.0, 0.109902
2165.0, 0.108773
2175.0, 0.108208
2185.0, 0.108172
2195.0, 0.106516
2205.0, 0.106644
2215.0, 0.106258
2225.0, 0.108806
2235.0, 0.108250
2245.0, 0.109087
2255.0, 0.106741
2265.0, 0.106997
2275.0, 0.109498
2285.0, 0.107021
2295.0, 0.104396
2305.0, 0.109765
2315.0, 0.110046
2325.0, 0.106818
2335.0, 0.109489
2345.0, 0.107198
2355.0, 0.106285
2365.0, 0.106566
2375.0, 0.106935
2386.0, 0.108292
2400.0, 0.107231
2418.0, 0.106348
2440.0, 0.107235
2466.0, 0.106086
2496.0, 0.106444
2528.0, 0.105604
2560.0, 0.104832
2592.0, 0.104242
2624.0, 0.104489
2656.0, 0.101085
2688.0, 0.0977830
2720.0, 0.0914420
2752.0, 0.0634580
2784.0, 0.0537640
2816.0, 0.0548370
2848.0, 0.0488010
2880.0, 0.0512960
2912.0, 0.0465800
2944.0, 0.0538540
2976.0, 0.0453500
