Database of Origin, USGS Spectral Database
Sample Description, See USGS database for additional info
Date Added,2016-08-03 21:23:32.158026

Data ID,USGS_cli01          
Sample ID, clinochlore_gds157.5542
Mineral Name, clinochlore
Material Class,Phyllosilicate

Wavelength
213.1, 0.0266170
221.1, 0.0268900
229.1, 0.0277580
236.1, 0.0292780
242.1, 0.0289660
248.1, 0.0281170
253.6, 0.0280770
258.6, 0.0280440
263.6, 0.0281740
268.6, 0.0286670
273.1, 0.0295560
277.1, 0.0299600
281.1, 0.0318950
285.1, 0.0330530
289.1, 0.0348530
293.1, 0.0374780
297.1, 0.0390480
301.1, 0.0410050
305.1, 0.0423350
309.1, 0.0448200
313.1, 0.0473230
317.1, 0.0494330
321.1, 0.0514840
325.1, 0.0534250
329.1, 0.0548810
333.1, 0.0569000
337.1, 0.0580390
341.1, 0.0599850
345.1, 0.0611130
349.1, 0.0627110
353.1, 0.0641050
357.1, 0.0662810
360.6, 0.0678950
363.6, 0.0695290
366.6, 0.0708170
369.6, 0.0717580
372.6, 0.0725960
375.6, 0.0734300
378.6, 0.0741630
381.1, 0.0746950
383.1, 0.0755100
385.1, 0.0759140
387.1, 0.0764890
389.1, 0.0778120
391.1, 0.0786690
393.1, 0.0796550
395.1, 0.0806390
397.1, 0.0815140
399.1, 0.0818530
401.1, 0.0822780
403.1, 0.0825130
405.1, 0.0832010
407.1, 0.0832710
409.1, 0.0835840
411.1, 0.0852490
412.8, 0.0855590
415.8, 0.0874100
418.8, 0.0884670
421.8, 0.0903960
424.8, 0.0927980
427.8, 0.0944110
430.8, 0.0965370
433.8, 0.0980410
436.8, 0.100048
439.8, 0.101943
442.8, 0.103849
445.8, 0.105115
448.8, 0.105989
451.3, 0.106563
453.3, 0.106567
455.3, 0.107797
457.3, 0.107785
459.3, 0.108302
461.3, 0.109105
463.3, 0.110266
465.3, 0.111018
467.3, 0.111846
469.3, 0.113452
471.3, 0.114121
473.3, 0.115788
475.3, 0.117564
477.3, 0.119233
479.3, 0.120527
481.3, 0.121387
483.3, 0.123675
485.3, 0.124824
487.3, 0.126104
489.3, 0.127579
491.3, 0.128273
493.3, 0.127590
495.3, 0.127948
497.3, 0.128000
499.3, 0.129805
501.3, 0.130844
503.3, 0.133110
505.3, 0.133272
507.3, 0.134936
509.3, 0.135758
511.3, 0.136429
513.3, 0.137281
515.3, 0.137932
517.3, 0.138792
519.3, 0.139178
521.3, 0.139546
523.3, 0.139244
525.3, 0.139638
527.3, 0.139565
529.3, 0.139765
531.3, 0.139713
533.3, 0.139455
535.3, 0.140351
537.3, 0.139643
539.3, 0.139986
541.3, 0.140483
543.3, 0.140897
545.3, 0.139995
547.3, 0.140754
549.3, 0.140790
551.3, 0.140658
553.3, 0.140436
555.3, 0.140633
557.3, 0.140180
559.3, 0.140445
561.3, 0.139624
563.3, 0.139929
565.3, 0.139130
567.3, 0.138387
569.3, 0.138104
571.3, 0.137632
573.3, 0.136996
575.3, 0.136647
577.3, 0.135934
579.3, 0.135410
581.3, 0.134659
583.3, 0.133913
585.3, 0.133558
587.3, 0.132659
589.3, 0.131886
591.3, 0.131508
593.3, 0.130713
595.3, 0.130155
597.3, 0.128632
599.3, 0.127929
601.1, 0.127077
602.7, 0.126934
604.3, 0.125846
605.9, 0.125438
607.5, 0.124831
609.1, 0.124508
610.7, 0.123568
612.3, 0.122884
613.9, 0.122360
615.5, 0.121389
617.1, 0.120814
618.7, 0.120378
620.3, 0.119887
621.9, 0.118988
623.5, 0.118668
625.1, 0.118076
626.7, 0.117352
628.3, 0.116587
629.9, 0.116119
631.7, 0.115315
633.7, 0.113915
635.7, 0.113884
637.7, 0.113613
639.7, 0.112526
641.7, 0.111398
643.7, 0.111115
645.7, 0.110496
647.7, 0.109714
649.7, 0.109000
651.7, 0.108525
653.7, 0.107705
655.7, 0.107309
657.7, 0.106291
659.7, 0.105971
661.7, 0.105976
663.7, 0.104473
665.7, 0.104331
667.7, 0.103980
670.2, 0.103661
673.2, 0.102107
676.2, 0.101705
679.2, 0.100958
682.2, 0.100142
685.2, 0.0998830
688.2, 0.0991470
691.2, 0.0988590
694.2, 0.0983830
697.2, 0.0979970
700.2, 0.0974750
702.0, 0.0970550
704.0, 0.0974900
706.0, 0.0966460
708.0, 0.0966010
710.0, 0.0967470
712.0, 0.0963730
714.0, 0.0968700
716.0, 0.0967460
718.0, 0.0959860
720.0, 0.0967770
722.0, 0.0967120
724.0, 0.0961250
726.0, 0.0966170
728.0, 0.0970970
730.0, 0.0972720
732.0, 0.0973520
734.0, 0.0974790
736.0, 0.0974410
738.0, 0.0980680
740.0, 0.0984810
742.0, 0.0985710
744.0, 0.0983400
746.0, 0.0987820
748.0, 0.0993220
750.5, 0.0997880
753.5, 0.100158
756.5, 0.100905
759.5, 0.102293
762.5, 0.101854
765.5, 0.103175
768.5, 0.103760
771.5, 0.104573
774.5, 0.105454
777.5, 0.105721
781.0, 0.106714
785.0, 0.107651
789.0, 0.108782
793.0, 0.109359
797.0, 0.109786
801.5, 0.111210
806.5, 0.111390
811.5, 0.111305
816.5, 0.110813
822.0, 0.111152
828.0, 0.111101
835.0, 0.110776
843.0, 0.109286
851.0, 0.108730
859.0, 0.110253
871.0, 0.104570
883.0, 0.103931
894.0, 0.103779
904.0, 0.102020
914.0, 0.101989
924.0, 0.103107
933.0, 0.105047
941.0, 0.105566
949.0, 0.105828
957.0, 0.106790
964.0, 0.110099
970.0, 0.110168
976.0, 0.111253
982.0, 0.111401
988.0, 0.112490
994.0, 0.113193
1000.0, 0.113527
1006.0, 0.114261
1012.0, 0.115154
1018.0, 0.115415
1023.5, 0.115451
1028.5, 0.114791
1033.5, 0.115738
1038.5, 0.115988
1043.5, 0.115973
1048.5, 0.116136
1053.5, 0.115342
1058.5, 0.116175
1063.5, 0.115442
1068.5, 0.116581
1073.5, 0.116931
1078.5, 0.116419
1083.5, 0.116397
1088.5, 0.116758
1093.5, 0.117279
1098.5, 0.117712
1103.5, 0.117781
1108.5, 0.118699
1113.5, 0.118548
1118.5, 0.119419
1123.5, 0.119188
1128.5, 0.120481
1133.5, 0.120978
1138.5, 0.121834
1143.5, 0.122722
1148.5, 0.122623
1153.5, 0.124059
1158.5, 0.124300
1163.5, 0.126040
1168.5, 0.126530
1173.5, 0.128091
1178.5, 0.128539
1183.5, 0.129876
1188.5, 0.131510
1193.5, 0.133342
1198.5, 0.133612
1203.5, 0.135450
1208.5, 0.136709
1213.5, 0.137752
1218.5, 0.139556
1223.5, 0.142450
1228.5, 0.142852
1233.5, 0.144698
1238.5, 0.145856
1243.5, 0.148064
1248.5, 0.150186
1253.5, 0.152215
1258.5, 0.152864
1263.5, 0.155655
1268.5, 0.157293
1273.5, 0.159292
1278.5, 0.161383
1283.5, 0.163233
1288.5, 0.164912
1293.5, 0.166787
1298.5, 0.168748
1303.5, 0.171039
1308.5, 0.172996
1313.5, 0.174037
1318.5, 0.176752
1323.5, 0.179357
1328.5, 0.180412
1333.5, 0.182482
1338.5, 0.184867
1343.5, 0.186864
1348.5, 0.187997
1353.5, 0.190560
1358.5, 0.192625
1363.5, 0.194105
1368.5, 0.196487
1373.5, 0.199296
1378.5, 0.201030
1383.5, 0.202287
1388.5, 0.203031
1393.5, 0.202389
1398.5, 0.200234
1403.5, 0.200867
1408.5, 0.202477
1413.5, 0.205704
1418.5, 0.211841
1423.5, 0.216076
1428.5, 0.218763
1433.5, 0.220030
1438.5, 0.222166
1443.5, 0.223242
1448.5, 0.225651
1453.5, 0.227381
1458.5, 0.229227
1463.5, 0.230233
1468.5, 0.232873
1473.5, 0.234905
1478.5, 0.238339
1483.5, 0.241408
1488.5, 0.243347
1493.5, 0.244365
1498.5, 0.245999
1503.5, 0.247922
1508.5, 0.251011
1513.5, 0.251608
1518.5, 0.253636
1523.5, 0.255215
1528.5, 0.259176
1534.0, 0.258642
1540.0, 0.261080
1546.0, 0.263165
1552.0, 0.265543
1558.0, 0.268959
1564.0, 0.271295
1570.5, 0.273767
1577.5, 0.276665
1584.5, 0.279157
1591.5, 0.283102
1598.5, 0.285688
1605.5, 0.289654
1612.5, 0.292120
1619.5, 0.294998
1626.5, 0.299265
1633.5, 0.302841
1640.5, 0.305094
1647.5, 0.308117
1654.5, 0.311891
1661.5, 0.314912
1668.5, 0.317879
1676.0, 0.320158
1684.0, 0.324693
1692.0, 0.328570
1700.0, 0.332996
1708.0, 0.336737
1716.0, 0.338565
1724.0, 0.341219
1732.0, 0.344978
1740.0, 0.348330
1748.0, 0.349742
1756.0, 0.354430
1764.0, 0.356912
1772.0, 0.359273
1780.0, 0.363100
1788.0, 0.369234
1796.0, 0.369994
1805.0, 0.371747
1815.0, 0.374526
1825.0, 0.377372
1835.0, 0.379922
1845.0, 0.382783
1855.0, 0.384872
1865.0, 0.385830
1875.0, 0.387944
1885.0, 0.388929
1895.0, 0.392533
1905.0, 0.397660
1915.0, 0.399450
1925.0, 0.401391
1935.0, 0.405989
1945.0, 0.405483
1955.0, 0.403758
1965.0, 0.405637
1975.0, 0.407794
1985.0, 0.404793
1995.0, 0.405757
2005.0, 0.406679
2015.0, 0.410701
2025.0, 0.422675
2035.0, 0.429279
2045.0, 0.436997
2055.0, 0.444577
2065.0, 0.448063
2075.0, 0.452178
2085.0, 0.455364
2095.0, 0.457329
2105.0, 0.460298
2115.0, 0.461446
2125.0, 0.462871
2135.0, 0.462507
2145.0, 0.466752
2155.0, 0.466489
2165.0, 0.466854
2175.0, 0.465608
2185.0, 0.461027
2195.0, 0.459774
2205.0, 0.454942
2215.0, 0.449335
2225.0, 0.437934
2235.0, 0.417411
2245.0, 0.377931
2255.0, 0.349130
2265.0, 0.358559
2275.0, 0.371388
2285.0, 0.376394
2295.0, 0.363002
2305.0, 0.351236
2315.0, 0.345377
2325.0, 0.338270
2335.0, 0.326402
2345.0, 0.317376
2355.0, 0.321863
2365.0, 0.335371
2375.0, 0.358603
2386.0, 0.377724
2400.0, 0.386869
2418.0, 0.395055
2440.0, 0.393768
2466.0, 0.377356
2496.0, 0.360860
2528.0, 0.349827
2560.0, 0.340892
2592.0, 0.334649
2624.0, 0.335116
2656.0, 0.327356
2688.0, 0.274952
2720.0, 0.167023
2752.0, 0.0783430
2784.0, 0.0520750
2816.0, 0.0276230
2848.0, 0.0323480
2880.0, 0.0386570
2912.0, 0.0323790
2944.0, 0.0249260
2976.0, 0.0295600
