Database of Origin, USGS Spectral Database
Sample Description, See USGS database for additional info
Date Added,2017-07-03 06:06:55.661530

Data ID,USGS_hem18          
Sample ID, hematite_hs45.9733
Mineral Name, hematite
Material Class,Oxide

Wavelength
1499.61, 0.109666
1500.04, 0.109560
1500.48, 0.109347
1500.91, 0.108867
1501.35, 0.108441
1501.78, 0.108441
1502.22, 0.108441
1502.65, 0.108122
1503.09, 0.107855
1503.53, 0.107749
1503.96, 0.107909
1504.4, 0.108441
1504.83, 0.108494
1505.27, 0.108281
1505.71, 0.107962
1506.15, 0.107269
1506.58, 0.107163
1507.02, 0.107323
1507.46, 0.107376
1507.9, 0.107429
1508.34, 0.107323
1508.78, 0.106630
1509.21, 0.106151
1509.66, 0.106683
1510.09, 0.106790
1510.53, 0.106683
1510.97, 0.106630
1511.42, 0.106577
1511.86, 0.106311
1512.3, 0.105938
1512.74, 0.106151
1513.18, 0.106151
1513.62, 0.106311
1514.06, 0.106204
1514.51, 0.106098
1514.95, 0.105778
1515.39, 0.105299
1515.83, 0.105618
1516.28, 0.105672
1516.72, 0.105512
1517.16, 0.105512
1517.61, 0.105672
1518.05, 0.105458
1518.5, 0.105245
1518.94, 0.105352
1519.39, 0.105618
1519.83, 0.105405
1520.28, 0.105352
1520.73, 0.105299
1521.17, 0.104926
1521.62, 0.104713
1522.07, 0.104873
1522.51, 0.105086
1522.96, 0.104926
1523.41, 0.104660
1523.85, 0.105086
1524.3, 0.104979
1524.75, 0.104819
1525.2, 0.104873
1525.65, 0.104446
1526.1, 0.104180
1526.55, 0.104446
1527.0, 0.104979
1527.45, 0.105299
1527.9, 0.105245
1528.35, 0.104979
1528.8, 0.104819
1529.25, 0.104873
1529.7, 0.104660
1530.15, 0.104500
1530.6, 0.104553
1531.05, 0.104713
1531.51, 0.104873
1531.96, 0.105032
1532.41, 0.104713
1532.87, 0.104340
1533.32, 0.104020
1533.77, 0.103807
1534.23, 0.104074
1534.68, 0.104606
1535.14, 0.104500
1535.59, 0.104500
1536.05, 0.104127
1536.5, 0.103861
1536.96, 0.104074
1537.41, 0.104180
1537.87, 0.104553
1538.32, 0.104660
1538.78, 0.104287
1539.24, 0.104074
1539.7, 0.104180
1540.15, 0.103861
1540.61, 0.104020
1541.07, 0.104606
1541.53, 0.104500
1541.98, 0.104180
1542.44, 0.104340
1542.9, 0.104340
1543.36, 0.104446
1543.82, 0.104553
1544.28, 0.104287
1544.74, 0.104340
1545.2, 0.104819
1545.66, 0.104873
1546.12, 0.104606
1546.59, 0.104713
1547.05, 0.104553
1547.51, 0.104287
1547.97, 0.104340
1548.43, 0.104553
1548.9, 0.104446
1549.36, 0.104340
1549.82, 0.104393
1550.29, 0.104393
1550.75, 0.104606
1551.21, 0.104606
1551.68, 0.104713
1552.14, 0.104713
1552.61, 0.104713
1553.07, 0.105086
1553.54, 0.104873
1554.0, 0.104553
1554.47, 0.104713
1554.93, 0.104660
1555.4, 0.104500
1555.87, 0.104500
1556.34, 0.104553
1556.8, 0.104819
1557.27, 0.105086
1557.74, 0.105086
1558.21, 0.104819
1558.68, 0.104660
1559.14, 0.104500
1559.61, 0.104127
1560.08, 0.104553
1560.55, 0.104873
1561.02, 0.104979
1561.49, 0.105032
1561.96, 0.104926
1562.43, 0.104766
1562.9, 0.104660
1563.38, 0.104873
1563.85, 0.105245
1564.32, 0.105299
1564.79, 0.105032
1565.26, 0.104926
1565.74, 0.104553
1566.21, 0.104606
1566.68, 0.104873
1567.16, 0.105299
1567.63, 0.105245
1568.1, 0.105086
1568.58, 0.105086
1569.05, 0.105192
1569.53, 0.105192
1570.0, 0.105299
1570.48, 0.105618
1570.96, 0.105778
1571.43, 0.105512
1571.91, 0.105139
1572.39, 0.105192
1572.86, 0.105245
1573.34, 0.105352
1573.82, 0.105512
1574.3, 0.105512
1574.77, 0.105405
1575.25, 0.105458
1575.73, 0.105831
1576.21, 0.105565
1576.69, 0.105512
1577.17, 0.105831
1577.65, 0.105885
1578.13, 0.105725
1578.61, 0.105565
1579.09, 0.105672
1579.57, 0.105618
1580.05, 0.105778
1580.54, 0.106098
1581.02, 0.106204
1581.5, 0.106098
1581.98, 0.106257
1582.47, 0.106311
1582.95, 0.106098
1583.43, 0.106098
1583.92, 0.106257
1584.4, 0.106257
1584.88, 0.106098
1585.37, 0.106044
1585.85, 0.106364
1586.34, 0.106470
1586.82, 0.106257
1587.31, 0.106364
1587.8, 0.106470
1588.28, 0.106417
1588.77, 0.106790
1589.26, 0.106790
1589.74, 0.106683
1590.23, 0.106683
1590.72, 0.106683
1591.21, 0.106737
1591.7, 0.106630
1592.19, 0.106630
1592.67, 0.106897
1593.16, 0.107003
1593.65, 0.106843
1594.14, 0.107003
1594.63, 0.107163
1595.12, 0.107056
1595.61, 0.107110
1596.11, 0.107056
1596.6, 0.107163
1597.09, 0.107269
1597.58, 0.107163
1598.08, 0.107269
1598.57, 0.107163
1599.06, 0.106897
1599.55, 0.107056
1600.05, 0.107269
1600.54, 0.107376
1601.04, 0.107216
1601.53, 0.107163
1602.03, 0.107429
1602.52, 0.107802
1603.02, 0.107642
1603.51, 0.107429
1604.01, 0.107642
1604.5, 0.107695
1605.0, 0.107802
1605.5, 0.107749
1606.0, 0.107589
1606.49, 0.107749
1606.99, 0.107589
1607.49, 0.107589
1607.99, 0.108015
1608.49, 0.108281
1608.99, 0.108122
1609.49, 0.108281
1609.99, 0.108494
1610.49, 0.108228
1610.99, 0.108122
1611.49, 0.108175
1611.99, 0.108122
1612.49, 0.108068
1612.99, 0.108228
1613.49, 0.108761
1614.0, 0.108974
1614.5, 0.108601
1615.0, 0.108228
1615.51, 0.108228
1616.01, 0.108494
1616.51, 0.108441
1617.02, 0.108441
1617.52, 0.108548
1618.03, 0.108548
1618.53, 0.108441
1619.04, 0.108548
1619.54, 0.108601
1620.05, 0.108761
1620.55, 0.108707
1621.06, 0.108707
1621.57, 0.108974
1622.08, 0.109187
1622.58, 0.109134
1623.09, 0.108814
1623.6, 0.108761
1624.11, 0.109134
1624.62, 0.109293
1625.13, 0.109134
1625.64, 0.108867
1626.15, 0.109027
1626.66, 0.109240
1627.17, 0.109240
1627.68, 0.109240
1628.19, 0.109347
1628.7, 0.109347
1629.21, 0.109027
1629.72, 0.108867
1630.24, 0.109187
1630.75, 0.109453
1631.26, 0.109666
1631.78, 0.109666
1632.29, 0.109187
1632.8, 0.109400
1633.32, 0.109826
1633.83, 0.109826
1634.35, 0.109932
1634.86, 0.109932
1635.38, 0.109986
1635.9, 0.109826
1636.41, 0.109666
1636.93, 0.109719
1637.45, 0.109666
1637.96, 0.109613
1638.48, 0.109666
1639.0, 0.109666
1639.52, 0.109773
1640.04, 0.109879
1640.56, 0.110092
1641.08, 0.110252
1641.59, 0.110199
1642.11, 0.110252
1642.63, 0.110199
1643.16, 0.110146
1643.68, 0.110252
1644.2, 0.110359
1644.72, 0.110359
1645.24, 0.110199
1645.76, 0.110305
1646.29, 0.110359
1646.81, 0.110465
1647.33, 0.110518
1647.86, 0.110572
1648.38, 0.110731
1648.9, 0.110678
1649.43, 0.110412
1649.95, 0.110465
1650.48, 0.110572
1651.0, 0.110572
1651.53, 0.110678
1652.06, 0.110838
1652.58, 0.110944
1653.11, 0.110891
1653.64, 0.110731
1654.17, 0.110625
1654.69, 0.110625
1655.22, 0.110731
1655.75, 0.110944
1656.28, 0.111104
1656.81, 0.111317
1657.34, 0.111424
1657.87, 0.111477
1658.4, 0.111264
1658.93, 0.111211
1659.46, 0.111264
1659.99, 0.111211
1660.52, 0.110891
1661.05, 0.110891
1661.59, 0.111157
1662.12, 0.111104
1662.65, 0.111104
1663.19, 0.111371
1663.72, 0.111637
1664.26, 0.111584
1664.79, 0.111264
1665.32, 0.111424
1665.86, 0.111637
1666.39, 0.111690
1666.93, 0.111850
1667.47, 0.111903
1668.0, 0.111690
1668.54, 0.111637
1669.08, 0.111743
1669.61, 0.112063
1670.15, 0.112063
1670.69, 0.111956
1671.23, 0.112063
1671.77, 0.112169
1672.31, 0.112063
1672.85, 0.111850
1673.39, 0.112116
1673.93, 0.112329
1674.47, 0.112383
1675.01, 0.112276
1675.55, 0.112116
1676.09, 0.112223
1676.64, 0.112329
1677.18, 0.112436
1677.72, 0.112329
1678.26, 0.112063
1678.81, 0.112169
1679.35, 0.112542
1679.89, 0.112809
1680.44, 0.112809
1680.98, 0.112596
1681.53, 0.112329
1682.07, 0.112223
1682.62, 0.112383
1683.17, 0.112596
1683.71, 0.112755
1684.26, 0.112755
1684.81, 0.112542
1685.36, 0.112542
1685.9, 0.112649
1686.45, 0.112755
1687.0, 0.112809
1687.55, 0.112862
1688.1, 0.113075
1688.65, 0.112968
1689.2, 0.112755
1689.75, 0.113022
1690.3, 0.113394
1690.85, 0.113128
1691.41, 0.112968
1691.96, 0.113181
1692.51, 0.113128
1693.06, 0.113235
1693.61, 0.113341
1694.17, 0.113394
1694.72, 0.113448
1695.28, 0.113448
1695.83, 0.113394
1696.39, 0.113554
1696.94, 0.113501
1697.5, 0.113394
1698.05, 0.113341
1698.61, 0.113288
1699.17, 0.113448
1699.72, 0.113448
1700.28, 0.113394
1700.84, 0.113554
1701.4, 0.113608
1701.95, 0.113608
1702.51, 0.113554
1703.07, 0.113501
1703.63, 0.113714
1704.19, 0.113874
1704.75, 0.113714
1705.31, 0.113767
1705.88, 0.113661
1706.44, 0.113608
1707.0, 0.113927
1707.56, 0.113927
1708.12, 0.113874
1708.69, 0.114087
1709.25, 0.114087
1709.81, 0.114140
1710.38, 0.114034
1710.94, 0.113874
1711.51, 0.113874
1712.07, 0.113927
1712.64, 0.114087
1713.2, 0.114140
1713.77, 0.114140
1714.34, 0.114034
1714.9, 0.114087
1715.47, 0.114193
1716.04, 0.114193
1716.61, 0.114193
1717.18, 0.114087
1717.74, 0.114193
1718.31, 0.114193
1718.88, 0.114193
1719.45, 0.114406
1720.02, 0.114406
1720.59, 0.114300
1721.17, 0.114353
1721.74, 0.114513
1722.31, 0.114460
1722.88, 0.114406
1723.45, 0.114460
1724.03, 0.114513
1724.6, 0.114566
1725.18, 0.114620
1725.75, 0.114779
1726.33, 0.114939
1726.9, 0.114992
1727.48, 0.114992
1728.05, 0.114779
1728.63, 0.114620
1729.2, 0.114726
1729.78, 0.114939
1730.36, 0.114886
1730.94, 0.114779
1731.51, 0.114779
1732.09, 0.114886
1732.67, 0.114779
1733.25, 0.114673
1733.83, 0.114673
1734.41, 0.114833
1734.99, 0.115046
1735.57, 0.115152
1736.15, 0.115046
1736.73, 0.114833
1737.32, 0.114886
1737.9, 0.115099
1738.48, 0.115046
1739.07, 0.114886
1739.65, 0.115152
1740.23, 0.115312
1740.82, 0.115259
1741.4, 0.115152
1741.99, 0.115365
1742.57, 0.115578
1743.16, 0.115578
1743.74, 0.115365
1744.33, 0.115099
1744.92, 0.115312
1745.51, 0.115525
1746.09, 0.115685
1746.68, 0.115578
1747.27, 0.115525
1747.86, 0.115418
1748.45, 0.115578
1749.04, 0.115631
1749.63, 0.115578
1750.22, 0.115578
1750.81, 0.115845
1751.4, 0.115845
1751.99, 0.115898
1752.59, 0.115845
1753.18, 0.115738
1753.77, 0.115738
1754.37, 0.115898
1754.96, 0.115951
1755.56, 0.116004
1756.15, 0.116004
1756.74, 0.115951
1757.34, 0.116111
1757.94, 0.116111
1758.53, 0.116217
1759.13, 0.116377
1759.73, 0.116111
1760.32, 0.116217
1760.92, 0.116377
1761.52, 0.116111
1762.12, 0.115951
1762.72, 0.116271
1763.32, 0.116484
1763.92, 0.116484
1764.52, 0.116484
1765.12, 0.116537
1765.72, 0.116643
1766.32, 0.116643
1766.92, 0.116750
1767.53, 0.116537
1768.13, 0.116271
1768.73, 0.116430
1769.34, 0.116803
1769.94, 0.117016
1770.55, 0.116857
1771.15, 0.116803
1771.76, 0.116963
1772.36, 0.117070
1772.97, 0.116963
1773.57, 0.116803
1774.18, 0.116910
1774.79, 0.117229
1775.4, 0.117176
1776.0, 0.117016
1776.61, 0.117123
1777.22, 0.117123
1777.83, 0.117070
1778.44, 0.117229
1779.05, 0.117176
1779.66, 0.117229
1780.27, 0.117389
1780.88, 0.117283
1781.5, 0.117123
1782.11, 0.117176
1782.72, 0.117123
1783.33, 0.117016
1783.95, 0.117229
1784.56, 0.117389
1785.18, 0.117389
1785.79, 0.117442
1786.41, 0.117442
1787.02, 0.117442
1787.64, 0.117496
1788.26, 0.117336
1788.87, 0.117336
1789.49, 0.117496
1790.11, 0.117496
1790.73, 0.117336
1791.35, 0.117389
1791.96, 0.117549
1792.58, 0.117655
1793.21, 0.117549
1793.83, 0.117496
1794.45, 0.117442
1795.07, 0.117336
1795.69, 0.117496
1796.31, 0.117655
1796.93, 0.117709
1797.56, 0.117762
1798.18, 0.117655
1798.8, 0.117496
1799.43, 0.117549
1800.05, 0.117496
1800.68, 0.117602
1801.3, 0.117815
1801.93, 0.117922
1802.56, 0.117868
1803.18, 0.117868
1803.81, 0.117815
1804.44, 0.117975
1805.07, 0.118082
1805.7, 0.117975
1806.33, 0.117868
1806.95, 0.117922
1807.58, 0.118135
1808.22, 0.118188
1808.85, 0.118082
1809.48, 0.118135
1810.11, 0.118028
1810.74, 0.118082
1811.38, 0.117922
1812.01, 0.117922
1812.64, 0.117975
1813.28, 0.118082
1813.91, 0.118188
1814.55, 0.118135
1815.18, 0.118135
1815.82, 0.118028
1816.45, 0.118028
1817.09, 0.118082
1817.73, 0.118188
1818.36, 0.118401
1819.0, 0.118454
1819.64, 0.118082
1820.28, 0.118028
1820.92, 0.118135
1821.56, 0.118135
1822.2, 0.118188
1822.84, 0.118454
1823.48, 0.118561
1824.12, 0.118508
1824.76, 0.118508
1825.41, 0.118401
1826.05, 0.117868
1826.69, 0.117975
1827.34, 0.118295
1827.98, 0.118348
1828.63, 0.118454
1829.27, 0.118508
1829.92, 0.118721
1830.56, 0.118880
1831.21, 0.118827
1831.86, 0.118880
1832.5, 0.118934
1833.15, 0.119147
1833.8, 0.119040
1834.45, 0.118721
1835.1, 0.118667
1835.75, 0.118561
1836.4, 0.118508
1837.05, 0.118614
1837.7, 0.118667
1838.35, 0.118987
1839.01, 0.119040
1839.66, 0.118827
1840.31, 0.118934
1840.96, 0.118880
1841.62, 0.118614
1842.27, 0.118987
1842.93, 0.119253
1843.58, 0.119307
1844.24, 0.119520
1844.9, 0.119573
1845.55, 0.119413
1846.21, 0.119094
1846.87, 0.118721
1847.53, 0.118667
1848.18, 0.118987
1848.84, 0.119413
1849.5, 0.119466
1850.16, 0.119573
1850.82, 0.119573
1851.48, 0.119733
1852.14, 0.119786
1852.81, 0.119573
1853.47, 0.119307
1854.13, 0.119466
1854.8, 0.119626
1855.46, 0.119626
1856.12, 0.119520
1856.79, 0.119679
1857.45, 0.120052
1858.12, 0.120105
1858.79, 0.119946
1859.45, 0.119626
1860.12, 0.119679
1860.79, 0.119839
1861.46, 0.120159
1862.12, 0.120105
1862.79, 0.119999
1863.46, 0.119892
1864.13, 0.120159
1864.8, 0.120265
1865.48, 0.120319
1866.15, 0.120319
1866.82, 0.120105
1867.49, 0.119946
1868.16, 0.120159
1868.84, 0.120265
1869.51, 0.120212
1870.19, 0.119839
1870.86, 0.119626
1871.54, 0.120159
1872.21, 0.120105
1872.89, 0.119892
1873.56, 0.120105
1874.24, 0.120052
1874.92, 0.120052
1875.6, 0.120212
1876.28, 0.120105
1876.96, 0.120052
1877.64, 0.120372
1878.32, 0.120532
1879.0, 0.120691
1879.68, 0.120745
1880.36, 0.120638
1881.04, 0.120638
1881.73, 0.120691
1882.41, 0.120638
1883.09, 0.120425
1883.78, 0.120319
1884.46, 0.120638
1885.15, 0.120691
1885.83, 0.120585
1886.52, 0.120638
1887.21, 0.120851
1887.89, 0.120851
1888.58, 0.120745
1889.27, 0.120585
1889.96, 0.120372
1890.65, 0.120585
1891.34, 0.120638
1892.03, 0.120798
1892.72, 0.120745
1893.41, 0.120478
1894.1, 0.120585
1894.79, 0.120851
1895.49, 0.120958
1896.18, 0.120958
1896.87, 0.120798
1897.57, 0.120585
1898.26, 0.120691
1898.96, 0.120532
1899.65, 0.120319
1900.35, 0.120585
1901.05, 0.120691
1901.74, 0.120585
1902.44, 0.120319
1903.14, 0.120372
1903.84, 0.120691
1904.54, 0.120638
1905.24, 0.120478
1905.94, 0.120425
1906.64, 0.120585
1907.34, 0.120904
1908.04, 0.120958
1908.75, 0.121117
1909.45, 0.121224
1910.15, 0.121064
1910.86, 0.120904
1911.56, 0.120904
1912.27, 0.121064
1912.97, 0.120851
1913.68, 0.120904
1914.39, 0.121224
1915.09, 0.121330
1915.8, 0.121277
1916.51, 0.121171
1917.22, 0.121171
1917.93, 0.121171
1918.64, 0.121224
1919.35, 0.121011
1920.06, 0.120638
1920.77, 0.120851
1921.48, 0.121277
1922.19, 0.121384
1922.91, 0.121437
1923.62, 0.121384
1924.33, 0.121437
1925.05, 0.121703
1925.76, 0.121703
1926.48, 0.121544
1927.19, 0.121597
1927.91, 0.121650
1928.63, 0.121757
1929.35, 0.121810
1930.07, 0.121810
1930.78, 0.121863
1931.5, 0.121703
1932.22, 0.121757
1932.94, 0.121863
1933.66, 0.121863
1934.39, 0.121757
1935.11, 0.121863
1935.83, 0.121970
1936.55, 0.121970
1937.28, 0.122076
1938.0, 0.122129
1938.73, 0.122023
1939.45, 0.122023
1940.18, 0.122342
1940.9, 0.122289
1941.63, 0.122289
1942.36, 0.122289
1943.09, 0.122129
1943.81, 0.122183
1944.54, 0.122236
1945.27, 0.122289
1946.0, 0.122183
1946.73, 0.122129
1947.47, 0.122449
1948.2, 0.122769
1948.93, 0.122609
1949.66, 0.122449
1950.4, 0.122502
1951.13, 0.122609
1951.86, 0.122769
1952.6, 0.122822
1953.34, 0.122769
1954.07, 0.122822
1954.81, 0.122875
1955.55, 0.122822
1956.29, 0.122769
1957.02, 0.122822
1957.76, 0.122822
1958.5, 0.122822
1959.24, 0.122875
1959.98, 0.123035
1960.72, 0.123141
1961.47, 0.123088
1962.21, 0.123088
1962.95, 0.123088
1963.7, 0.123088
1964.44, 0.123088
1965.18, 0.123248
1965.93, 0.123354
1966.67, 0.123195
1967.42, 0.123195
1968.17, 0.123301
1968.92, 0.123248
1969.66, 0.123195
1970.41, 0.123248
1971.16, 0.123354
1971.91, 0.123408
1972.66, 0.123408
1973.41, 0.123461
1974.16, 0.123408
1974.92, 0.123408
1975.67, 0.123461
1976.42, 0.123461
1977.18, 0.123461
1977.93, 0.123354
1978.69, 0.123408
1979.44, 0.123408
1980.2, 0.123514
1980.95, 0.123567
1981.71, 0.123461
1982.47, 0.123461
1983.23, 0.123514
1983.99, 0.123408
1984.74, 0.123354
1985.51, 0.123461
1986.27, 0.123514
1987.03, 0.123514
1987.79, 0.123621
1988.55, 0.123674
1989.32, 0.123514
1990.08, 0.123461
1990.84, 0.123461
1991.61, 0.123621
1992.37, 0.123621
1993.14, 0.123514
1993.9, 0.123514
1994.67, 0.123567
1995.44, 0.123621
1996.21, 0.123514
1996.98, 0.123514
1997.75, 0.123567
1998.52, 0.123727
1999.29, 0.123781
2000.06, 0.123940
2000.83, 0.123940
2001.6, 0.123674
2002.38, 0.123567
2003.15, 0.123621
2003.93, 0.123781
2004.7, 0.123887
2005.48, 0.123727
2006.25, 0.123781
2007.03, 0.123887
2007.81, 0.123834
2008.58, 0.123727
2009.36, 0.123727
2010.14, 0.123621
2010.92, 0.123781
2011.7, 0.123887
2012.48, 0.123940
2013.26, 0.123994
2014.05, 0.123994
2014.83, 0.123940
2015.61, 0.123887
2016.4, 0.123887
2017.18, 0.123940
2017.97, 0.123940
2018.75, 0.123994
2019.54, 0.124047
2020.32, 0.124153
2021.11, 0.124207
2021.9, 0.124153
2022.69, 0.124153
2023.48, 0.124100
2024.27, 0.124047
2025.06, 0.124100
2025.85, 0.124100
2026.64, 0.124153
2027.44, 0.124366
2028.23, 0.124366
2029.02, 0.124313
2029.82, 0.124313
2030.61, 0.124260
2031.41, 0.124260
2032.2, 0.124420
2033.0, 0.124473
2033.8, 0.124526
2034.6, 0.124526
2035.4, 0.124420
2036.2, 0.124420
2037.0, 0.124366
2037.8, 0.124473
2038.6, 0.124686
2039.4, 0.124686
2040.2, 0.124633
2041.01, 0.124793
2041.81, 0.124952
2042.61, 0.124899
2043.42, 0.124952
2044.22, 0.125165
2045.03, 0.125325
2045.84, 0.125272
2046.65, 0.125059
2047.46, 0.125006
2048.26, 0.125112
2049.07, 0.125112
2049.88, 0.125112
2050.69, 0.125219
2051.51, 0.125272
2052.32, 0.125325
2053.13, 0.125378
2053.94, 0.125432
2054.76, 0.125432
2055.57, 0.125378
2056.39, 0.125432
2057.2, 0.125378
2058.02, 0.125325
2058.84, 0.125378
2059.66, 0.125538
2060.48, 0.125645
2061.29, 0.125591
2062.11, 0.125485
2062.94, 0.125538
2063.76, 0.125591
2064.58, 0.125538
2065.4, 0.125538
2066.22, 0.125485
2067.05, 0.125538
2067.87, 0.125645
2068.7, 0.125751
2069.52, 0.125804
2070.35, 0.125804
2071.18, 0.125698
2072.0, 0.125645
2072.83, 0.125645
2073.66, 0.125751
2074.49, 0.125751
2075.32, 0.125751
2076.15, 0.125751
2076.98, 0.125858
2077.82, 0.125911
2078.65, 0.125858
2079.48, 0.126018
2080.32, 0.126018
2081.15, 0.126071
2081.99, 0.126071
2082.83, 0.125911
2083.66, 0.125911
2084.5, 0.125964
2085.34, 0.125911
2086.18, 0.125911
2087.02, 0.126018
2087.86, 0.126018
2088.7, 0.126071
2089.54, 0.126018
2090.39, 0.126071
2091.23, 0.126071
2092.07, 0.126071
2092.92, 0.126284
2093.76, 0.126337
2094.61, 0.126337
2095.45, 0.126071
2096.3, 0.125964
2097.15, 0.126124
2098.0, 0.126231
2098.85, 0.126177
2099.7, 0.126071
2100.55, 0.126018
2101.4, 0.126124
2102.25, 0.126124
2103.1, 0.126284
2103.96, 0.126337
2104.81, 0.126337
2105.67, 0.126177
2106.52, 0.126124
2107.38, 0.126177
2108.24, 0.126231
2109.09, 0.126337
2109.95, 0.126390
2110.81, 0.126284
2111.67, 0.126124
2112.53, 0.126177
2113.39, 0.126177
2114.25, 0.126231
2115.12, 0.126337
2115.98, 0.126231
2116.84, 0.126231
2117.71, 0.126284
2118.58, 0.126177
2119.44, 0.126284
2120.31, 0.126337
2121.18, 0.126337
2122.04, 0.126497
2122.91, 0.126444
2123.78, 0.126390
2124.65, 0.126444
2125.52, 0.126337
2126.4, 0.126390
2127.27, 0.126390
2128.14, 0.126444
2129.02, 0.126497
2129.89, 0.126444
2130.77, 0.126390
2131.64, 0.126497
2132.52, 0.126710
2133.4, 0.126550
2134.27, 0.126497
2135.15, 0.126657
2136.03, 0.126603
2136.91, 0.126603
2137.79, 0.126710
2138.68, 0.126657
2139.56, 0.126657
2140.44, 0.126763
2141.33, 0.126870
2142.21, 0.126763
2143.1, 0.126923
2143.99, 0.126976
2144.87, 0.126816
2145.76, 0.126923
2146.65, 0.127030
2147.54, 0.127030
2148.43, 0.126923
2149.32, 0.126870
2150.21, 0.126976
2151.1, 0.127136
2151.99, 0.127243
2152.89, 0.127243
2153.78, 0.127243
2154.68, 0.127243
2155.57, 0.127296
2156.47, 0.127243
2157.37, 0.127136
2158.27, 0.127136
2159.16, 0.127189
2160.06, 0.127243
2160.96, 0.127296
2161.86, 0.127296
2162.77, 0.127402
2163.67, 0.127349
2164.57, 0.127349
2165.48, 0.127456
2166.38, 0.127456
2167.29, 0.127456
2168.2, 0.127456
2169.1, 0.127509
2170.01, 0.127456
2170.92, 0.127456
2171.83, 0.127402
2172.74, 0.127456
2173.65, 0.127562
2174.56, 0.127669
2175.47, 0.127775
2176.39, 0.127882
2177.3, 0.127775
2178.22, 0.127722
2179.13, 0.127775
2180.05, 0.127828
2180.96, 0.127775
2181.88, 0.127828
2182.8, 0.127935
2183.72, 0.127775
2184.64, 0.127669
2185.56, 0.127828
2186.48, 0.128095
2187.41, 0.128148
2188.33, 0.128327
2189.25, 0.128685
2190.18, 0.128551
2191.1, 0.128238
2192.03, 0.128506
2192.96, 0.128551
2193.89, 0.128640
2194.82, 0.128640
2195.74, 0.128551
2196.68, 0.128506
2197.61, 0.128685
2198.54, 0.128730
2199.47, 0.128640
2200.4, 0.128640
2201.34, 0.128461
2202.28, 0.128372
2203.21, 0.128282
2204.15, 0.128238
2205.08, 0.128238
2206.02, 0.128059
2206.96, 0.127969
2207.9, 0.127880
2208.84, 0.127745
2209.78, 0.127835
2210.73, 0.127835
2211.67, 0.128014
2212.61, 0.128595
2213.56, 0.128551
2214.5, 0.128327
2215.45, 0.128551
2216.4, 0.128864
2217.35, 0.128819
2218.3, 0.128819
2219.24, 0.129088
2220.2, 0.128864
2221.15, 0.128461
2222.1, 0.128506
2223.05, 0.128730
2224.0, 0.128819
2224.96, 0.129043
2225.91, 0.129132
2226.87, 0.128909
2227.83, 0.129043
2228.79, 0.129177
2229.74, 0.129132
2230.7, 0.129088
2231.66, 0.129177
2232.63, 0.129177
2233.59, 0.129222
2234.55, 0.129088
2235.51, 0.128819
2236.48, 0.128909
2237.44, 0.129088
2238.41, 0.128998
2239.38, 0.128774
2240.34, 0.128730
2241.31, 0.128819
2242.28, 0.128909
2243.25, 0.128953
2244.22, 0.129222
2245.19, 0.129177
2246.17, 0.129222
2247.14, 0.129311
2248.12, 0.129177
2249.09, 0.129088
2250.07, 0.129132
2251.04, 0.129222
2252.02, 0.129132
2253.0, 0.128953
2253.98, 0.129088
2254.96, 0.129132
2255.94, 0.128998
2256.92, 0.128819
2257.91, 0.128909
2258.89, 0.129088
2259.88, 0.129132
2260.86, 0.129177
2261.85, 0.129043
2262.83, 0.129222
2263.82, 0.129311
2264.81, 0.129311
2265.8, 0.128953
2266.79, 0.128909
2267.78, 0.128909
2268.78, 0.129132
2269.77, 0.129490
2270.76, 0.129669
2271.76, 0.129356
2272.75, 0.129311
2273.75, 0.129356
2274.75, 0.128998
2275.75, 0.129177
2276.75, 0.129446
2277.75, 0.129267
2278.75, 0.129177
2279.75, 0.129356
2280.75, 0.129625
2281.76, 0.129625
2282.76, 0.129446
2283.77, 0.129401
2284.77, 0.129356
2285.78, 0.129311
2286.79, 0.129401
2287.8, 0.129267
2288.81, 0.129401
2289.82, 0.129759
2290.83, 0.129625
2291.84, 0.129580
2292.86, 0.129535
2293.87, 0.129535
2294.89, 0.129714
2295.91, 0.129580
2296.92, 0.129714
2297.94, 0.129893
2298.96, 0.129490
2299.98, 0.129311
2301.0, 0.129490
2302.02, 0.129490
2303.04, 0.129356
2304.07, 0.129446
2305.09, 0.129714
2306.12, 0.129580
2307.15, 0.129311
2308.17, 0.129311
2309.2, 0.129535
2310.23, 0.129938
2311.26, 0.129983
2312.29, 0.129983
2313.32, 0.129804
2314.35, 0.129535
2315.39, 0.129625
2316.42, 0.129625
2317.46, 0.129669
2318.5, 0.129625
2319.53, 0.129848
2320.57, 0.130206
2321.61, 0.130162
2322.65, 0.130117
2323.69, 0.129893
2324.73, 0.129535
2325.78, 0.129446
2326.82, 0.129759
2327.86, 0.129848
2328.91, 0.129848
2329.96, 0.129893
2331.01, 0.129669
2332.05, 0.129714
2333.1, 0.129893
2334.15, 0.129759
2335.21, 0.129938
2336.26, 0.130206
2337.31, 0.130206
2338.36, 0.130206
2339.42, 0.130027
2340.48, 0.130162
2341.53, 0.130072
2342.59, 0.129848
2343.65, 0.129848
2344.71, 0.129759
2345.77, 0.129759
2346.83, 0.129804
2347.9, 0.129893
2348.96, 0.130072
2350.02, 0.130251
2351.09, 0.130117
2352.16, 0.129938
2353.23, 0.129938
2354.29, 0.130072
2355.36, 0.130117
2356.43, 0.129983
2357.51, 0.130072
2358.58, 0.130117
2359.65, 0.130117
2360.73, 0.130251
2361.8, 0.130430
2362.88, 0.130296
2363.96, 0.130072
2365.03, 0.130206
2366.11, 0.130519
2367.19, 0.130519
2368.27, 0.130430
2369.36, 0.130296
2370.44, 0.130251
2371.53, 0.130251
2372.61, 0.130341
2373.7, 0.130475
2374.78, 0.130430
2375.87, 0.130385
2376.96, 0.130251
2378.05, 0.130206
2379.14, 0.130385
2380.24, 0.130519
2381.33, 0.130430
2382.42, 0.130162
2383.52, 0.129983
2384.61, 0.130162
2385.71, 0.130251
2386.81, 0.130251
2387.91, 0.130430
2389.01, 0.130519
2390.11, 0.130341
2391.22, 0.130162
2392.32, 0.130117
2393.42, 0.130206
2394.53, 0.130475
2395.64, 0.130519
2396.74, 0.130430
2397.85, 0.130385
2398.96, 0.130564
2400.07, 0.130743
2401.18, 0.130833
2402.3, 0.130743
2403.41, 0.130654
2404.52, 0.130743
2405.64, 0.130743
2406.76, 0.130743
2407.88, 0.130698
2408.99, 0.130519
2410.11, 0.130430
2411.23, 0.130430
2412.36, 0.130564
2413.48, 0.130743
2414.6, 0.130743
2415.73, 0.130743
2416.85, 0.130609
2417.98, 0.130654
2419.11, 0.130833
2420.24, 0.130922
2421.37, 0.130877
2422.5, 0.130743
2423.64, 0.130698
2424.77, 0.130788
2425.9, 0.130877
2427.04, 0.130564
2428.18, 0.130609
2429.31, 0.130654
2430.45, 0.130743
2431.59, 0.130743
2432.73, 0.130654
2433.88, 0.130654
2435.02, 0.130564
2436.16, 0.130430
2437.31, 0.130385
2438.45, 0.130519
2439.6, 0.130519
2440.75, 0.130609
2441.9, 0.130698
2443.05, 0.130564
2444.2, 0.130698
2445.35, 0.130877
2446.51, 0.130609
2447.67, 0.130609
2448.82, 0.130833
2449.98, 0.130877
2451.14, 0.130877
2452.3, 0.130922
2453.46, 0.130788
2454.62, 0.130743
2455.78, 0.130788
2456.94, 0.130877
2458.11, 0.131101
2459.28, 0.131146
2460.44, 0.130922
2461.61, 0.130877
2462.78, 0.131056
2463.95, 0.131012
2465.12, 0.131056
2466.3, 0.131235
2467.47, 0.131280
2468.65, 0.131191
2469.82, 0.130833
2471.0, 0.130833
2472.18, 0.131101
2473.36, 0.131235
2474.54, 0.131414
2475.72, 0.131459
2476.9, 0.131325
2478.08, 0.131235
2479.27, 0.131235
2480.46, 0.131325
2481.64, 0.131414
2482.83, 0.131370
2484.02, 0.131235
2485.21, 0.131191
2486.4, 0.131370
2487.6, 0.131504
2488.79, 0.131325
2489.99, 0.131146
2491.18, 0.131280
2492.38, 0.131235
2493.58, 0.131235
2494.78, 0.131191
2495.98, 0.131056
2497.18, 0.131056
2498.39, 0.131191
2499.59, 0.131414
2500.8, 0.131459
2502.01, 0.131370
2503.21, 0.131325
2504.42, 0.131191
2505.63, 0.131146
2506.84, 0.131235
2508.06, 0.131191
2509.27, 0.131280
2510.49, 0.131593
2511.7, 0.131593
2512.92, 0.131549
2514.14, 0.131504
2515.36, 0.131325
2516.58, 0.131101
2517.8, 0.131101
2519.03, 0.131191
2520.25, 0.131280
2521.48, 0.131325
2522.7, 0.131191
2523.93, 0.131325
2525.16, 0.131504
2526.39, 0.131370
2527.62, 0.131325
2528.86, 0.131191
2530.09, 0.130967
2531.33, 0.130967
2532.56, 0.131146
2533.8, 0.131280
2535.04, 0.131146
2536.28, 0.131146
2537.52, 0.131459
2538.76, 0.131414
2540.01, 0.131370
2541.25, 0.131235
2542.5, 0.130967
2543.75, 0.130922
2544.99, 0.131191
2546.24, 0.131191
2547.49, 0.131056
2548.75, 0.131370
2550.0, 0.131101
2551.26, 0.130788
2552.51, 0.130833
2553.77, 0.131280
2555.03, 0.131549
2556.29, 0.131638
2557.55, 0.131504
2558.81, 0.131056
2560.08, 0.130117
2561.34, 0.129446
2562.61, 0.129490
2563.88, 0.129714
2565.14, 0.130564
2566.41, 0.131325
2567.68, 0.130877
2568.96, 0.129983
2570.23, 0.130430
2571.51, 0.130833
2572.78, 0.129490
2574.06, 0.129983
2575.34, 0.130609
2576.62, 0.130296
2577.9, 0.131101
2579.18, 0.131414
2580.47, 0.130698
2581.75, 0.130430
2583.04, 0.129043
2584.32, 0.129311
2585.61, 0.130162
2586.9, 0.129535
2588.2, 0.130117
2589.49, 0.130654
2590.78, 0.131146
2592.08, 0.130430
2593.37, 0.126806
2594.67, 0.124300
2595.97, 0.127656
2597.27, 0.130564
2598.57, 0.131414
2599.88, 0.131012
2601.18, 0.130475
2602.49, 0.130251
2603.79, 0.129222
2605.1, 0.127924
2606.41, 0.128953
2607.72, 0.129983
2609.03, 0.130251
2610.35, 0.130877
2611.66, 0.131280
2612.98, 0.130788
2614.3, 0.130833
2615.62, 0.129222
2616.94, 0.128640
2618.26, 0.129893
2619.58, 0.128595
2620.91, 0.129356
2622.23, 0.131593
2623.56, 0.131772
2624.89, 0.130877
2626.22, 0.129401
2627.55, 0.130385
2628.88, 0.129759
2630.21, 0.128238
2631.55, 0.129938
2632.89, 0.130967
2634.22, 0.131101
2635.56, 0.131728
2636.9, 0.131638
2638.25, 0.131683
2639.59, 0.131772
2640.93, 0.131593
2642.28, 0.131459
2643.63, 0.131593
2644.98, 0.131101
2646.33, 0.131280
2647.68, 0.131728
2649.03, 0.131817
2650.39, 0.131414
2651.74, 0.130430
2653.1, 0.130475
2654.46, 0.130922
2655.82, 0.130877
2657.18, 0.131280
2658.54, 0.130564
2659.9, 0.130296
2661.27, 0.130430
2662.64, 0.130251
2664.01, 0.127835
2665.38, 0.126135
2666.74, 0.126537
2668.12, 0.127969
2669.49, 0.125463
2670.87, 0.125866
2672.24, 0.129311
2673.62, 0.129625
2675.0, 0.128148
2676.38, 0.126850
2677.76, 0.127208
2679.15, 0.127343
2680.54, 0.128551
2681.92, 0.128461
2683.31, 0.127924
2684.7, 0.127701
2686.09, 0.127387
2687.48, 0.127298
2688.88, 0.127164
2690.27, 0.126850
2691.67, 0.125687
2693.07, 0.123316
2694.47, 0.122465
2695.87, 0.122689
2697.27, 0.122644
2698.67, 0.121571
2700.08, 0.119378
2701.49, 0.117454
2702.9, 0.116335
2704.31, 0.114725
2705.72, 0.113293
2707.13, 0.112219
2708.54, 0.111100
2709.96, 0.110116
2711.38, 0.111458
2712.8, 0.114233
2714.22, 0.115172
2715.64, 0.115441
2717.06, 0.115396
2718.49, 0.114322
2719.91, 0.111772
2721.34, 0.112309
2722.77, 0.112309
2724.2, 0.110653
2725.63, 0.111369
2727.07, 0.112622
2728.5, 0.113248
2729.94, 0.113248
2731.38, 0.113114
2732.82, 0.112309
2734.26, 0.110653
2735.7, 0.110384
2737.15, 0.109937
2738.59, 0.107924
2740.04, 0.107297
2741.49, 0.109042
2742.94, 0.110921
2744.39, 0.111682
2745.84, 0.111906
2747.3, 0.112040
2748.76, 0.111951
2750.21, 0.111637
2751.67, 0.111190
2753.14, 0.110161
2754.6, 0.107610
2756.06, 0.107252
2757.53, 0.107968
2759.0, 0.106939
2760.46, 0.105015
2761.94, 0.103449
2763.41, 0.104523
2764.88, 0.106626
2766.36, 0.107476
2767.83, 0.107834
2769.31, 0.107834
2770.79, 0.107610
2772.27, 0.108282
2773.76, 0.108774
2775.24, 0.108818
2776.73, 0.108684
2778.22, 0.108863
2779.71, 0.108908
2781.2, 0.108908
2782.69, 0.109176
2784.18, 0.109311
2785.68, 0.108595
2787.18, 0.108237
2788.68, 0.108863
2790.18, 0.109400
2791.68, 0.109534
2793.19, 0.109579
2794.69, 0.109669
2796.2, 0.109713
2797.71, 0.109713
2799.22, 0.109803
2800.73, 0.109445
2802.24, 0.108774
2803.76, 0.108908
2805.28, 0.109534
2806.8, 0.109803
2808.32, 0.109848
2809.84, 0.109848
2811.36, 0.109982
2812.89, 0.110027
2814.42, 0.109937
2815.94, 0.110071
2817.48, 0.110206
2819.01, 0.110071
2820.54, 0.110116
2822.08, 0.110474
2823.61, 0.110698
2825.15, 0.110742
2826.69, 0.110698
2828.23, 0.110877
2829.78, 0.111190
2831.32, 0.111369
2832.87, 0.111458
2834.42, 0.111414
2835.97, 0.111369
2837.52, 0.111458
2839.08, 0.111772
2840.63, 0.112040
2842.19, 0.112174
2843.75, 0.112487
2845.31, 0.112577
2846.87, 0.112622
2848.44, 0.112666
2850.0, 0.112756
2851.57, 0.112890
2853.14, 0.112801
2854.71, 0.112890
2856.28, 0.113114
2857.86, 0.113293
2859.43, 0.113427
2861.01, 0.113517
2862.59, 0.113517
2864.17, 0.113472
2865.76, 0.113517
2867.34, 0.113517
2868.93, 0.113517
2870.52, 0.113472
2872.11, 0.113561
2873.7, 0.113740
2875.29, 0.113740
2876.89, 0.113606
2878.49, 0.113561
2880.08, 0.113517
2881.69, 0.113427
2883.29, 0.113606
2884.89, 0.113651
2886.5, 0.113561
2888.11, 0.113517
2889.72, 0.113561
2891.33, 0.113472
2892.94, 0.113338
2894.56, 0.113472
2896.17, 0.113517
2897.79, 0.113472
2899.42, 0.113248
2901.04, 0.113069
2902.66, 0.113159
2904.29, 0.113114
2905.92, 0.113069
2907.55, 0.113114
2909.18, 0.113159
2910.81, 0.113069
2912.45, 0.112980
2914.08, 0.112980
2915.72, 0.112980
2917.36, 0.112980
2919.01, 0.112935
2920.65, 0.112756
2922.3, 0.112845
2923.94, 0.112935
2925.59, 0.112845
2927.25, 0.112845
2928.9, 0.112935
2930.56, 0.113024
2932.21, 0.112980
2933.87, 0.112801
2935.53, 0.112890
2937.2, 0.113069
2938.86, 0.113159
2940.53, 0.113159
2942.2, 0.113069
2943.87, 0.113114
2945.54, 0.113203
2947.22, 0.113338
2948.89, 0.113338
2950.57, 0.113472
2952.25, 0.113517
2953.93, 0.113561
2955.62, 0.113740
2957.3, 0.113830
2958.99, 0.113875
2960.68, 0.113964
2962.37, 0.114143
2964.07, 0.114143
2965.76, 0.114054
2967.46, 0.114098
2969.16, 0.114277
2970.86, 0.114456
2972.56, 0.114635
2974.27, 0.114814
2975.98, 0.114904
2977.69, 0.114993
2979.4, 0.115127
2981.11, 0.115262
2982.83, 0.115396
2984.54, 0.115485
2986.26, 0.115485
2987.98, 0.115620
2989.71, 0.115754
2991.43, 0.115799
2993.16, 0.116022
2994.89, 0.116201
2996.62, 0.116246
2998.35, 0.116291
3000.09, 0.116470
3001.83, 0.116693
3003.57, 0.116783
3005.31, 0.116828
3007.05, 0.116962
3008.79, 0.117096
3010.54, 0.117186
3012.29, 0.117230
3014.04, 0.117409
3015.8, 0.117588
3017.55, 0.117723
3019.31, 0.117857
3021.07, 0.117857
3022.83, 0.118125
3024.59, 0.118349
3026.36, 0.118483
3028.13, 0.118528
3029.9, 0.118573
3031.67, 0.118662
3033.44, 0.118752
3035.22, 0.118975
3037.0, 0.119110
3038.78, 0.119110
3040.56, 0.119110
3042.34, 0.119378
3044.13, 0.119691
3045.92, 0.119781
3047.71, 0.119781
3049.5, 0.119826
3051.3, 0.120005
3053.09, 0.120139
3054.89, 0.120318
3056.69, 0.120452
3058.5, 0.120497
3060.3, 0.120497
3062.11, 0.120541
3063.92, 0.120720
3065.73, 0.120899
3067.55, 0.120944
3069.36, 0.120944
3071.18, 0.121123
3073.0, 0.121347
3074.82, 0.121526
3076.65, 0.121571
3078.48, 0.121615
3080.31, 0.121750
3082.14, 0.121839
3083.97, 0.122018
3085.8, 0.122108
3087.64, 0.122018
3089.48, 0.122197
3091.33, 0.122421
3093.17, 0.122510
3095.02, 0.122510
3096.87, 0.122600
3098.72, 0.122868
3100.57, 0.123047
3102.43, 0.123002
3104.28, 0.123092
3106.14, 0.123271
3108.01, 0.123360
3109.87, 0.123450
3111.74, 0.123495
3113.61, 0.123674
3115.48, 0.123808
3117.35, 0.123808
3119.23, 0.123853
3121.1, 0.123942
3122.98, 0.124211
3124.87, 0.124345
3126.75, 0.124389
3128.64, 0.124479
3130.53, 0.124613
3132.42, 0.124747
3134.31, 0.124747
3136.21, 0.124792
3138.11, 0.124971
3140.01, 0.125150
3141.91, 0.125284
3143.82, 0.125329
3145.73, 0.125374
3147.64, 0.125508
3149.55, 0.125687
3151.46, 0.125732
3153.38, 0.125821
3155.3, 0.125956
3157.22, 0.126045
3159.14, 0.126179
3161.07, 0.126224
3163.0, 0.126403
3164.93, 0.126492
3166.86, 0.126537
3168.8, 0.126627
3170.74, 0.126671
3172.68, 0.126761
3174.62, 0.126940
3176.56, 0.126985
3178.51, 0.127029
3180.46, 0.127074
3182.42, 0.127164
3184.37, 0.127164
3186.33, 0.127343
3188.29, 0.127522
3190.25, 0.127522
3192.21, 0.127522
3194.18, 0.127611
3196.15, 0.127701
3198.12, 0.127745
3200.09, 0.127835
3202.07, 0.128014
3204.05, 0.128193
3206.03, 0.128193
3208.02, 0.128103
3210.0, 0.128148
3211.99, 0.128327
3213.98, 0.128372
3215.98, 0.128461
3217.97, 0.128595
3219.97, 0.128730
3221.97, 0.128774
3223.98, 0.128864
3225.98, 0.128909
3227.99, 0.128998
3230.0, 0.129088
3232.02, 0.129132
3234.03, 0.129177
3236.05, 0.129222
3238.07, 0.129267
3240.1, 0.129401
3242.12, 0.129580
3244.15, 0.129625
3246.18, 0.129714
3248.22, 0.129669
3250.25, 0.129759
3252.29, 0.129893
3254.33, 0.130027
3256.38, 0.130117
3258.43, 0.130072
3260.47, 0.130206
3262.53, 0.130206
3264.58, 0.130296
3266.64, 0.130341
3268.7, 0.130341
3270.76, 0.130430
3272.82, 0.130564
3274.89, 0.130654
3276.96, 0.130698
3279.04, 0.130788
3281.11, 0.130833
3283.19, 0.130877
3285.27, 0.130922
3287.35, 0.130967
3289.44, 0.130967
3291.53, 0.131012
3293.62, 0.131101
3295.71, 0.131235
3297.81, 0.131414
3299.91, 0.131370
3302.01, 0.131370
3304.11, 0.131549
3306.22, 0.131549
3308.33, 0.131549
3310.44, 0.131593
3312.56, 0.131638
3314.68, 0.131772
3316.8, 0.131862
3318.92, 0.131817
3321.05, 0.131772
3323.18, 0.131772
3325.31, 0.131817
3327.44, 0.131862
3329.58, 0.132041
3331.72, 0.132175
3333.86, 0.132175
3336.01, 0.132175
3338.16, 0.132175
3340.31, 0.132265
3342.46, 0.132265
3344.61, 0.132309
3346.77, 0.132354
3348.94, 0.132354
3351.1, 0.132488
3353.27, 0.132578
3355.44, 0.132533
3357.61, 0.132578
3359.79, 0.132622
3361.97, 0.132622
3364.15, 0.132667
3366.33, 0.132712
3368.52, 0.132757
3370.71, 0.132801
3372.9, 0.132891
3375.1, 0.132846
3377.3, 0.132980
3379.5, 0.133025
3381.71, 0.132980
3383.91, 0.133070
3386.12, 0.133070
3388.34, 0.133070
3390.55, 0.133115
3392.77, 0.133159
3394.99, 0.133249
3397.22, 0.133294
3399.45, 0.133204
3401.68, 0.133204
3403.91, 0.133294
3406.15, 0.133383
3408.39, 0.133383
3410.63, 0.133383
3412.87, 0.133428
3415.12, 0.133428
3417.37, 0.133562
3419.63, 0.133607
3421.88, 0.133696
3424.14, 0.133741
3426.41, 0.133741
3428.67, 0.133696
3430.94, 0.133696
3433.21, 0.133831
3435.49, 0.133875
3437.77, 0.133875
3440.05, 0.133965
3442.33, 0.133965
3444.62, 0.134010
3446.91, 0.134010
3449.2, 0.134010
3451.5, 0.134010
3453.8, 0.134054
3456.1, 0.134010
3458.41, 0.134099
3460.72, 0.134233
3463.03, 0.134278
3465.34, 0.134233
3467.66, 0.134189
3469.98, 0.134189
3472.31, 0.134189
3474.63, 0.134144
3476.96, 0.134189
3479.3, 0.134278
3481.64, 0.134233
3483.97, 0.134278
3486.32, 0.134457
3488.66, 0.134546
3491.01, 0.134502
3493.36, 0.134457
3495.72, 0.134502
3498.08, 0.134546
3500.44, 0.134546
3502.81, 0.134636
3505.18, 0.134591
3507.55, 0.134591
3509.92, 0.134546
3512.3, 0.134636
3514.68, 0.134770
3517.06, 0.134770
3519.45, 0.134725
3521.84, 0.134770
3524.24, 0.134904
3526.64, 0.134904
3529.04, 0.134949
3531.44, 0.134994
3533.85, 0.135039
3536.26, 0.135083
3538.67, 0.135083
3541.09, 0.135128
3543.51, 0.135173
3545.93, 0.135173
3548.36, 0.135128
3550.79, 0.135128
3553.22, 0.135128
3555.66, 0.135218
3558.1, 0.135307
3560.54, 0.135352
3562.99, 0.135307
3565.44, 0.135262
3567.9, 0.135262
3570.35, 0.135262
3572.81, 0.135218
3575.28, 0.135262
3577.75, 0.135352
3580.22, 0.135397
3582.69, 0.135397
3585.17, 0.135441
3587.65, 0.135307
3590.14, 0.135307
3592.62, 0.135441
3595.11, 0.135486
3597.61, 0.135397
3600.11, 0.135486
3602.61, 0.135576
3605.11, 0.135576
3607.62, 0.135531
3610.14, 0.135576
3612.65, 0.135576
3615.17, 0.135620
3617.69, 0.135576
3620.22, 0.135441
3622.75, 0.135576
3625.28, 0.135710
3627.82, 0.135665
3630.36, 0.135620
3632.9, 0.135620
3635.45, 0.135710
3638.0, 0.135799
3640.56, 0.135755
3643.12, 0.135755
3645.68, 0.135799
3648.24, 0.135799
3650.81, 0.135665
3653.39, 0.135531
3655.96, 0.135486
3658.54, 0.135576
3661.13, 0.135576
3663.71, 0.135576
3666.3, 0.135710
3668.9, 0.135799
3671.5, 0.135710
3674.1, 0.135665
3676.7, 0.135665
3679.31, 0.135665
3681.93, 0.135576
3684.54, 0.135486
3687.17, 0.135576
3689.79, 0.135620
3692.42, 0.135620
3695.05, 0.135620
3697.69, 0.135576
3700.32, 0.135665
3702.97, 0.135710
3705.61, 0.135755
3708.27, 0.135799
3710.92, 0.135844
3713.58, 0.135844
3716.24, 0.135844
3718.91, 0.135844
3721.58, 0.135889
3724.25, 0.135889
3726.93, 0.135889
3729.61, 0.135889
3732.29, 0.135934
3734.98, 0.136023
3737.67, 0.136023
3740.37, 0.135934
3743.07, 0.135978
3745.78, 0.136113
3748.49, 0.136113
3751.2, 0.136068
3753.91, 0.136113
3756.63, 0.136157
3759.36, 0.136157
3762.09, 0.136068
3764.82, 0.136068
3767.55, 0.136113
3770.29, 0.136113
3773.04, 0.136068
3775.78, 0.136023
3778.54, 0.136068
3781.29, 0.136113
3784.05, 0.136157
3786.82, 0.136202
3789.59, 0.136157
3792.36, 0.136157
3795.13, 0.136113
3797.92, 0.136157
3800.7, 0.136202
3803.49, 0.136202
3806.28, 0.136068
3809.08, 0.136068
3811.88, 0.136113
3814.68, 0.136202
3817.49, 0.136157
3820.31, 0.136113
3823.12, 0.136202
3825.94, 0.136157
3828.77, 0.136068
3831.6, 0.136068
3834.43, 0.136068
3837.27, 0.136113
3840.11, 0.136113
3842.96, 0.136202
3845.81, 0.136113
3848.67, 0.135978
3851.53, 0.136023
3854.39, 0.136157
3857.26, 0.136157
3860.13, 0.136023
3863.01, 0.135978
3865.89, 0.135978
3868.77, 0.136023
3871.66, 0.136023
3874.55, 0.136113
3877.45, 0.136157
3880.35, 0.136068
3883.26, 0.136023
3886.17, 0.136023
3889.09, 0.135978
3892.01, 0.135934
3894.93, 0.135978
3897.86, 0.136068
3900.79, 0.136068
3903.73, 0.136068
3906.67, 0.136068
3909.62, 0.135978
3912.57, 0.135978
3915.52, 0.136023
3918.48, 0.136023
3921.45, 0.135978
3924.42, 0.135844
3927.39, 0.135844
3930.37, 0.135844
3933.35, 0.135755
3936.34, 0.135755
3939.33, 0.135889
3942.32, 0.135844
3945.32, 0.135755
3948.33, 0.135710
3951.34, 0.135755
3954.35, 0.135799
3957.37, 0.135755
3960.39, 0.135755
3963.42, 0.135799
3966.45, 0.135755
3969.49, 0.135710
3972.53, 0.135665
3975.58, 0.135620
3978.63, 0.135620
3981.68, 0.135620
3984.75, 0.135665
3987.81, 0.135755
3990.88, 0.135799
3993.95, 0.135710
3997.03, 0.135576
4000.12, 0.135531
4003.21, 0.135576
4006.3, 0.135576
4009.4, 0.135531
4012.5, 0.135531
4015.61, 0.135486
4018.72, 0.135486
4021.84, 0.135531
4024.96, 0.135441
4028.09, 0.135441
4031.22, 0.135486
4034.36, 0.135486
4037.5, 0.135441
4040.65, 0.135441
4043.8, 0.135397
4046.96, 0.135307
4050.12, 0.135307
4053.29, 0.135352
4056.46, 0.135352
4059.64, 0.135352
4062.82, 0.135262
4066.0, 0.135218
4069.19, 0.135218
4072.39, 0.135218
4075.59, 0.135218
4078.8, 0.135218
4082.01, 0.135218
4085.23, 0.135218
4088.45, 0.135173
4091.68, 0.135083
4094.91, 0.134994
4098.15, 0.135039
4101.39, 0.135083
4104.63, 0.135083
4107.89, 0.135039
4111.14, 0.135039
4114.41, 0.135083
4117.67, 0.135128
4120.95, 0.135083
4124.23, 0.135128
4127.51, 0.135083
4130.8, 0.135039
4134.09, 0.135039
4137.39, 0.135039
4140.7, 0.134904
4144.01, 0.134904
4147.32, 0.134904
4150.64, 0.134860
4153.97, 0.134770
4157.3, 0.134860
4160.64, 0.134949
4163.98, 0.134949
4167.33, 0.134904
4170.68, 0.134815
4174.04, 0.134725
4177.4, 0.134681
4180.77, 0.134681
4184.14, 0.134770
4187.52, 0.134770
4190.91, 0.134681
4194.3, 0.134725
4197.69, 0.134725
4201.1, 0.134636
4204.5, 0.134636
4207.92, 0.134591
4211.34, 0.134502
4214.76, 0.134412
4218.19, 0.134457
4221.62, 0.134502
4225.06, 0.134502
4228.51, 0.134457
4231.96, 0.134457
4235.42, 0.134367
4238.88, 0.134367
4242.35, 0.134412
4245.83, 0.134323
4249.31, 0.134278
4252.79, 0.134189
4256.28, 0.134054
4259.78, 0.133920
4263.29, 0.133965
4266.79, 0.134054
4270.31, 0.134054
4273.83, 0.134054
4277.35, 0.134010
4280.89, 0.134054
4284.42, 0.134099
4287.97, 0.134054
4291.52, 0.134010
4295.07, 0.134010
4298.63, 0.134010
4302.2, 0.133965
4305.78, 0.133965
4309.35, 0.134010
4312.94, 0.134010
4316.53, 0.133920
4320.13, 0.133875
4323.73, 0.133875
4327.34, 0.133831
4330.96, 0.133786
4334.58, 0.133786
4338.21, 0.133831
4341.84, 0.133831
4345.48, 0.133831
4349.12, 0.133696
4352.77, 0.133652
4356.43, 0.133652
4360.1, 0.133652
4363.76, 0.133562
4367.44, 0.133517
4371.12, 0.133473
4374.81, 0.133383
4378.51, 0.133383
4382.21, 0.133338
4385.92, 0.133294
4389.63, 0.133249
4393.35, 0.133159
4397.08, 0.133159
4400.81, 0.133159
4404.55, 0.133204
4408.29, 0.133204
4412.04, 0.133070
4415.8, 0.132936
4419.57, 0.132891
4423.34, 0.132891
4427.12, 0.132891
4430.9, 0.132846
4434.69, 0.132891
4438.49, 0.132846
4442.29, 0.132801
4446.1, 0.132801
4449.92, 0.132667
4453.74, 0.132578
4457.57, 0.132622
4461.41, 0.132533
4465.25, 0.132399
4469.1, 0.132354
4472.95, 0.132354
4476.82, 0.132265
4480.69, 0.132086
4484.56, 0.132041
4488.44, 0.132041
4492.33, 0.131996
4496.23, 0.131996
4500.13, 0.131996
4504.04, 0.131951
4507.96, 0.131817
4511.88, 0.131728
4515.81, 0.131683
4519.75, 0.131593
4523.69, 0.131459
4527.65, 0.131459
4531.6, 0.131459
4535.57, 0.131414
4539.54, 0.131280
4543.52, 0.131235
4547.5, 0.131191
4551.5, 0.131146
4555.5, 0.131056
4559.5, 0.130967
4563.52, 0.130922
4567.54, 0.130877
4571.56, 0.130743
4575.6, 0.130698
4579.64, 0.130609
4583.69, 0.130430
4587.75, 0.130385
4591.81, 0.130341
4595.88, 0.130296
4599.96, 0.130206
4604.04, 0.130117
4608.14, 0.129983
4612.24, 0.129893
4616.34, 0.129759
4620.46, 0.129669
4624.58, 0.129580
4628.71, 0.129490
4632.84, 0.129446
4636.99, 0.129356
4641.14, 0.129311
4645.3, 0.129132
4649.47, 0.129043
4653.64, 0.128953
4657.82, 0.128909
4662.01, 0.128864
4666.21, 0.128864
4670.41, 0.128730
4674.62, 0.128640
4678.84, 0.128595
4683.07, 0.128595
4687.3, 0.128551
4691.54, 0.128416
4695.79, 0.128372
4700.05, 0.128372
4704.31, 0.128327
4708.59, 0.128282
4712.87, 0.128238
4717.15, 0.128193
4721.45, 0.128103
4725.76, 0.128014
4730.07, 0.127924
4734.39, 0.127790
4738.72, 0.127701
4743.05, 0.127701
4747.39, 0.127701
4751.75, 0.127656
4756.1, 0.127611
4760.47, 0.127566
4764.85, 0.127522
4769.23, 0.127343
4773.62, 0.127298
4778.02, 0.127253
4782.43, 0.127164
4786.85, 0.127074
4791.27, 0.127029
4795.7, 0.126940
4800.14, 0.126850
4804.59, 0.126806
4809.05, 0.126716
4813.51, 0.126671
4817.99, 0.126582
4822.47, 0.126492
4826.96, 0.126492
4831.46, 0.126492
4835.96, 0.126358
4840.48, 0.126224
4845.0, 0.126179
4849.54, 0.126135
4854.08, 0.126045
4858.63, 0.126045
4863.18, 0.126000
4867.75, 0.125911
4872.33, 0.125777
4876.91, 0.125687
4881.5, 0.125598
4886.1, 0.125553
4890.71, 0.125508
4895.33, 0.125374
4899.96, 0.125284
4904.59, 0.125240
4909.24, 0.125105
4913.89, 0.124971
4918.55, 0.124882
4923.22, 0.124837
4927.9, 0.124747
4932.59, 0.124658
4937.29, 0.124524
4942.0, 0.124345
4946.71, 0.124300
4951.44, 0.124211
4956.17, 0.124032
4960.91, 0.123942
4965.67, 0.123853
4970.43, 0.123674
4975.2, 0.123584
4979.98, 0.123450
4984.76, 0.123360
4989.56, 0.123271
4994.37, 0.123226
4999.18, 0.123181
5004.01, 0.123092
5008.84, 0.122913
5013.69, 0.122689
5018.54, 0.122555
5023.4, 0.122644
5028.28, 0.122734
5033.16, 0.122779
5038.05, 0.122734
5042.95, 0.122734
5047.86, 0.122779
5052.78, 0.122644
5057.71, 0.122510
5062.65, 0.122421
5067.6, 0.122376
5072.56, 0.122286
5077.53, 0.122108
5082.5, 0.121973
5087.49, 0.122018
5092.49, 0.121973
5097.5, 0.121884
5102.51, 0.121750
5107.54, 0.121750
5112.58, 0.121660
5117.62, 0.121526
5122.68, 0.121392
5127.75, 0.121302
5132.82, 0.121213
5137.91, 0.121034
5143.01, 0.120720
5148.12, 0.120586
5153.23, 0.120855
5158.36, 0.120855
5163.5, 0.120765
5168.65, 0.120676
5173.81, 0.120631
5178.98, 0.120541
5184.15, 0.120497
5189.34, 0.120452
5194.54, 0.120228
5199.75, 0.120049
5204.98, 0.120094
5210.21, 0.119691
5215.45, 0.119647
5220.7, 0.120005
5225.96, 0.120049
5231.23, 0.119870
5236.52, 0.119647
5241.81, 0.119736
5247.12, 0.119826
5252.44, 0.119736
5257.76, 0.119647
5263.1, 0.119557
5268.45, 0.119378
5273.81, 0.119244
5279.18, 0.119244
5284.56, 0.119154
5289.95, 0.118707
5295.36, 0.118796
5300.77, 0.119020
5306.2, 0.119020
5311.63, 0.118975
5317.08, 0.118886
5322.54, 0.118796
5328.01, 0.118707
5333.49, 0.118617
5338.98, 0.118528
5344.49, 0.117946
5350.0, 0.117365
5355.53, 0.117678
5361.07, 0.118081
5366.62, 0.118215
5372.18, 0.118170
5377.75, 0.118125
5383.34, 0.118081
5388.93, 0.118036
5394.54, 0.117946
5400.16, 0.117946
5405.79, 0.117767
5411.44, 0.117588
5417.09, 0.116693
5422.76, 0.116112
5428.43, 0.117141
5434.12, 0.117588
5439.83, 0.117409
5445.54, 0.117275
5451.26, 0.117186
5457.0, 0.116693
5462.75, 0.116022
5468.52, 0.116201
5474.29, 0.116201
5480.08, 0.115978
5485.88, 0.116425
5491.69, 0.116470
5497.51, 0.116380
5503.35, 0.116246
5509.2, 0.116380
5515.06, 0.116291
5520.93, 0.116067
5526.82, 0.116112
5532.71, 0.116380
5538.63, 0.116380
5544.55, 0.116112
5550.49, 0.115620
5556.44, 0.115709
5562.4, 0.116022
5568.37, 0.115933
5574.36, 0.114814
5580.36, 0.114501
5586.37, 0.115530
5592.4, 0.115978
5598.44, 0.115664
5604.49, 0.115575
5610.56, 0.115575
5616.63, 0.115485
5622.73, 0.115664
5628.83, 0.115530
5634.95, 0.114411
5641.08, 0.113114
5647.23, 0.113964
5653.39, 0.114456
5659.56, 0.114904
5665.74, 0.115306
5671.94, 0.114367
5678.15, 0.114277
5684.38, 0.114769
5690.62, 0.114501
5696.87, 0.114814
5703.14, 0.114367
5709.42, 0.113159
5715.72, 0.113472
5722.03, 0.114143
5728.35, 0.114501
5734.69, 0.114277
5741.03, 0.113785
5747.4, 0.113203
5753.78, 0.113875
5760.17, 0.112130
5766.58, 0.110295
5773.0, 0.112309
5779.44, 0.113606
5785.88, 0.113875
5792.35, 0.113964
5798.83, 0.113696
5805.32, 0.113651
5811.83, 0.112666
5818.35, 0.110161
5824.89, 0.109937
5831.45, 0.111548
5838.01, 0.112532
5844.59, 0.112845
5851.19, 0.112353
5857.8, 0.111593
5864.43, 0.111100
5871.07, 0.110787
5877.73, 0.107700
5884.4, 0.107968
5891.09, 0.108595
5897.79, 0.108192
5904.5, 0.110653
5911.23, 0.111145
5917.98, 0.110742
5924.75, 0.110071
5931.53, 0.107163
5938.32, 0.106268
5945.13, 0.108953
5951.96, 0.109848
5958.8, 0.109713
5965.65, 0.108103
5972.53, 0.108147
5979.42, 0.108595
5986.32, 0.107521
5993.24, 0.107834
6000.18, 0.108953
6007.13, 0.108371
6014.1, 0.107566
6021.08, 0.108058
6028.09, 0.108371
6035.1, 0.107655
6042.14, 0.103897
6049.19, 0.101033
6056.25, 0.104791
6063.34, 0.106223
6070.44, 0.104612
6077.55, 0.105149
6084.69, 0.106760
6091.84, 0.106939
6099.0, 0.106536
6106.19, 0.104747
6113.39, 0.103270
6120.61, 0.105239
6127.84, 0.106626
6135.09, 0.106313
6142.36, 0.105955
6149.65, 0.105821
6156.95, 0.105239
6164.27, 0.105642
6171.61, 0.106357
6178.97, 0.104836
6186.34, 0.104120
6193.73, 0.106134
6201.14, 0.106939
6208.57, 0.106805
6216.01, 0.106760
6223.47, 0.106939
6230.95, 0.106984
6238.45, 0.107073
6245.97, 0.107118
6253.5, 0.107163
6261.06, 0.107029
6268.63, 0.106939
6276.21, 0.106939
6283.82, 0.106894
6291.45, 0.106760
6299.1, 0.106671
6306.76, 0.106581
6314.44, 0.106447
6322.14, 0.106223
6329.86, 0.105865
6337.6, 0.103852
6345.35, 0.102733
6353.13, 0.104612
6360.92, 0.104612
6368.74, 0.103360
6376.57, 0.103718
6384.43, 0.103986
6392.3, 0.103673
6400.19, 0.102375
6408.1, 0.0983030
6416.03, 0.0970510
6423.98, 0.0997800
6431.95, 0.100675
6439.94, 0.101301
6447.95, 0.101346
6455.98, 0.101078
6464.03, 0.100496
6472.1, 0.0991980
6480.19, 0.0976770
6488.31, 0.0954400
6496.44, 0.0953950
6504.59, 0.0981690
6512.76, 0.0984380
6520.95, 0.0975430
6529.16, 0.0983480
6537.4, 0.0983480
6545.65, 0.0975880
6553.92, 0.0969160
6562.22, 0.0962450
6570.54, 0.0948130
6578.88, 0.0957080
6587.23, 0.0965140
6595.61, 0.0968720
6604.02, 0.0974980
6612.44, 0.0973640
6620.89, 0.0970060
6629.35, 0.0949480
6637.84, 0.0937840
6646.35, 0.0964690
6654.88, 0.0983930
6663.44, 0.0981690
6672.01, 0.0974090
6680.61, 0.0969610
6689.23, 0.0981250
6697.88, 0.0988400
6706.54, 0.0980800
6715.23, 0.0980350
6723.94, 0.0986610
6732.67, 0.0994220
6741.42, 0.0996910
6750.2, 0.0996910
6759.0, 0.0999140
6767.82, 0.0996010
6776.67, 0.0989750
6785.54, 0.0980350
6794.44, 0.0986170
6803.35, 0.100362
6812.29, 0.100675
6821.26, 0.0999140
6830.24, 0.100093
6839.25, 0.100988
6848.29, 0.100272
6857.35, 0.0979460
6866.43, 0.0978560
6875.54, 0.100496
6884.67, 0.101346
6893.82, 0.101480
6903.0, 0.101122
6912.2, 0.101436
6921.43, 0.101794
6930.69, 0.101883
6939.96, 0.101794
6949.27, 0.101033
6958.59, 0.0996910
6967.95, 0.100809
6977.33, 0.101704
6986.73, 0.101436
6996.16, 0.101346
7005.61, 0.101659
7015.09, 0.101480
7024.6, 0.101346
7034.13, 0.100809
7043.69, 0.0995560
7053.27, 0.100183
7062.88, 0.101212
7072.52, 0.101391
7082.18, 0.101346
7091.87, 0.101301
7101.58, 0.101346
7111.32, 0.101033
7121.09, 0.100988
7130.88, 0.101167
7140.71, 0.100675
7150.56, 0.100496
7160.43, 0.100406
7170.33, 0.100093
7180.27, 0.100720
7190.23, 0.100943
7200.21, 0.100362
7210.23, 0.100138
7220.27, 0.100630
7230.34, 0.100630
7240.44, 0.100675
7250.56, 0.100496
7260.72, 0.100272
7270.9, 0.0998250
7281.12, 0.0998250
7291.36, 0.100049
7301.63, 0.100049
7311.93, 0.0999590
7322.25, 0.0998250
7332.61, 0.0992430
7343.0, 0.0991090
7353.41, 0.0993770
7363.86, 0.0994670
7374.33, 0.0993330
7384.83, 0.0992430
7395.37, 0.0991980
7405.93, 0.0991090
7416.53, 0.0990190
7427.15, 0.0988850
7437.81, 0.0987960
7448.5, 0.0986610
7459.22, 0.0983030
7469.96, 0.0982140
7480.74, 0.0982590
7491.55, 0.0983030
7502.39, 0.0982590
7513.27, 0.0981250
7524.17, 0.0980350
7535.11, 0.0979900
7546.08, 0.0978560
7557.08, 0.0976770
7568.11, 0.0974980
7579.17, 0.0972740
7590.27, 0.0971400
7601.4, 0.0970510
7612.56, 0.0969610
7623.76, 0.0969610
7634.98, 0.0968270
7646.24, 0.0966480
7657.54, 0.0965140
7668.87, 0.0964240
7680.23, 0.0962010
7691.62, 0.0960220
7703.05, 0.0958870
7714.51, 0.0957980
7726.01, 0.0956190
7737.54, 0.0953950
7749.11, 0.0952160
7760.71, 0.0950370
7772.35, 0.0948580
7784.02, 0.0946790
7795.72, 0.0944550
7807.46, 0.0943210
7819.23, 0.0941870
7831.04, 0.0940980
7842.89, 0.0939630
7854.77, 0.0938290
7866.69, 0.0936500
7878.65, 0.0935610
7890.64, 0.0935160
7902.67, 0.0935160
7914.74, 0.0934710
7926.84, 0.0933820
7938.98, 0.0932470
7951.16, 0.0932470
7963.37, 0.0932030
7975.62, 0.0931130
7987.91, 0.0930240
8000.24, 0.0929340
8012.6, 0.0928450
8025.01, 0.0927550
8037.45, 0.0927100
8049.93, 0.0926660
8062.45, 0.0924870
8075.01, 0.0923080
8087.61, 0.0921740
8100.24, 0.0920390
8112.91, 0.0919050
8125.63, 0.0918160
8138.39, 0.0915470
8151.18, 0.0913680
8164.02, 0.0911440
8176.9, 0.0908310
8189.81, 0.0905180
8202.77, 0.0902050
8215.77, 0.0899360
8228.82, 0.0895340
8241.9, 0.0889520
8255.02, 0.0885040
8268.19, 0.0881470
8281.39, 0.0878330
8294.65, 0.0873860
8307.94, 0.0869830
8321.28, 0.0865360
8334.66, 0.0861330
8348.08, 0.0857300
8361.54, 0.0852830
8375.05, 0.0848800
8388.6, 0.0845670
8402.2, 0.0842090
8415.84, 0.0839410
8429.52, 0.0835380
8443.25, 0.0831800
8457.02, 0.0828220
8470.84, 0.0825090
8484.7, 0.0821510
8498.61, 0.0818380
8512.57, 0.0814800
8526.57, 0.0811220
8540.62, 0.0807190
8554.71, 0.0803610
8568.85, 0.0799140
8583.04, 0.0794210
8597.27, 0.0790630
8611.55, 0.0787950
8625.88, 0.0785710
8640.26, 0.0785260
8654.68, 0.0784370
8669.16, 0.0781690
8683.68, 0.0777660
8698.25, 0.0775420
8712.87, 0.0773630
8727.53, 0.0771390
8742.25, 0.0768710
8757.02, 0.0766020
8771.83, 0.0762000
8786.7, 0.0758870
8801.62, 0.0755290
8816.59, 0.0751260
8831.61, 0.0744990
8846.68, 0.0740070
8861.8, 0.0734700
8876.97, 0.0727100
8892.2, 0.0716810
8907.48, 0.0705170
8922.81, 0.0689960
8938.2, 0.0672510
8953.63, 0.0653270
8969.13, 0.0635370
8984.67, 0.0623290
9000.27, 0.0618820
9015.92, 0.0619260
9031.63, 0.0623290
9047.39, 0.0630900
9063.21, 0.0638500
9079.08, 0.0644770
9095.01, 0.0651480
9111.0, 0.0656850
9127.04, 0.0659980
9143.13, 0.0660880
9159.28, 0.0661320
9175.49, 0.0662220
9191.76, 0.0663560
9208.09, 0.0664900
9224.47, 0.0666240
9240.92, 0.0668930
9257.42, 0.0672510
9273.98, 0.0672060
9290.6, 0.0672060
9307.28, 0.0672510
9324.02, 0.0671170
9340.82, 0.0667590
9357.68, 0.0665800
9374.6, 0.0664450
9391.58, 0.0659980
9408.62, 0.0655060
9425.73, 0.0651930
9442.9, 0.0648790
9460.13, 0.0645210
9477.42, 0.0641630
9494.78, 0.0639850
9512.2, 0.0637160
9529.69, 0.0632690
9547.24, 0.0628210
9564.86, 0.0623290
9582.54, 0.0619710
9600.28, 0.0616580
9618.1, 0.0611210
9635.97, 0.0604500
9653.92, 0.0597340
9671.93, 0.0589280
9690.01, 0.0580780
9708.16, 0.0570940
9726.37, 0.0560200
9744.65, 0.0551250
9763.0, 0.0544540
9781.43, 0.0539620
9799.92, 0.0535140
9818.48, 0.0531560
9837.1, 0.0528880
9855.8, 0.0526640
9874.58, 0.0525750
9893.42, 0.0525300
9912.34, 0.0524400
9931.33, 0.0521720
9950.39, 0.0515900
9969.52, 0.0511430
9988.74, 0.0506060
10008.0, 0.0501140
10027.4, 0.0494870
10046.8, 0.0489060
10066.3, 0.0483240
10085.9, 0.0478320
10105.6, 0.0474290
10125.3, 0.0472050
10145.1, 0.0467580
10165.0, 0.0463100
10185.0, 0.0460420
10205.0, 0.0458630
10225.2, 0.0455500
10245.4, 0.0452370
10265.7, 0.0449680
10286.0, 0.0447440
10306.5, 0.0445210
10327.0, 0.0442070
10347.6, 0.0439390
10368.3, 0.0437600
10389.1, 0.0435810
10409.9, 0.0434020
10430.9, 0.0433130
10451.9, 0.0430890
10473.0, 0.0428200
10494.2, 0.0426860
10515.5, 0.0425520
10536.9, 0.0423280
10558.4, 0.0421490
10579.9, 0.0421040
10601.5, 0.0419700
10623.3, 0.0418360
10645.1, 0.0415680
10667.0, 0.0412540
10689.0, 0.0409860
10711.1, 0.0407170
10733.2, 0.0403590
10755.5, 0.0400460
10777.9, 0.0397330
10800.3, 0.0395540
10822.9, 0.0395090
10845.5, 0.0393750
10868.2, 0.0392860
10891.1, 0.0392860
10914.0, 0.0391070
10937.0, 0.0391960
10960.2, 0.0394200
10983.4, 0.0394200
11006.7, 0.0391960
11030.1, 0.0389720
11053.6, 0.0388380
11077.3, 0.0387930
11101.0, 0.0387040
11124.8, 0.0383910
11148.7, 0.0380780
11172.7, 0.0378990
11196.9, 0.0377200
11221.1, 0.0373620
11245.4, 0.0370480
11269.9, 0.0368250
11294.4, 0.0366460
11319.1, 0.0362430
11343.9, 0.0357510
11368.8, 0.0354380
11393.7, 0.0353480
11418.8, 0.0351690
11444.0, 0.0349010
11469.4, 0.0346770
11494.8, 0.0344530
11520.3, 0.0341850
11546.0, 0.0336480
11571.8, 0.0332450
11597.7, 0.0330210
11623.7, 0.0327980
11649.8, 0.0324840
11676.0, 0.0322610
11702.4, 0.0320370
11728.9, 0.0317690
11755.5, 0.0313660
11782.2, 0.0309630
11809.0, 0.0305160
11836.0, 0.0300680
11863.0, 0.0297550
11890.3, 0.0295310
11917.6, 0.0292630
11945.0, 0.0289050
11972.6, 0.0284570
12000.4, 0.0281440
12028.2, 0.0277420
12056.2, 0.0274730
12084.3, 0.0272490
12112.5, 0.0267570
12140.9, 0.0263990
12169.4, 0.0261750
12198.0, 0.0257280
12226.8, 0.0253250
12255.7, 0.0251460
12284.7, 0.0250570
12313.9, 0.0248330
12343.2, 0.0244750
12372.7, 0.0240280
12402.3, 0.0237590
12432.0, 0.0235800
12461.9, 0.0234010
12491.9, 0.0229090
12522.1, 0.0225060
12552.4, 0.0223720
12582.9, 0.0221480
12613.5, 0.0218350
12644.3, 0.0215670
12675.2, 0.0213430
12706.3, 0.0211640
12737.5, 0.0210300
12768.9, 0.0208060
12800.4, 0.0204930
12832.1, 0.0201350
12863.9, 0.0197770
12895.9, 0.0196430
12928.1, 0.0193740
12960.4, 0.0189720
12992.9, 0.0185240
13025.5, 0.0180320
13058.3, 0.0176740
13091.3, 0.0173610
13124.4, 0.0170030
13157.8, 0.0166000
13191.2, 0.0161530
13224.9, 0.0158840
13258.7, 0.0156610
13292.7, 0.0152130
13326.9, 0.0147660
13361.2, 0.0144970
13395.7, 0.0143180
13430.4, 0.0141390
13465.3, 0.0137370
13500.4, 0.0132440
13535.7, 0.0128420
13571.1, 0.0127070
13606.7, 0.0124390
13642.5, 0.0119020
13678.5, 0.0113650
13714.7, 0.0109620
13751.1, 0.0106490
13787.6, 0.0104700
13824.4, 0.0102460
13861.4, 0.00997800
13898.5, 0.00957500
13935.9, 0.00921700
13973.5, 0.00908300
14011.2, 0.00881500
14049.2, 0.00859100
14087.4, 0.00859100
14125.8, 0.00841200
14164.3, 0.00827800
14203.2, 0.00796500
14242.2, 0.00778600
14281.4, 0.00778600
14320.9, 0.00783000
14360.5, 0.00769600
14400.4, 0.00792000
14440.5, 0.00809900
14480.9, 0.00818800
14521.4, 0.00845700
14562.2, 0.00890400
14603.3, 0.00939600
14644.5, 0.0100670
14686.0, 0.0108730
14727.7, 0.0116340
14769.7, 0.0127520
14811.9, 0.0141390
14854.3, 0.0156160
14897.0, 0.0176290
14939.9, 0.0200460
14983.1, 0.0226410
15026.5, 0.0255490
15070.2, 0.0289050
15114.2, 0.0323500
15158.3, 0.0360640
15202.8, 0.0400910
15247.5, 0.0438050
15292.5, 0.0471160
15337.7, 0.0500690
15383.2, 0.0528430
15429.0, 0.0550800
15475.1, 0.0570040
15521.4, 0.0589280
15568.0, 0.0605390
15614.9, 0.0623740
15662.1, 0.0643870
15709.6, 0.0660880
15757.3, 0.0676090
15805.4, 0.0693090
15853.7, 0.0709650
15902.3, 0.0724860
15951.2, 0.0739180
16000.5, 0.0753500
16050.0, 0.0770500
16099.8, 0.0787950
16150.0, 0.0804060
16200.5, 0.0817930
16251.3, 0.0830900
16302.4, 0.0843880
16353.8, 0.0855510
16405.5, 0.0862220
16457.6, 0.0866250
16510.0, 0.0873860
16562.8, 0.0882810
16615.9, 0.0888180
16669.3, 0.0890410
16723.1, 0.0893990
16777.2, 0.0893990
16831.7, 0.0897570
16886.5, 0.0904730
16941.7, 0.0904730
16997.2, 0.0905630
17053.1, 0.0910100
17109.4, 0.0915920
17166.1, 0.0920390
17223.1, 0.0926210
17280.5, 0.0932030
17338.3, 0.0936950
17396.5, 0.0939630
17455.1, 0.0941870
17514.0, 0.0939630
17573.4, 0.0934710
17633.2, 0.0932920
17693.4, 0.0934260
17754.0, 0.0935610
17815.0, 0.0934710
17876.4, 0.0932920
17938.3, 0.0928450
18000.5, 0.0924870
18063.3, 0.0923080
18126.4, 0.0918600
18190.0, 0.0916810
18254.1, 0.0911890
18318.6, 0.0903840
18383.5, 0.0898020
18449.0, 0.0893100
18514.9, 0.0889070
18581.2, 0.0881020
18648.0, 0.0870280
18715.4, 0.0859990
18783.2, 0.0847010
18851.5, 0.0830900
18920.3, 0.0817030
18989.6, 0.0798240
19059.4, 0.0782580
19129.7, 0.0766020
19200.6, 0.0743650
19272.0, 0.0719040
19343.9, 0.0690410
19416.3, 0.0658640
19489.3, 0.0627760
19562.8, 0.0597340
19637.0, 0.0566460
19711.6, 0.0533350
19786.8, 0.0508740
19862.6, 0.0489060
19939.0, 0.0470710
20016.0, 0.0460420
20093.6, 0.0468920
20171.8, 0.0493530
20250.6, 0.0541850
20330.0, 0.0600470
20410.0, 0.0653270
20490.7, 0.0707410
20572.0, 0.0758420
20654.0, 0.0794210
20736.6, 0.0817480
20819.9, 0.0836270
20903.8, 0.0855960
20988.5, 0.0864910
21073.8, 0.0867150
21159.8, 0.0872070
21246.5, 0.0878780
21334.0, 0.0882360
21422.1, 0.0885940
21511.0, 0.0885940
21600.7, 0.0874500
21691.0, 0.0866310
21782.1, 0.0866100
21874.0, 0.0869770
21966.7, 0.0872410
22060.2, 0.0875550
22154.5, 0.0881380
22249.6, 0.0887670
22345.5, 0.0891790
22442.2, 0.0894600
22539.8, 0.0897730
22638.2, 0.0902110
22737.5, 0.0907870
22837.7, 0.0912790
22938.7, 0.0913950
23040.7, 0.0908740
23143.5, 0.0895160
23247.3, 0.0873820
23352.1, 0.0846540
23457.7, 0.0817230
23564.4, 0.0789700
23672.0, 0.0764980
23780.5, 0.0742620
23890.1, 0.0719080
24000.7, 0.0691110
24112.3, 0.0660470
24225.0, 0.0630160
24338.7, 0.0602460
24453.5, 0.0578730
24569.4, 0.0556850
24686.4, 0.0535050
24804.5, 0.0517010
24923.8, 0.0507000
25044.2, 0.0505180
25165.8, 0.0509580
25288.6, 0.0513840
25412.5, 0.0512160
25537.7, 0.0506620
25664.1, 0.0500650
25791.8, 0.0494210
25920.8, 0.0486230
26051.1, 0.0475160
26182.6, 0.0459860
26315.5, 0.0441670
26449.8, 0.0422150
26585.4, 0.0400970
26722.5, 0.0378530
26860.9, 0.0360550
27000.8, 0.0354500
27142.1, 0.0368640
27285.0, 0.0408480
27429.4, 0.0466490
27575.3, 0.0531980
27722.7, 0.0596970
27871.8, 0.0655080
28022.4, 0.0704930
28174.7, 0.0746660
28328.7, 0.0781430
28484.4, 0.0810070
28641.7, 0.0830510
28800.9, 0.0841540
28961.8, 0.0848700
29124.5, 0.0858320
29289.0, 0.0871510
29455.4, 0.0887550
29623.8, 0.0903840
29794.0, 0.0918020
29966.3, 0.0931270
30140.5, 0.0945170
30316.7, 0.0958980
30495.1, 0.0971700
30675.5, 0.0984090
30858.1, 0.0997290
31042.8, 0.101181
31229.8, 0.102850
31419.1, 0.105020
31610.7, 0.107883
31804.6, 0.111024
32000.9, 0.113936
32199.7, 0.116480
32400.9, 0.118681
32604.8, 0.120868
32811.1, 0.123367
33020.1, 0.126122
33231.8, 0.128912
33446.2, 0.131261
33663.4, 0.132595
33883.4, 0.132299
34106.3, 0.129877
34332.1, 0.125485
34561.0, 0.119638
34792.9, 0.113593
35028.0, 0.108615
35266.3, 0.104933
35507.8, 0.102413
35752.7, 0.100545
36001.0, 0.0988680
36252.8, 0.0976290
36508.1, 0.0970950
36767.0, 0.0967640
37029.7, 0.0960650
37296.1, 0.0950890
37566.3, 0.0941230
37840.5, 0.0935010
38118.8, 0.0934550
38401.2, 0.0936750
38687.8, 0.0937320
38978.6, 0.0933860
39273.9, 0.0925690
39573.7, 0.0917690
39878.1, 0.0914710
40187.3, 0.0914230
40501.2, 0.0912080
40820.0, 0.0906150
41144.0, 0.0894920
41473.2, 0.0877570
41807.6, 0.0855160
42147.5, 0.0836000
42493.0, 0.0829140
42844.2, 0.0836570
43201.2, 0.0857030
43564.3, 0.0883340
43933.5, 0.0907660
44309.0, 0.0927800
44691.0, 0.0942910
45079.6, 0.0951760
45475.0, 0.0953350
45877.5, 0.0948290
46287.1, 0.0938460
46704.2, 0.0928950
47128.7, 0.0924010
47561.1, 0.0919420
48001.5, 0.0910720
48450.1, 0.0903260
48907.2, 0.0902300
49373.0, 0.0899790
49847.7, 0.0887350
50331.5, 0.0872660
50825.0, 0.0865680
51328.2, 0.0864870
51841.5, 0.0865700
52365.1, 0.0865160
52899.4, 0.0862830
53444.8, 0.0868620
54001.5, 0.0890620
54570.1, 0.0914520
55150.6, 0.0922960
55743.6, 0.0916540
56349.5, 0.0901550
56968.7, 0.0886520
57601.7, 0.0879130
58248.9, 0.0878430
58910.9, 0.0881440
59588.1, 0.0887380
60281.0, 0.0895540
60990.2, 0.0902970
61716.3, 0.0906930
62459.8, 0.0909320
63221.6, 0.0912010
64002.1, 0.0910480
64802.1, 0.0900900
65622.1, 0.0891710
66463.4, 0.0892840
67326.6, 0.0902680
68212.4, 0.0917250
69121.9, 0.0937610
70056.0, 0.0963590
71015.7, 0.0983220
72002.0, 0.0984520
73016.3, 0.0974850
74059.4, 0.0964770
75132.7, 0.0950890
76237.6, 0.0927890
77375.5, 0.0900950
78547.9, 0.0879120
79756.3, 0.0872370
81002.5, 0.0888290
82288.5, 0.0918850
83615.7, 0.0950930
84986.5, 0.0973120
86402.9, 0.0977770
87867.4, 0.0976010
89382.4, 0.0983680
90950.5, 0.100690
92574.6, 0.104655
94257.2, 0.109091
96002.7, 0.112439
97814.1, 0.113709
99695.1, 0.112341
101650.0, 0.109378
103683.0, 0.106246
105799.0, 0.103230
108003.0, 0.100468
110301.0, 0.0989000
112699.0, 0.0995310
115204.0, 0.102018
117822.0, 0.105731
120562.0, 0.110997
123433.0, 0.118161
126443.0, 0.126066
129604.0, 0.132844
132926.0, 0.136456
136424.0, 0.135864
140111.0, 0.136254
144003.0, 0.143891
148118.0, 0.156201
152474.0, 0.167559
157095.0, 0.174734
162004.0, 0.175647
167231.0, 0.172223
172805.0, 0.172223
178764.0, 0.172223
185148.0, 0.172223
192005.0, 0.172223
199390.0, 0.172223
207366.0, 0.172223
216006.0, 0.172223
