Database of Origin,USGS Spectral Database
Sample Description,See USGS database for additional info
Date Added,2017-07-03 05:43:31.776226

Data ID,USGS_alu19          
Sample ID,alunite_res2.1468
Mineral Name,alunite
Material Class,Sulfate

Wavelength
1299.94, 0.497000
1300.26, 0.493010
1300.59, 0.492380
1300.92, 0.494130
1301.24, 0.496510
1301.57, 0.496160
1301.9, 0.502530
1302.22, 0.498260
1302.55, 0.501620
1302.88, 0.500430
1303.21, 0.497140
1303.53, 0.494060
1303.86, 0.498680
1304.19, 0.500010
1304.52, 0.497560
1304.85, 0.495880
1305.17, 0.501270
1305.5, 0.497910
1305.83, 0.499100
1306.16, 0.497840
1306.49, 0.501200
1306.82, 0.499240
1307.15, 0.503790
1307.48, 0.498470
1307.81, 0.494970
1308.14, 0.491540
1308.47, 0.494690
1308.8, 0.492240
1309.13, 0.496930
1309.46, 0.497140
1309.79, 0.501550
1310.12, 0.499660
1310.45, 0.497700
1310.79, 0.494550
1311.12, 0.503930
1311.45, 0.505050
1311.78, 0.500360
1312.11, 0.496860
1312.44, 0.499030
1312.78, 0.498890
1313.11, 0.501550
1313.44, 0.500920
1313.77, 0.501620
1314.11, 0.496090
1314.44, 0.498470
1314.77, 0.500780
1315.11, 0.505120
1315.44, 0.501480
1315.78, 0.502670
1316.11, 0.502950
1316.44, 0.508270
1316.78, 0.506660
1317.11, 0.507780
1317.45, 0.502110
1317.78, 0.505540
1318.12, 0.505330
1318.45, 0.510580
1318.79, 0.508410
1319.12, 0.503860
1319.46, 0.497560
1319.8, 0.508760
1320.13, 0.499800
1320.47, 0.492030
1320.8, 0.491120
1321.14, 0.501410
1321.48, 0.501340
1321.81, 0.504630
1322.15, 0.501060
1322.49, 0.495670
1322.83, 0.493010
1323.16, 0.506590
1323.5, 0.511350
1323.84, 0.509320
1324.18, 0.507500
1324.52, 0.503790
1324.85, 0.501970
1325.19, 0.517510
1325.53, 0.517020
1325.87, 0.509460
1326.21, 0.501550
1326.55, 0.519260
1326.89, 0.516390
1327.23, 0.493570
1331.66, 0.513380
1332.0, 0.518980
1332.34, 0.494620
1332.69, 0.503020
1333.03, 0.510370
1333.37, 0.499030
1333.72, 0.507920
1334.06, 0.517510
1334.4, 0.511350
1334.75, 0.505540
1335.09, 0.503860
1335.43, 0.506590
1335.78, 0.508620
1336.12, 0.511490
1336.47, 0.507150
1336.81, 0.506940
1337.16, 0.502180
1337.5, 0.508970
1337.85, 0.520730
1338.19, 0.516110
1338.54, 0.503790
1338.88, 0.504490
1339.23, 0.504560
1339.58, 0.509040
1339.92, 0.510230
1340.27, 0.510020
1340.61, 0.507570
1340.96, 0.509320
1341.31, 0.504770
1341.66, 0.504070
1342.0, 0.506450
1342.35, 0.510720
1342.7, 0.514430
1343.05, 0.515410
1343.39, 0.509460
1343.74, 0.509460
1344.09, 0.509460
1344.44, 0.509250
1344.79, 0.511910
1345.14, 0.517790
1345.48, 0.514430
1345.83, 0.514710
1346.18, 0.512890
1346.53, 0.514360
1346.88, 0.514010
1347.23, 0.514780
1347.58, 0.510300
1347.93, 0.512260
1348.28, 0.514010
1348.64, 0.514360
1348.99, 0.511840
1349.34, 0.509110
1349.69, 0.507850
1350.04, 0.511350
1350.39, 0.510160
1350.74, 0.512960
1351.1, 0.509810
1351.45, 0.510650
1351.8, 0.512120
1352.15, 0.517300
1352.51, 0.517650
1352.86, 0.515620
1353.21, 0.514010
1353.56, 0.515130
1353.92, 0.514290
1354.27, 0.516460
1354.63, 0.513730
1354.98, 0.514990
1355.33, 0.513520
1355.69, 0.516530
1356.04, 0.517510
1356.4, 0.516740
1356.75, 0.514500
1357.11, 0.515130
1357.46, 0.514290
1357.82, 0.515970
1358.18, 0.514570
1358.53, 0.516180
1358.89, 0.515200
1359.24, 0.515200
1359.6, 0.515200
1359.96, 0.517650
1360.31, 0.518700
1360.67, 0.522550
1361.03, 0.519750
1361.39, 0.520170
1361.74, 0.518210
1362.1, 0.518070
1362.46, 0.515480
1362.82, 0.518070
1363.18, 0.513030
1363.53, 0.512470
1363.89, 0.512120
1364.25, 0.513730
1364.61, 0.512400
1364.97, 0.515410
1365.33, 0.516670
1365.69, 0.514780
1366.05, 0.516250
1366.41, 0.523740
1366.77, 0.521640
1367.13, 0.521920
1367.49, 0.519610
1367.85, 0.519890
1368.21, 0.518980
1368.57, 0.522200
1368.93, 0.522690
1369.3, 0.527100
1369.66, 0.524230
1370.02, 0.522060
1370.38, 0.522200
1370.74, 0.521990
1371.11, 0.521080
1371.47, 0.521990
1371.83, 0.521150
1372.19, 0.525000
1372.56, 0.522970
1372.92, 0.522270
1373.29, 0.519470
1373.65, 0.520520
1374.01, 0.518140
1374.38, 0.519260
1374.74, 0.518630
1375.11, 0.520450
1375.47, 0.521640
1375.84, 0.524160
1376.2, 0.524300
1376.57, 0.525630
1376.93, 0.521710
1377.3, 0.522200
1377.67, 0.521290
1378.03, 0.519330
1378.4, 0.521500
1378.76, 0.521920
1379.13, 0.517370
1379.5, 0.519400
1379.87, 0.519260
1380.23, 0.519330
1380.6, 0.518420
1380.97, 0.521010
1381.34, 0.520310
1381.7, 0.522620
1382.07, 0.518560
1382.44, 0.515620
1382.81, 0.515760
1383.18, 0.517650
1383.55, 0.515760
1383.92, 0.518560
1384.29, 0.519260
1384.66, 0.521360
1385.03, 0.519680
1385.4, 0.519190
1385.77, 0.517580
1386.14, 0.519400
1386.51, 0.518980
1386.88, 0.516810
1387.25, 0.514500
1387.62, 0.518770
1387.99, 0.518980
1388.36, 0.515900
1388.74, 0.511980
1389.11, 0.515760
1389.48, 0.516670
1389.85, 0.517580
1390.23, 0.518140
1390.6, 0.519820
1390.97, 0.516040
1391.35, 0.517230
1391.72, 0.514850
1392.09, 0.514710
1392.47, 0.514570
1392.84, 0.517090
1393.21, 0.517720
1393.59, 0.519470
1393.96, 0.519400
1394.34, 0.518840
1394.71, 0.514290
1395.09, 0.517300
1395.46, 0.517860
1395.84, 0.518490
1396.22, 0.516670
1396.59, 0.516040
1396.97, 0.515060
1397.35, 0.515970
1397.72, 0.512960
1398.1, 0.512820
1398.48, 0.512680
1398.85, 0.514850
1399.23, 0.513520
1399.61, 0.515480
1399.99, 0.515270
1400.37, 0.515480
1400.74, 0.512610
1401.12, 0.510300
1401.5, 0.508760
1401.88, 0.509670
1402.26, 0.508480
1402.64, 0.510090
1403.02, 0.511000
1403.4, 0.511350
1403.78, 0.509460
1404.16, 0.511140
1404.54, 0.510230
1404.92, 0.511000
1405.3, 0.510090
1405.68, 0.512400
1406.06, 0.511840
1406.44, 0.512540
1406.83, 0.511910
1407.21, 0.508410
1407.59, 0.504770
1407.97, 0.509110
1408.35, 0.507220
1408.74, 0.508550
1409.12, 0.507990
1409.5, 0.508060
1409.89, 0.504560
1410.27, 0.504770
1410.65, 0.503650
1411.04, 0.505330
1411.42, 0.505890
1411.81, 0.504630
1412.19, 0.502950
1412.58, 0.505750
1412.96, 0.502460
1413.35, 0.502040
1413.73, 0.503790
1414.12, 0.504560
1414.5, 0.498610
1414.89, 0.498470
1415.28, 0.500010
1415.66, 0.501900
1416.05, 0.502110
1416.44, 0.502740
1416.82, 0.501480
1417.21, 0.502250
1417.6, 0.501060
1417.98, 0.502110
1418.37, 0.498890
1418.76, 0.498540
1419.15, 0.496930
1419.54, 0.495040
1419.93, 0.494690
1420.32, 0.494550
1420.71, 0.490700
1421.09, 0.487270
1421.48, 0.484050
1421.88, 0.483210
1422.27, 0.475090
1422.66, 0.470260
1423.05, 0.462980
1423.44, 0.458360
1423.83, 0.451430
1424.22, 0.445200
1424.61, 0.438970
1425.0, 0.430010
1425.39, 0.418810
1425.78, 0.415590
1426.18, 0.421960
1426.57, 0.435960
1426.96, 0.446530
1427.36, 0.453250
1427.75, 0.456960
1428.14, 0.460180
1428.54, 0.458290
1428.93, 0.459480
1429.32, 0.461930
1429.72, 0.465010
1430.11, 0.462840
1430.51, 0.461860
1430.9, 0.458640
1431.3, 0.453530
1431.69, 0.450730
1432.09, 0.455420
1432.48, 0.462700
1432.88, 0.469210
1433.28, 0.472500
1433.67, 0.476980
1434.07, 0.478310
1434.46, 0.482160
1434.86, 0.483070
1435.26, 0.485240
1435.66, 0.485800
1436.05, 0.491540
1436.45, 0.493010
1436.85, 0.496160
1437.25, 0.498120
1437.65, 0.498330
1438.05, 0.496300
1438.44, 0.495320
1438.84, 0.494620
1439.24, 0.495880
1439.64, 0.496580
1440.04, 0.499240
1440.44, 0.498190
1440.84, 0.498260
1441.24, 0.495320
1441.65, 0.496580
1442.05, 0.498330
1442.45, 0.499870
1442.85, 0.496020
1443.25, 0.492310
1443.65, 0.491820
1444.05, 0.494130
1444.46, 0.493150
1444.86, 0.494340
1445.26, 0.493570
1445.67, 0.494060
1446.07, 0.495390
1446.47, 0.497000
1446.88, 0.495670
1447.28, 0.496510
1447.68, 0.495810
1448.09, 0.495530
1448.49, 0.493290
1448.9, 0.492800
1449.3, 0.491050
1449.71, 0.490700
1450.11, 0.490700
1450.52, 0.491190
1450.93, 0.488670
1451.33, 0.488040
1451.74, 0.489090
1452.14, 0.488740
1452.55, 0.485800
1452.96, 0.480970
1453.36, 0.481040
1453.77, 0.485450
1454.18, 0.484540
1454.59, 0.482580
1455.0, 0.480410
1455.41, 0.483280
1455.81, 0.482440
1456.22, 0.482230
1456.63, 0.481670
1457.04, 0.479710
1457.45, 0.477890
1457.86, 0.476980
1458.27, 0.476490
1458.68, 0.478310
1459.09, 0.476980
1459.5, 0.477960
1459.91, 0.478030
1460.32, 0.479710
1460.74, 0.478170
1461.15, 0.479850
1461.56, 0.483000
1461.97, 0.484750
1462.39, 0.482580
1462.8, 0.482720
1463.21, 0.483350
1463.62, 0.485170
1464.04, 0.485240
1464.45, 0.485590
1464.86, 0.483910
1465.28, 0.484050
1465.69, 0.482580
1466.11, 0.485030
1466.52, 0.487690
1466.94, 0.490140
1467.35, 0.486920
1467.77, 0.485660
1468.18, 0.484750
1468.6, 0.483700
1469.02, 0.479710
1469.43, 0.478660
1469.85, 0.480760
1470.27, 0.479920
1470.68, 0.475510
1471.1, 0.472850
1471.52, 0.469420
1471.94, 0.472360
1472.35, 0.466200
1472.77, 0.461650
1473.19, 0.461160
1473.61, 0.455280
1474.03, 0.448700
1474.45, 0.445270
1474.87, 0.435400
1475.29, 0.421120
1475.71, 0.407750
1476.13, 0.395290
1476.55, 0.383110
1476.97, 0.374990
1477.39, 0.371560
1477.81, 0.371420
1478.23, 0.377790
1478.65, 0.386680
1479.07, 0.392490
1479.5, 0.405720
1479.92, 0.423220
1480.34, 0.434070
1480.76, 0.438690
1481.19, 0.450730
1481.61, 0.470610
1482.03, 0.484890
1482.46, 0.492170
1482.88, 0.494900
1483.31, 0.488320
1483.73, 0.488320
1484.16, 0.493220
1484.58, 0.500150
1485.01, 0.502810
1485.43, 0.504490
1485.86, 0.501410
1486.28, 0.504420
1486.71, 0.508900
1487.14, 0.508970
1487.56, 0.509040
1487.99, 0.510440
1488.42, 0.509670
1488.84, 0.509040
1489.27, 0.504770
1489.7, 0.507570
1490.13, 0.506800
1490.56, 0.507990
1490.98, 0.510790
1491.41, 0.512890
1491.84, 0.514640
1492.27, 0.514710
1492.7, 0.511560
1493.13, 0.509740
1493.56, 0.507990
1493.99, 0.510230
1494.42, 0.513240
1494.85, 0.512050
1495.29, 0.509460
1495.72, 0.511140
1496.15, 0.512050
1496.58, 0.512750
1497.01, 0.511280
1497.44, 0.514430
1497.88, 0.514640
1498.31, 0.515200
1498.74, 0.515270
1499.18, 0.515830
1499.61, 0.516040
1500.04, 0.516250
1500.48, 0.514990
1500.91, 0.518140
1501.35, 0.518420
1501.78, 0.518000
1502.22, 0.516880
1502.65, 0.518490
1503.09, 0.519400
1503.53, 0.521010
1503.96, 0.521290
1504.4, 0.521360
1504.83, 0.521010
1505.27, 0.521850
1505.71, 0.522620
1506.15, 0.524790
1506.58, 0.523250
1507.02, 0.524860
1507.46, 0.527030
1507.9, 0.527170
1508.34, 0.524580
1508.78, 0.526190
1509.21, 0.526540
1509.66, 0.526960
1510.09, 0.527100
1510.53, 0.528360
1510.97, 0.528010
1511.42, 0.528150
1511.86, 0.527100
1512.3, 0.528780
1512.74, 0.530880
1513.18, 0.532630
1513.62, 0.532420
1514.06, 0.532770
1514.51, 0.530390
1514.95, 0.531930
1515.39, 0.532350
1515.83, 0.531650
1516.28, 0.530600
1516.72, 0.532070
1517.16, 0.531300
1517.61, 0.532000
1518.05, 0.532700
1518.5, 0.533120
1518.94, 0.531860
1519.39, 0.533050
1519.83, 0.532840
1520.28, 0.533400
1520.73, 0.532070
1521.17, 0.532350
1521.62, 0.533400
1522.07, 0.533750
1522.51, 0.533820
1522.96, 0.534660
1523.41, 0.533750
1523.85, 0.535360
1524.3, 0.535500
1524.75, 0.536200
1525.2, 0.535220
1525.65, 0.535080
1526.1, 0.535640
1526.55, 0.538370
1527.0, 0.537180
1527.45, 0.536550
1527.9, 0.536200
1528.35, 0.535570
1528.8, 0.534240
1529.25, 0.535430
1529.7, 0.535850
1530.15, 0.536620
1530.6, 0.535220
1531.05, 0.535290
1531.51, 0.535500
1531.96, 0.535850
1532.41, 0.534590
1532.87, 0.535850
1533.32, 0.536060
1533.77, 0.536060
1534.23, 0.535990
1534.68, 0.537880
1535.14, 0.538510
1535.59, 0.538230
1536.05, 0.537180
1536.5, 0.538160
1536.96, 0.537250
1537.41, 0.538230
1537.87, 0.537740
1538.32, 0.539350
1538.78, 0.537950
1539.24, 0.538440
1539.7, 0.537180
1540.15, 0.537320
1540.61, 0.537110
1541.07, 0.537600
1541.53, 0.536340
1541.98, 0.537740
1542.44, 0.538230
1542.9, 0.538020
1543.36, 0.537390
1543.82, 0.537810
1544.28, 0.537670
1544.74, 0.538930
1545.2, 0.539560
1545.66, 0.539490
1546.12, 0.538720
1546.59, 0.540890
1547.05, 0.541590
1547.51, 0.541240
1547.97, 0.539420
1548.43, 0.539700
1548.9, 0.539000
1549.36, 0.539490
1549.82, 0.540820
1550.29, 0.542570
1550.75, 0.540960
1551.21, 0.539630
1551.68, 0.538860
1552.14, 0.540750
1552.61, 0.541590
1553.07, 0.541940
1553.54, 0.541380
1554.0, 0.541940
1554.47, 0.542080
1554.93, 0.541310
1555.4, 0.540470
1555.87, 0.541380
1556.34, 0.540960
1556.8, 0.540400
1557.27, 0.539140
1557.74, 0.540680
1558.21, 0.541730
1558.68, 0.542290
1559.14, 0.541170
1559.61, 0.540330
1560.08, 0.540120
1560.55, 0.541590
1561.02, 0.540120
1561.49, 0.540820
1561.96, 0.541240
1562.43, 0.542080
1562.9, 0.541030
1563.38, 0.541520
1563.85, 0.541240
1564.32, 0.541870
1564.79, 0.542710
1565.26, 0.543550
1565.74, 0.542080
1566.21, 0.541660
1566.68, 0.542150
1567.16, 0.543200
1567.63, 0.542080
1568.1, 0.542570
1568.58, 0.542570
1569.05, 0.542990
1569.53, 0.542360
1570.0, 0.542290
1570.48, 0.540960
1570.96, 0.541380
1571.43, 0.540890
1571.91, 0.542360
1572.39, 0.542500
1572.86, 0.542920
1573.34, 0.542220
1573.82, 0.541940
1574.3, 0.541170
1574.77, 0.542780
1575.25, 0.542570
1575.73, 0.542570
1576.21, 0.542430
1576.69, 0.543410
1577.17, 0.543550
1577.65, 0.543970
1578.13, 0.543480
1578.61, 0.544950
1579.09, 0.544530
1579.57, 0.543690
1580.05, 0.542430
1580.54, 0.543130
1581.02, 0.542570
1581.5, 0.543130
1581.98, 0.543830
1582.47, 0.544600
1582.95, 0.542990
1583.43, 0.543830
1583.92, 0.543970
1584.4, 0.544530
1584.88, 0.543480
1585.37, 0.543060
1585.85, 0.543130
1586.34, 0.543760
1586.82, 0.543410
1587.31, 0.544880
1587.8, 0.544950
1588.28, 0.545510
1588.77, 0.544460
1589.26, 0.542850
1589.74, 0.542780
1590.23, 0.545090
1590.72, 0.546000
1591.21, 0.547050
1591.7, 0.545230
1592.19, 0.544880
1592.67, 0.544250
1593.16, 0.544040
1593.65, 0.542780
1594.14, 0.543200
1594.63, 0.543130
1595.12, 0.543060
1595.61, 0.543900
1596.11, 0.545230
1596.6, 0.544110
1597.09, 0.542780
1597.58, 0.542640
1598.08, 0.544320
1598.57, 0.545300
1599.06, 0.545580
1599.55, 0.544600
1600.05, 0.545090
1600.54, 0.545090
1601.04, 0.545300
1601.53, 0.544180
1602.03, 0.544670
1602.52, 0.544180
1603.02, 0.545020
1603.51, 0.545230
1604.01, 0.545580
1604.5, 0.544810
1605.0, 0.545580
1605.5, 0.545160
1606.0, 0.546280
1606.49, 0.546280
1606.99, 0.546000
1607.49, 0.543550
1607.99, 0.542990
1608.49, 0.544740
1608.99, 0.546420
1609.49, 0.545020
1609.99, 0.544530
1610.49, 0.544390
1610.99, 0.545720
1611.49, 0.544390
1611.99, 0.544180
1612.49, 0.544950
1612.99, 0.545860
1613.49, 0.545580
1614.0, 0.545230
1614.5, 0.546280
1615.0, 0.546910
1615.51, 0.545790
1616.01, 0.545650
1616.51, 0.544600
1617.02, 0.546070
1617.52, 0.546840
1618.03, 0.546070
1618.53, 0.545720
1619.04, 0.545580
1619.54, 0.544460
1620.05, 0.545090
1620.55, 0.546140
1621.06, 0.546280
1621.57, 0.545510
1622.08, 0.546700
1622.58, 0.546910
1623.09, 0.546490
1623.6, 0.546140
1624.11, 0.547470
1624.62, 0.546980
1625.13, 0.546840
1625.64, 0.546210
1626.15, 0.546700
1626.66, 0.547680
1627.17, 0.547540
1627.68, 0.546700
1628.19, 0.546770
1628.7, 0.545860
1629.21, 0.546350
1629.72, 0.545930
1630.24, 0.547260
1630.75, 0.546630
1631.26, 0.545860
1631.78, 0.545510
1632.29, 0.547260
1632.8, 0.547750
1633.32, 0.547960
1633.83, 0.547610
1634.35, 0.548170
1634.86, 0.547540
1635.38, 0.547260
1635.9, 0.546210
1636.41, 0.546560
1636.93, 0.546840
1637.45, 0.547190
1637.96, 0.546350
1638.48, 0.546350
1639.0, 0.546280
1639.52, 0.546630
1640.04, 0.545720
1640.56, 0.546140
1641.08, 0.546490
1641.59, 0.546840
1642.11, 0.545860
1642.63, 0.546420
1643.16, 0.547260
1643.68, 0.547260
1644.2, 0.546560
1644.72, 0.547050
1645.24, 0.546770
1645.76, 0.547820
1646.29, 0.546840
1646.81, 0.547540
1647.33, 0.547820
1647.86, 0.547540
1648.38, 0.546490
1648.9, 0.547960
1649.43, 0.546280
1649.95, 0.546070
1650.48, 0.547260
1651.0, 0.548450
1651.53, 0.548520
1652.06, 0.548380
1652.58, 0.547610
1653.11, 0.547050
1653.64, 0.548030
1654.17, 0.548520
1654.69, 0.547750
1655.22, 0.547610
1655.75, 0.547190
1656.28, 0.547050
1656.81, 0.546560
1657.34, 0.546770
1657.87, 0.547400
1658.4, 0.548170
1658.93, 0.548030
1659.46, 0.548730
1659.99, 0.547050
1660.52, 0.546210
1661.05, 0.547540
1661.59, 0.548100
1662.12, 0.546840
1662.65, 0.547820
1663.19, 0.547680
1663.72, 0.548380
1664.26, 0.547470
1664.79, 0.547190
1665.32, 0.546560
1665.86, 0.547260
1666.39, 0.546840
1666.93, 0.547540
1667.47, 0.547890
1668.0, 0.546980
1668.54, 0.546210
1669.08, 0.547120
1669.61, 0.546350
1670.15, 0.545650
1670.69, 0.545160
1671.23, 0.545580
1671.77, 0.546210
1672.31, 0.546840
1672.85, 0.545440
1673.39, 0.545580
1673.93, 0.546000
1674.47, 0.546210
1675.01, 0.545370
1675.55, 0.545090
1676.09, 0.545720
1676.64, 0.546840
1677.18, 0.546700
1677.72, 0.546560
1678.26, 0.545650
1678.81, 0.545160
1679.35, 0.545790
1679.89, 0.545790
1680.44, 0.543690
1680.98, 0.545160
1681.53, 0.545650
1682.07, 0.545020
1682.62, 0.545090
1683.17, 0.546350
1683.71, 0.545930
1684.26, 0.543830
1684.81, 0.542780
1685.36, 0.543830
1685.9, 0.543900
1686.45, 0.543900
1687.0, 0.543060
1687.55, 0.542570
1688.1, 0.542710
1688.65, 0.543410
1689.2, 0.543200
1689.75, 0.543830
1690.3, 0.543130
1690.85, 0.543060
1691.41, 0.542290
1691.96, 0.542500
1692.51, 0.542640
1693.06, 0.543410
1693.61, 0.542290
1694.17, 0.541870
1694.72, 0.541590
1695.28, 0.541310
1695.83, 0.541380
1696.39, 0.543410
1696.94, 0.543340
1697.5, 0.542640
1698.05, 0.542430
1698.61, 0.542500
1699.17, 0.540820
1699.72, 0.541940
1700.28, 0.542710
1700.84, 0.543340
1701.4, 0.542780
1701.95, 0.543200
1702.51, 0.541870
1703.07, 0.541730
1703.63, 0.540750
1704.19, 0.541310
1704.75, 0.540750
1705.31, 0.541030
1705.88, 0.541450
1706.44, 0.541940
1707.0, 0.541940
1707.56, 0.541660
1708.12, 0.540610
1708.69, 0.541660
1709.25, 0.541870
1709.81, 0.541310
1710.38, 0.540540
1710.94, 0.541520
1711.51, 0.541590
1712.07, 0.541100
1712.64, 0.539770
1713.2, 0.540330
1713.77, 0.540540
1714.34, 0.540540
1714.9, 0.540540
1715.47, 0.541170
1716.04, 0.539770
1716.61, 0.539420
1717.18, 0.539280
1717.74, 0.539560
1718.31, 0.540400
1718.88, 0.539980
1719.45, 0.538160
1720.02, 0.538230
1720.59, 0.538090
1721.17, 0.537670
1721.74, 0.536340
1722.31, 0.536480
1722.88, 0.536620
1723.45, 0.537040
1724.03, 0.536900
1724.6, 0.536900
1725.18, 0.535360
1725.75, 0.534520
1726.33, 0.533190
1726.9, 0.532700
1727.48, 0.532630
1728.05, 0.532350
1728.63, 0.531370
1729.2, 0.531580
1729.78, 0.531090
1730.36, 0.531230
1730.94, 0.530460
1731.51, 0.529760
1732.09, 0.529900
1732.67, 0.529690
1733.25, 0.528360
1733.83, 0.528500
1734.41, 0.527590
1734.99, 0.527100
1735.57, 0.526120
1736.15, 0.525840
1736.73, 0.525350
1737.32, 0.524790
1737.9, 0.523740
1738.48, 0.522900
1739.07, 0.522480
1739.65, 0.522410
1740.23, 0.522410
1740.82, 0.522270
1741.4, 0.520590
1741.99, 0.519750
1742.57, 0.518140
1743.16, 0.517720
1743.74, 0.516670
1744.33, 0.516390
1744.92, 0.515410
1745.51, 0.514780
1746.09, 0.514290
1746.68, 0.514430
1747.27, 0.514080
1747.86, 0.513380
1748.45, 0.511700
1749.04, 0.510580
1749.63, 0.509180
1750.22, 0.509040
1750.81, 0.508200
1751.4, 0.507430
1751.99, 0.507360
1752.59, 0.507920
1753.18, 0.507780
1753.77, 0.507010
1754.37, 0.505960
1754.96, 0.505680
1755.56, 0.505680
1756.15, 0.505750
1756.74, 0.505050
1757.34, 0.505050
1757.94, 0.504000
1758.53, 0.503020
1759.13, 0.502110
1759.73, 0.502180
1760.32, 0.501410
1760.92, 0.500640
1761.52, 0.500010
1762.12, 0.500080
1762.72, 0.499800
1763.32, 0.499590
1763.92, 0.499170
1764.52, 0.499380
1765.12, 0.498680
1765.72, 0.498400
1766.32, 0.497630
1766.92, 0.496580
1767.53, 0.496300
1768.13, 0.497560
1768.73, 0.498330
1769.34, 0.498120
1769.94, 0.498400
1770.55, 0.500010
1771.15, 0.500920
1771.76, 0.501970
1772.36, 0.502320
1772.97, 0.503580
1773.57, 0.504770
1774.18, 0.506940
1774.79, 0.507290
1775.4, 0.507920
1776.0, 0.508060
1776.61, 0.508340
1777.22, 0.507570
1777.83, 0.507920
1778.44, 0.507640
1779.05, 0.507640
1779.66, 0.508830
1780.27, 0.509880
1780.88, 0.510160
1781.5, 0.512050
1782.11, 0.514010
1782.72, 0.515480
1783.33, 0.515900
1783.95, 0.517300
1784.56, 0.518770
1785.18, 0.519260
1785.79, 0.519610
1786.41, 0.521150
1787.02, 0.521990
1787.64, 0.523460
1788.26, 0.524650
1788.87, 0.526120
1789.49, 0.527310
1790.11, 0.529480
1790.73, 0.530810
1791.35, 0.531510
1791.96, 0.532140
1792.58, 0.533120
1793.21, 0.533260
1793.83, 0.534030
1794.45, 0.534170
1795.07, 0.534660
1795.69, 0.535640
1796.31, 0.537110
1796.93, 0.537950
1797.56, 0.537950
1798.18, 0.537180
1798.8, 0.537670
1799.43, 0.538020
1800.05, 0.538440
1800.68, 0.538650
1801.3, 0.539490
1801.93, 0.539560
1802.56, 0.539840
1803.18, 0.540120
1803.81, 0.540610
1804.44, 0.539980
1805.07, 0.540120
1805.7, 0.540260
1806.33, 0.541030
1806.95, 0.541520
1807.58, 0.541870
1808.22, 0.541520
1808.85, 0.540960
1809.48, 0.539770
1810.11, 0.540820
1810.74, 0.541450
1811.38, 0.541240
1812.01, 0.541030
1812.64, 0.541380
1813.28, 0.540960
1813.91, 0.541240
1814.55, 0.541660
1815.18, 0.541730
1815.82, 0.541030
1816.45, 0.541240
1817.09, 0.541800
1817.73, 0.541940
1818.36, 0.541940
1819.0, 0.542010
1819.64, 0.541450
1820.28, 0.541380
1820.92, 0.540330
1821.56, 0.540890
1822.2, 0.541030
1822.84, 0.541380
1823.48, 0.541660
1824.12, 0.542220
1824.76, 0.541310
1825.41, 0.540610
1826.05, 0.540680
1826.69, 0.541590
1827.34, 0.541380
1827.98, 0.541240
1828.63, 0.541380
1829.27, 0.542150
1829.92, 0.541730
1830.56, 0.541030
1831.21, 0.540400
1831.86, 0.540120
1832.5, 0.540050
1833.15, 0.539770
1833.8, 0.539420
1834.45, 0.539350
1835.1, 0.539140
1835.75, 0.539840
1836.4, 0.539910
1837.05, 0.539210
1837.7, 0.539000
1838.35, 0.539210
1839.01, 0.538440
1839.66, 0.538720
1840.31, 0.538860
1840.96, 0.539070
1841.62, 0.538790
1842.27, 0.538930
1842.93, 0.538370
1843.58, 0.537390
1844.24, 0.536970
1844.9, 0.537740
1845.55, 0.538090
1846.21, 0.538510
1846.87, 0.537740
1847.53, 0.537390
1848.18, 0.537530
1848.84, 0.537810
1849.5, 0.537670
1850.16, 0.537950
1850.82, 0.537530
1851.48, 0.537040
1852.14, 0.536620
1852.81, 0.536620
1853.47, 0.536200
1854.13, 0.536830
1854.8, 0.536270
1855.46, 0.536060
1856.12, 0.535850
1856.79, 0.535710
1857.45, 0.535850
1858.12, 0.535920
1858.79, 0.535010
1859.45, 0.535080
1860.12, 0.533960
1860.79, 0.533610
1861.46, 0.533190
1862.12, 0.532700
1862.79, 0.531790
1863.46, 0.532350
1864.13, 0.532840
1864.8, 0.532630
1865.48, 0.532070
1866.15, 0.532770
1866.82, 0.531930
1867.49, 0.531230
1868.16, 0.530810
1868.84, 0.530320
1869.51, 0.529550
1870.19, 0.529340
1870.86, 0.529200
1871.54, 0.528920
1872.21, 0.527030
1872.89, 0.525980
1873.56, 0.525910
1874.24, 0.525630
1874.92, 0.524510
1875.6, 0.524020
1876.28, 0.522760
1876.96, 0.521430
1877.64, 0.520590
1878.32, 0.521220
1879.0, 0.519960
1879.68, 0.518840
1880.36, 0.518070
1881.04, 0.517230
1881.73, 0.516180
1882.41, 0.515130
1883.09, 0.513590
1883.78, 0.512120
1884.46, 0.510370
1885.15, 0.509110
1885.83, 0.507990
1886.52, 0.507150
1887.21, 0.505750
1887.89, 0.504350
1888.58, 0.502810
1889.27, 0.501620
1889.96, 0.500290
1890.65, 0.499240
1891.34, 0.496650
1892.03, 0.495740
1892.72, 0.494690
1893.41, 0.493080
1894.1, 0.490840
1894.79, 0.489230
1895.49, 0.486920
1896.18, 0.484960
1896.87, 0.483980
1897.57, 0.483350
1898.26, 0.481390
1898.96, 0.479710
1899.65, 0.478380
1900.35, 0.476630
1901.05, 0.475580
1901.74, 0.475300
1902.44, 0.473900
1903.14, 0.473340
1903.84, 0.471940
1904.54, 0.470960
1905.24, 0.470260
1905.94, 0.468580
1906.64, 0.467600
1907.34, 0.467110
1908.04, 0.466130
1908.75, 0.466060
1909.45, 0.465500
1910.15, 0.464590
1910.86, 0.463120
1911.56, 0.462140
1912.27, 0.462350
1912.97, 0.462560
1913.68, 0.461510
1914.39, 0.461300
1915.09, 0.461230
1915.8, 0.461300
1916.51, 0.460390
1917.22, 0.459830
1917.93, 0.459410
1918.64, 0.459620
1919.35, 0.459760
1920.06, 0.460110
1920.77, 0.459620
1921.48, 0.459690
1922.19, 0.459760
1922.91, 0.459410
1923.62, 0.458920
1924.33, 0.459760
1925.05, 0.460390
1925.76, 0.460460
1926.48, 0.460040
1927.19, 0.459830
1927.91, 0.460040
1928.63, 0.461230
1929.35, 0.461720
1930.07, 0.461790
1930.78, 0.461090
1931.5, 0.461440
1932.22, 0.461300
1932.94, 0.462000
1933.66, 0.462350
1934.39, 0.462980
1935.11, 0.463050
1935.83, 0.463190
1936.55, 0.463540
1937.28, 0.463820
1938.0, 0.463540
1938.73, 0.464450
1939.45, 0.465150
1940.18, 0.465710
1940.9, 0.465850
1941.63, 0.466340
1942.36, 0.466060
1943.09, 0.465920
1943.81, 0.466060
1944.54, 0.466690
1945.27, 0.466900
1946.0, 0.467320
1946.73, 0.467670
1947.47, 0.468300
1948.2, 0.467390
1948.93, 0.467040
1949.66, 0.467600
1950.4, 0.468370
1951.13, 0.468230
1951.86, 0.468160
1952.6, 0.468160
1953.34, 0.468580
1954.07, 0.468720
1954.81, 0.468790
1955.55, 0.469280
1956.29, 0.469560
1957.02, 0.469630
1957.76, 0.470050
1958.5, 0.470190
1959.24, 0.470610
1959.98, 0.470680
1960.72, 0.470820
1961.47, 0.471450
1962.21, 0.472080
1962.95, 0.471450
1963.7, 0.471380
1964.44, 0.471940
1965.18, 0.472850
1965.93, 0.472990
1966.67, 0.473410
1967.42, 0.474180
1968.17, 0.475230
1968.92, 0.475650
1969.66, 0.476070
1970.41, 0.476280
1971.16, 0.476770
1971.91, 0.477190
1972.66, 0.478170
1973.41, 0.478380
1974.16, 0.479150
1974.92, 0.479430
1975.67, 0.479570
1976.42, 0.480200
1977.18, 0.480760
1977.93, 0.481390
1978.69, 0.482230
1979.44, 0.482580
1980.2, 0.482860
1980.95, 0.482860
1981.71, 0.482930
1982.47, 0.482510
1983.23, 0.482300
1983.99, 0.482440
1984.74, 0.483280
1985.51, 0.483350
1986.27, 0.483280
1987.03, 0.483000
1987.79, 0.482860
1988.55, 0.482580
1989.32, 0.482720
1990.08, 0.482160
1990.84, 0.481670
1991.61, 0.481460
1992.37, 0.481600
1993.14, 0.481390
1993.9, 0.481810
1994.67, 0.481320
1995.44, 0.480620
1996.21, 0.479780
1996.98, 0.479500
1997.75, 0.479080
1998.52, 0.478940
1999.29, 0.478380
2000.06, 0.478170
2000.83, 0.477330
2001.6, 0.476770
2002.38, 0.476210
2003.15, 0.476210
2003.93, 0.476140
2004.7, 0.475860
2005.48, 0.475090
2006.25, 0.474880
2007.03, 0.474600
2007.81, 0.474530
2008.58, 0.474320
2009.36, 0.474180
2010.14, 0.473970
2010.92, 0.474530
2011.7, 0.474740
2012.48, 0.474670
2013.26, 0.474740
2014.05, 0.474810
2014.83, 0.474390
2015.61, 0.475300
2016.4, 0.475580
2017.18, 0.475720
2017.97, 0.475860
2018.75, 0.476280
2019.54, 0.476280
2020.32, 0.476560
2021.11, 0.476840
2021.9, 0.477260
2022.69, 0.477820
2023.48, 0.478310
2024.27, 0.477540
2025.06, 0.476910
2025.85, 0.476910
2026.64, 0.477400
2027.44, 0.477540
2028.23, 0.476980
2029.02, 0.476140
2029.82, 0.476350
2030.61, 0.476000
2031.41, 0.475510
2032.2, 0.475720
2033.0, 0.475860
2033.8, 0.475440
2034.6, 0.475300
2035.4, 0.474880
2036.2, 0.474530
2037.0, 0.474040
2037.8, 0.474110
2038.6, 0.473830
2039.4, 0.473550
2040.2, 0.473340
2041.01, 0.473550
2041.81, 0.473410
2042.61, 0.473620
2043.42, 0.473340
2044.22, 0.473410
2045.03, 0.472640
2045.84, 0.471730
2046.65, 0.471520
2047.46, 0.471520
2048.26, 0.470960
2049.07, 0.470750
2049.88, 0.470470
2050.69, 0.470190
2051.51, 0.469840
2052.32, 0.469490
2053.13, 0.468790
2053.94, 0.468790
2054.76, 0.468580
2055.57, 0.468370
2056.39, 0.467670
2057.2, 0.467950
2058.02, 0.467390
2058.84, 0.466900
2059.66, 0.466410
2060.48, 0.466690
2061.29, 0.466690
2062.11, 0.466410
2062.94, 0.465850
2063.76, 0.465780
2064.58, 0.465430
2065.4, 0.465360
2066.22, 0.465150
2067.05, 0.465220
2067.87, 0.465780
2068.7, 0.466340
2069.52, 0.466270
2070.35, 0.466620
2071.18, 0.467040
2072.0, 0.466690
2072.83, 0.466130
2073.66, 0.466690
2074.49, 0.467110
2075.32, 0.467670
2076.15, 0.467530
2076.98, 0.467530
2077.82, 0.467250
2078.65, 0.467670
2079.48, 0.467670
2080.32, 0.468230
2081.15, 0.467810
2081.99, 0.467740
2082.83, 0.467950
2083.66, 0.467670
2084.5, 0.466970
2085.34, 0.467180
2086.18, 0.466550
2087.02, 0.466200
2087.86, 0.466130
2088.7, 0.466130
2089.54, 0.465710
2090.39, 0.465220
2091.23, 0.464730
2092.07, 0.464590
2092.92, 0.463610
2093.76, 0.463050
2094.61, 0.462280
2095.45, 0.461370
2096.3, 0.460600
2097.15, 0.459760
2098.0, 0.458640
2098.85, 0.458430
2099.7, 0.457730
2100.55, 0.456750
2101.4, 0.455630
2102.25, 0.454720
2103.1, 0.453740
2103.96, 0.452550
2104.81, 0.451010
2105.67, 0.449330
2106.52, 0.447720
2107.38, 0.446320
2108.24, 0.444080
2109.09, 0.442120
2109.95, 0.440300
2110.81, 0.438550
2111.67, 0.436450
2112.53, 0.434420
2113.39, 0.432320
2114.25, 0.430430
2115.12, 0.428400
2115.98, 0.426440
2116.84, 0.423850
2117.71, 0.420840
2118.58, 0.417130
2119.44, 0.414120
2120.31, 0.410830
2121.18, 0.407750
2122.04, 0.404110
2122.91, 0.400470
2123.78, 0.397460
2124.65, 0.395150
2125.52, 0.392630
2126.4, 0.390880
2127.27, 0.389200
2128.14, 0.387730
2129.02, 0.385630
2129.89, 0.384580
2130.77, 0.383390
2131.64, 0.382060
2132.52, 0.380800
2133.4, 0.379820
2134.27, 0.378980
2135.15, 0.378350
2136.03, 0.377160
2136.91, 0.375690
2137.79, 0.374500
2138.68, 0.373450
2139.56, 0.371980
2140.44, 0.370580
2141.33, 0.369320
2142.21, 0.369180
2143.1, 0.368970
2143.99, 0.368830
2144.87, 0.368060
2145.76, 0.367430
2146.65, 0.366800
2147.54, 0.365820
2148.43, 0.363790
2149.32, 0.362180
2150.21, 0.359520
2151.1, 0.356160
2151.99, 0.352170
2152.89, 0.348040
2153.78, 0.344400
2154.68, 0.341320
2155.57, 0.339080
2156.47, 0.338170
2157.37, 0.337820
2158.27, 0.339150
2159.16, 0.341110
2160.06, 0.343000
2160.96, 0.344260
2161.86, 0.345310
2162.77, 0.346150
2163.67, 0.346710
2164.57, 0.345940
2165.48, 0.343840
2166.38, 0.341530
2167.29, 0.340130
2168.2, 0.339430
2169.1, 0.340690
2170.01, 0.343140
2170.92, 0.345940
2171.83, 0.349230
2172.74, 0.352940
2173.65, 0.355670
2174.56, 0.356580
2175.47, 0.355600
2176.39, 0.352940
2177.3, 0.349090
2178.22, 0.344820
2179.13, 0.339920
2180.05, 0.336000
2180.96, 0.334670
2181.88, 0.336210
2182.8, 0.340130
2183.72, 0.346290
2184.64, 0.353290
2185.56, 0.359940
2186.48, 0.365400
2187.41, 0.369390
2188.33, 0.370440
2189.25, 0.370090
2190.18, 0.368340
2191.1, 0.367360
2192.03, 0.369670
2192.96, 0.375620
2193.89, 0.384510
2194.82, 0.395010
2195.74, 0.404810
2196.68, 0.413280
2197.61, 0.419370
2198.54, 0.422800
2199.47, 0.423780
2200.4, 0.422660
2201.34, 0.417970
2202.28, 0.409220
2203.21, 0.398370
2204.15, 0.388080
2205.08, 0.380100
2206.02, 0.376670
2206.96, 0.374990
2207.9, 0.371770
2208.84, 0.367360
2209.78, 0.363580
2210.73, 0.362390
2211.67, 0.365960
2212.61, 0.374220
2213.56, 0.385350
2214.5, 0.396550
2215.45, 0.406490
2216.4, 0.414260
2217.35, 0.421750
2218.3, 0.429030
2219.24, 0.437570
2220.2, 0.447370
2221.15, 0.456890
2222.1, 0.463750
2223.05, 0.468790
2224.0, 0.472500
2224.96, 0.475440
2225.91, 0.477190
2226.87, 0.479570
2227.83, 0.481320
2228.79, 0.483070
2229.74, 0.484190
2230.7, 0.485100
2231.66, 0.485450
2232.63, 0.486360
2233.59, 0.486780
2234.55, 0.487200
2235.51, 0.487550
2236.48, 0.488390
2237.44, 0.488600
2238.41, 0.488740
2239.38, 0.488670
2240.34, 0.489230
2241.31, 0.489510
2242.28, 0.489860
2243.25, 0.490000
2244.22, 0.490350
2245.19, 0.490070
2246.17, 0.490420
2247.14, 0.490420
2248.12, 0.490490
2249.09, 0.490210
2250.07, 0.490350
2251.04, 0.490490
2252.02, 0.490420
2253.0, 0.490000
2253.98, 0.490070
2254.96, 0.490070
2255.94, 0.490280
2256.92, 0.490000
2257.91, 0.490000
2258.89, 0.489230
2259.88, 0.488810
2260.86, 0.488740
2261.85, 0.489230
2262.83, 0.488880
2263.82, 0.489090
2264.81, 0.488880
2265.8, 0.488530
2266.79, 0.488250
2267.78, 0.488810
2268.78, 0.488670
2269.77, 0.488670
2270.76, 0.488390
2271.76, 0.488390
2272.75, 0.487970
2273.75, 0.488110
2274.75, 0.487690
2275.75, 0.487480
2276.75, 0.486990
2277.75, 0.486640
2278.75, 0.485940
2279.75, 0.486080
2280.75, 0.486150
2281.76, 0.486010
2282.76, 0.485520
2283.77, 0.485030
2284.77, 0.484820
2285.78, 0.484750
2286.79, 0.484050
2287.8, 0.483630
2288.81, 0.482720
2289.82, 0.482160
2290.83, 0.481740
2291.84, 0.481180
2292.86, 0.479990
2293.87, 0.479570
2294.89, 0.478380
2295.91, 0.477400
2296.92, 0.476700
2297.94, 0.475650
2298.96, 0.474390
2299.98, 0.472990
2301.0, 0.471030
2302.02, 0.469420
2303.04, 0.467110
2304.07, 0.464310
2305.09, 0.460600
2306.12, 0.456890
2307.15, 0.452900
2308.17, 0.448700
2309.2, 0.443240
2310.23, 0.437990
2311.26, 0.432320
2312.29, 0.426860
2313.32, 0.421540
2314.35, 0.416360
2315.39, 0.411880
2316.42, 0.408380
2317.46, 0.405370
2318.5, 0.403270
2319.53, 0.401380
2320.57, 0.401030
2321.61, 0.401870
2322.65, 0.403690
2323.69, 0.405790
2324.73, 0.408520
2325.78, 0.411530
2326.82, 0.414680
2327.86, 0.418110
2328.91, 0.421610
2329.96, 0.424900
2331.01, 0.428330
2332.05, 0.431270
2333.1, 0.434910
2334.15, 0.438550
2335.21, 0.441630
2336.26, 0.444500
2337.31, 0.447580
2338.36, 0.450240
2339.42, 0.453250
2340.48, 0.455770
2341.53, 0.458010
2342.59, 0.459550
2343.65, 0.461160
2344.71, 0.462770
2345.77, 0.464100
2346.83, 0.464660
2347.9, 0.465500
2348.96, 0.465990
2350.02, 0.466550
2351.09, 0.466480
2352.16, 0.466760
2353.23, 0.466900
2354.29, 0.467040
2355.36, 0.466620
2356.43, 0.466340
2357.51, 0.465780
2358.58, 0.465500
2359.65, 0.465080
2360.73, 0.464310
2361.8, 0.463120
2362.88, 0.462420
2363.96, 0.461300
2365.03, 0.460250
2366.11, 0.458920
2367.19, 0.457520
2368.27, 0.455490
2369.36, 0.453320
2370.44, 0.451150
2371.53, 0.448840
2372.61, 0.446040
2373.7, 0.443240
2374.78, 0.440090
2375.87, 0.436660
2376.96, 0.432880
2378.05, 0.429170
2379.14, 0.424690
2380.24, 0.420070
2381.33, 0.415310
2382.42, 0.409710
2383.52, 0.403760
2384.61, 0.398300
2385.71, 0.393120
2386.81, 0.388360
2387.91, 0.384300
2389.01, 0.380800
2390.11, 0.376880
2391.22, 0.373520
2392.32, 0.370510
2393.42, 0.368690
2394.53, 0.367360
2395.64, 0.366380
2396.74, 0.365330
2397.85, 0.364700
2398.96, 0.364700
2400.07, 0.365120
2401.18, 0.365750
2402.3, 0.366940
2403.41, 0.368060
2404.52, 0.369040
2405.64, 0.368830
2406.76, 0.368060
2407.88, 0.366590
2408.99, 0.365400
2410.11, 0.364210
2411.23, 0.363160
2412.36, 0.361550
2413.48, 0.359380
2414.6, 0.356300
2415.73, 0.352870
2416.85, 0.349370
2417.98, 0.346220
2419.11, 0.343070
2420.24, 0.340760
2421.37, 0.338590
2422.5, 0.336070
2423.64, 0.332850
2424.77, 0.329210
2425.9, 0.325290
2427.04, 0.321230
2428.18, 0.317240
2429.31, 0.314370
2430.45, 0.312620
2431.59, 0.311990
2432.73, 0.312760
2433.88, 0.315280
2435.02, 0.318220
2436.16, 0.322560
2437.31, 0.327390
2438.45, 0.331590
2439.6, 0.335230
2440.75, 0.339010
2441.9, 0.342160
2443.05, 0.345240
2444.2, 0.347690
2445.35, 0.349650
2446.51, 0.350700
2447.67, 0.350980
2448.82, 0.351050
2449.98, 0.351050
2451.14, 0.350490
2452.3, 0.349650
2453.46, 0.348740
2454.62, 0.347620
2455.78, 0.345380
2456.94, 0.342510
2458.11, 0.338730
2459.28, 0.334600
2460.44, 0.329980
2461.61, 0.325290
2462.78, 0.320600
2463.95, 0.316260
2465.12, 0.312900
2466.3, 0.310870
2467.47, 0.310030
2468.65, 0.310240
2469.82, 0.311430
2471.0, 0.313740
2472.18, 0.316540
2473.36, 0.320110
2474.54, 0.324310
2475.72, 0.328650
2476.9, 0.332570
2478.08, 0.336490
2479.27, 0.339780
2480.46, 0.342510
2481.64, 0.344400
2482.83, 0.346010
2484.02, 0.346640
2485.21, 0.346290
2486.4, 0.344190
2487.6, 0.340830
2488.79, 0.335720
2489.99, 0.330050
2491.18, 0.324590
2492.38, 0.320110
2493.58, 0.316470
2494.78, 0.313320
2495.98, 0.309610
2497.18, 0.306180
2498.39, 0.302820
2499.59, 0.299110
2500.8, 0.294210
2502.01, 0.288050
2503.21, 0.280420
2504.42, 0.272370
2505.63, 0.263410
2506.84, 0.255150
2508.06, 0.248710
2509.27, 0.244580
2510.49, 0.242060
2511.7, 0.240730
2512.92, 0.240520
2514.14, 0.241500
2515.36, 0.243600
2516.58, 0.247030
2517.8, 0.251370
2519.03, 0.256270
2520.25, 0.262080
2521.48, 0.268660
2522.7, 0.275940
2523.93, 0.284340
2525.16, 0.292460
2526.39, 0.299670
2527.62, 0.304920
2528.86, 0.308350
2530.09, 0.310450
2531.33, 0.311920
2532.56, 0.312480
2533.8, 0.312480
2535.04, 0.311920
2536.28, 0.312410
2537.52, 0.313810
2538.76, 0.316120
2540.01, 0.318570
2541.25, 0.321440
2542.5, 0.323400
2543.75, 0.324870
2544.99, 0.326620
2546.24, 0.328510
2547.49, 0.329980
2548.75, 0.331170
2550.0, 0.331870
2551.26, 0.331660
2552.51, 0.330470
2553.77, 0.328930
2555.03, 0.326550
2556.29, 0.324240
2557.55, 0.321790
2558.81, 0.319480
2560.08, 0.317380
2561.34, 0.316470
2562.61, 0.316260
2563.88, 0.316680
2565.14, 0.317240
2566.41, 0.318290
2567.68, 0.319060
2568.96, 0.319830
2570.23, 0.320460
2571.51, 0.321090
2572.78, 0.320740
2574.06, 0.320110
2575.34, 0.319130
2576.62, 0.318150
2577.9, 0.317100
2579.18, 0.316330
2580.47, 0.315770
2581.75, 0.315280
2583.04, 0.314440
2584.32, 0.314230
2585.61, 0.314930
2586.9, 0.316470
2588.2, 0.318780
2589.49, 0.322070
2590.78, 0.326060
2592.08, 0.330540
2593.37, 0.334390
2594.67, 0.337960
2595.97, 0.341180
2597.27, 0.343910
2598.57, 0.345450
2599.88, 0.346640
2601.18, 0.346710
2602.49, 0.346150
2603.79, 0.344820
2605.1, 0.343140
2606.41, 0.341320
2607.72, 0.340270
2609.03, 0.340410
2610.35, 0.342580
2611.66, 0.345730
2612.98, 0.349230
2614.3, 0.352170
2615.62, 0.353780
2616.94, 0.354130
2618.26, 0.354200
2619.58, 0.353710
2620.91, 0.353500
2622.23, 0.353010
2623.56, 0.352800
2624.89, 0.352730
2626.22, 0.353220
2627.55, 0.354270
2628.88, 0.355600
2630.21, 0.357000
2631.55, 0.359170
2632.89, 0.360780
2634.22, 0.361620
2635.56, 0.361970
2636.9, 0.362390
2638.25, 0.363090
2639.59, 0.364700
2640.93, 0.366310
2642.28, 0.367360
2643.63, 0.367010
2644.98, 0.365400
2646.33, 0.362250
2647.68, 0.358610
2649.03, 0.354410
2650.39, 0.350000
2651.74, 0.344610
2653.1, 0.339150
2654.46, 0.333620
2655.82, 0.329000
2657.18, 0.325920
2658.54, 0.323470
2659.9, 0.321230
2661.27, 0.319690
2662.64, 0.318640
2664.01, 0.317660
2665.38, 0.316050
2666.74, 0.313810
2668.12, 0.311500
2669.49, 0.309400
2670.87, 0.306670
2672.24, 0.303310
2673.62, 0.298830
2675.0, 0.294840
2676.38, 0.292390
2677.76, 0.291200
2679.15, 0.290360
2680.54, 0.289590
2681.92, 0.288610
2683.31, 0.288260
2684.7, 0.288330
2686.09, 0.288750
2687.48, 0.289030
2688.88, 0.289800
2690.27, 0.290850
2691.67, 0.291200
2693.07, 0.289800
2694.47, 0.287000
2695.87, 0.283290
2697.27, 0.279160
2698.67, 0.274890
2700.08, 0.270900
2701.49, 0.266700
2702.9, 0.262080
2704.31, 0.256480
2705.72, 0.251090
2707.13, 0.245910
2708.54, 0.240520
2709.96, 0.234780
2711.38, 0.228970
2712.8, 0.222530
2714.22, 0.215530
2715.64, 0.208600
2717.06, 0.202720
2718.49, 0.196980
2719.91, 0.190960
2721.34, 0.185220
2722.77, 0.180040
2724.2, 0.174790
2725.63, 0.169890
2727.07, 0.165200
2728.5, 0.160650
2729.94, 0.155890
2731.38, 0.151130
2732.82, 0.146090
2734.26, 0.141190
2735.7, 0.136290
2737.15, 0.131320
2738.59, 0.126350
2740.04, 0.121660
2741.49, 0.117250
2742.94, 0.113330
2744.39, 0.110180
2745.84, 0.107730
2747.3, 0.105770
2748.76, 0.103950
2750.21, 0.102130
2751.67, 0.100520
2753.14, 0.0987700
2754.6, 0.0961100
2756.06, 0.0930300
2757.53, 0.0898100
2759.0, 0.0865900
2760.46, 0.0833700
2761.94, 0.0802200
2763.41, 0.0768600
2764.88, 0.0732200
2766.36, 0.0690900
2767.83, 0.0651700
2769.31, 0.0618100
2770.79, 0.0587300
2772.27, 0.0561400
2773.76, 0.0542500
2775.24, 0.0528500
2776.73, 0.0514500
2778.22, 0.0501900
2779.71, 0.0493500
2781.2, 0.0483700
2782.69, 0.0473900
2784.18, 0.0460600
2785.68, 0.0447300
2787.18, 0.0431900
2788.68, 0.0417900
2790.18, 0.0408100
2791.68, 0.0403900
2793.19, 0.0396200
2794.69, 0.0382900
2796.2, 0.0367500
2797.71, 0.0352800
2799.22, 0.0337400
2800.73, 0.0323400
2802.24, 0.0308000
2803.76, 0.0295400
2805.28, 0.0286300
2806.8, 0.0279300
2808.32, 0.0274400
2809.84, 0.0270900
2811.36, 0.0262500
2812.89, 0.0254100
2814.42, 0.0246400
2815.94, 0.0235200
2817.48, 0.0221200
2819.01, 0.0206500
2820.54, 0.0193900
2822.08, 0.0182700
2823.61, 0.0169400
2825.15, 0.0155400
2826.69, 0.0140700
2828.23, 0.0126700
2829.78, 0.0117600
2831.32, 0.0111300
2832.87, 0.0109900
2834.42, 0.0114800
2835.97, 0.0133700
2837.52, 0.0172200
2839.08, 0.0216300
2840.63, 0.0250600
2842.19, 0.0266000
2843.75, 0.0267400
2845.31, 0.0254100
2846.87, 0.0232400
2848.44, 0.0203700
2850.0, 0.0168000
2851.57, 0.0134400
2853.14, 0.0113400
2854.71, 0.0114800
2856.28, 0.0143500
2857.86, 0.0207200
2859.43, 0.0304500
2861.01, 0.0401800
2862.59, 0.0473200
2864.17, 0.0506800
2865.76, 0.0508900
2867.34, 0.0480900
2868.93, 0.0424200
2870.52, 0.0348600
2872.11, 0.0284900
2873.7, 0.0246400
2875.29, 0.0226800
2876.89, 0.0216300
2878.49, 0.0216300
2880.08, 0.0225400
2881.69, 0.0239400
2883.29, 0.0251300
2884.89, 0.0262500
2886.5, 0.0273700
2888.11, 0.0283500
2889.72, 0.0290500
2891.33, 0.0298900
2892.94, 0.0306600
2894.56, 0.0312900
2896.17, 0.0315000
2897.79, 0.0319200
2899.42, 0.0324800
2901.04, 0.0329000
2902.66, 0.0330400
2904.29, 0.0331800
2905.92, 0.0330400
2907.55, 0.0329000
2909.18, 0.0328300
2910.81, 0.0330400
2912.45, 0.0330400
2914.08, 0.0332500
2915.72, 0.0333900
2917.36, 0.0336000
2919.01, 0.0336000
2920.65, 0.0335300
2922.3, 0.0334600
2923.94, 0.0332500
2925.59, 0.0329700
2927.25, 0.0327600
2928.9, 0.0324100
2930.56, 0.0322700
2932.21, 0.0319900
2933.87, 0.0316400
2935.53, 0.0310100
2937.2, 0.0304500
2938.86, 0.0299600
2940.53, 0.0301000
2942.2, 0.0303800
2943.87, 0.0309400
2945.54, 0.0314300
2947.22, 0.0318500
2948.89, 0.0323400
2950.57, 0.0329000
2952.25, 0.0333900
2953.93, 0.0338800
2955.62, 0.0345800
2957.3, 0.0354200
2958.99, 0.0360500
2960.68, 0.0368200
2962.37, 0.0377300
2964.07, 0.0385700
2965.76, 0.0392000
2967.46, 0.0398300
2969.16, 0.0404600
2970.86, 0.0408800
2972.56, 0.0409500
2974.27, 0.0409500
2975.98, 0.0411600
2977.69, 0.0417900
2979.4, 0.0429800
2981.11, 0.0446600
2982.83, 0.0463400
2984.54, 0.0474600
2986.26, 0.0482300
2987.98, 0.0490000
2989.71, 0.0498400
2991.43, 0.0509600
2993.16, 0.0522200
2994.89, 0.0534800
2996.62, 0.0543200
2998.35, 0.0552300
3000.09, 0.0555100
3001.83, 0.0552300
3003.57, 0.0544600
3005.31, 0.0536200
3007.05, 0.0527100
3008.79, 0.0519400
3010.54, 0.0515200
3012.29, 0.0519400
3014.04, 0.0527800
3015.8, 0.0536900
3017.55, 0.0544600
3019.31, 0.0552300
3021.07, 0.0560000
3022.83, 0.0568400
3024.59, 0.0576800
3026.36, 0.0583800
3028.13, 0.0588700
3029.9, 0.0594300
3031.67, 0.0599900
3033.44, 0.0602000
3035.22, 0.0603400
3037.0, 0.0606900
3038.78, 0.0609000
3040.56, 0.0610400
3042.34, 0.0611100
3044.13, 0.0612500
3045.92, 0.0614600
3047.71, 0.0613200
3049.5, 0.0608300
3051.3, 0.0602000
3053.09, 0.0595700
3054.89, 0.0592200
3056.69, 0.0588700
3058.5, 0.0588000
3060.3, 0.0587300
3062.11, 0.0586600
3063.92, 0.0584500
3065.73, 0.0583100
3067.55, 0.0578900
3069.36, 0.0575400
3071.18, 0.0574000
3073.0, 0.0574000
3074.82, 0.0574700
3076.65, 0.0577500
3078.48, 0.0578200
3080.31, 0.0577500
3082.14, 0.0575400
3083.97, 0.0576100
3085.8, 0.0579600
3087.64, 0.0588700
3089.48, 0.0598500
3091.33, 0.0609700
3093.17, 0.0616700
3095.02, 0.0624400
3096.87, 0.0634200
3098.72, 0.0646800
3100.57, 0.0660100
3102.43, 0.0672000
3104.28, 0.0683200
3106.14, 0.0694400
3108.01, 0.0702100
3109.87, 0.0707700
3111.74, 0.0708400
3113.61, 0.0707700
3115.48, 0.0704200
3117.35, 0.0697900
3119.23, 0.0688800
3121.1, 0.0682500
3122.98, 0.0679700
3124.87, 0.0682500
3126.75, 0.0686000
3128.64, 0.0692300
3130.53, 0.0700000
3132.42, 0.0709800
3134.31, 0.0718900
3136.21, 0.0728000
3138.11, 0.0735700
3140.01, 0.0744100
3141.91, 0.0749700
3143.82, 0.0752500
3145.73, 0.0755300
3147.64, 0.0756700
3149.55, 0.0760200
3151.46, 0.0763700
3153.38, 0.0765800
3155.3, 0.0767900
3157.22, 0.0770000
3159.14, 0.0772800
3161.07, 0.0775600
3163.0, 0.0777700
3164.93, 0.0780500
3166.86, 0.0786800
3168.8, 0.0791000
3170.74, 0.0795900
3172.68, 0.0800100
3174.62, 0.0804300
3176.56, 0.0808500
3178.51, 0.0810600
3180.46, 0.0812700
3182.42, 0.0814800
3184.37, 0.0819000
3186.33, 0.0823200
3188.29, 0.0823900
3190.25, 0.0826700
3192.21, 0.0830900
3194.18, 0.0833000
3196.15, 0.0833700
3198.12, 0.0837200
3200.09, 0.0840700
3202.07, 0.0842100
3204.05, 0.0842800
3206.03, 0.0846300
3208.02, 0.0848400
3210.0, 0.0850500
3211.99, 0.0851900
3213.98, 0.0853300
3215.98, 0.0856100
3217.97, 0.0858900
3219.97, 0.0861000
3221.97, 0.0863800
3223.98, 0.0865200
3225.98, 0.0867300
3227.99, 0.0870100
3230.0, 0.0872900
3232.02, 0.0875000
3234.03, 0.0877100
3236.05, 0.0879900
3238.07, 0.0882700
3240.1, 0.0885500
3242.12, 0.0891100
3244.15, 0.0894600
3246.18, 0.0898100
3248.22, 0.0900200
3250.25, 0.0902300
3252.29, 0.0903000
3254.33, 0.0905100
3256.38, 0.0905800
3258.43, 0.0906500
3260.47, 0.0907900
3262.53, 0.0910000
3264.58, 0.0912800
3266.64, 0.0916300
3268.7, 0.0919100
3270.76, 0.0922600
3272.82, 0.0927500
3274.89, 0.0929600
3276.96, 0.0932400
3279.04, 0.0935900
3281.11, 0.0938700
3283.19, 0.0940800
3285.27, 0.0943600
3287.35, 0.0944300
3289.44, 0.0946400
3291.53, 0.0947100
3293.62, 0.0945700
3295.71, 0.0946400
3297.81, 0.0947800
3299.91, 0.0949200
3302.01, 0.0951300
3304.11, 0.0954800
3306.22, 0.0959700
3308.33, 0.0964600
3310.44, 0.0967400
3312.56, 0.0971600
3314.68, 0.0977200
3316.8, 0.0980700
3318.92, 0.0982800
3321.05, 0.0985600
3323.18, 0.0987700
3325.31, 0.0989100
3327.44, 0.0990500
3329.58, 0.0993300
3331.72, 0.0996800
3333.86, 0.0998900
3336.01, 0.100100
3338.16, 0.100520
3340.31, 0.100800
3342.46, 0.101150
3344.61, 0.101430
3346.77, 0.101640
3348.94, 0.102060
3351.1, 0.102550
3353.27, 0.103110
3355.44, 0.103600
3357.61, 0.104300
3359.79, 0.105000
3361.97, 0.105630
3364.15, 0.105910
3366.33, 0.105980
3368.52, 0.106260
3370.71, 0.106680
3372.9, 0.107100
3375.1, 0.107450
3377.3, 0.107800
3379.5, 0.108080
3381.71, 0.108430
3383.91, 0.108920
3386.12, 0.109410
3388.34, 0.109620
3390.55, 0.109690
3392.77, 0.109830
3394.99, 0.110040
3397.22, 0.110250
3399.45, 0.110390
3401.68, 0.110390
3403.91, 0.110600
3406.15, 0.110670
3408.39, 0.110530
3410.63, 0.110600
3412.87, 0.110880
3415.12, 0.111230
3417.37, 0.111580
3419.63, 0.112070
3421.88, 0.112770
3424.14, 0.113610
3426.41, 0.114450
3428.67, 0.115220
3430.94, 0.116130
3433.21, 0.116900
3435.49, 0.117600
3437.77, 0.118300
3440.05, 0.118930
3442.33, 0.119490
3444.62, 0.120050
3446.91, 0.120540
3449.2, 0.121100
3451.5, 0.121660
3453.8, 0.122150
3456.1, 0.122780
3458.41, 0.123200
3460.72, 0.123620
3463.03, 0.124250
3465.34, 0.124740
3467.66, 0.125230
3469.98, 0.125860
3472.31, 0.126490
3474.63, 0.127050
3476.96, 0.127540
3479.3, 0.127960
3481.64, 0.128380
3483.97, 0.128870
3486.32, 0.129220
3488.66, 0.129570
3491.01, 0.130130
3493.36, 0.130340
3495.72, 0.130760
3498.08, 0.131180
3500.44, 0.131530
3502.81, 0.132020
3505.18, 0.132650
3507.55, 0.133350
3509.92, 0.134120
3512.3, 0.134960
3514.68, 0.135660
3517.06, 0.136430
3519.45, 0.137130
3521.84, 0.137830
3524.24, 0.138460
3526.64, 0.139160
3529.04, 0.139790
3531.44, 0.140490
3533.85, 0.140980
3536.26, 0.141260
3538.67, 0.141750
3541.09, 0.142380
3543.51, 0.143010
3545.93, 0.143640
3548.36, 0.144340
3550.79, 0.144900
3553.22, 0.145530
3555.66, 0.146300
3558.1, 0.146930
3560.54, 0.147350
3562.99, 0.147980
3565.44, 0.148610
3567.9, 0.149240
3570.35, 0.149870
3572.81, 0.150430
3575.28, 0.150850
3577.75, 0.151340
3580.22, 0.152040
3582.69, 0.152880
3585.17, 0.153650
3587.65, 0.154140
3590.14, 0.154700
3592.62, 0.155400
3595.11, 0.156030
3597.61, 0.156590
3600.11, 0.157150
3602.61, 0.157710
3605.11, 0.158340
3607.62, 0.159040
3610.14, 0.159670
3612.65, 0.160300
3615.17, 0.160790
3617.69, 0.161420
3620.22, 0.161980
3622.75, 0.162610
3625.28, 0.163240
3627.82, 0.163730
3630.36, 0.164290
3632.9, 0.164780
3635.45, 0.165270
3638.0, 0.165760
3640.56, 0.166320
3643.12, 0.166950
3645.68, 0.167510
3648.24, 0.167860
3650.81, 0.168280
3653.39, 0.168630
3655.96, 0.169120
3658.54, 0.169610
3661.13, 0.170030
3663.71, 0.170380
3666.3, 0.170800
3668.9, 0.171150
3671.5, 0.171500
3674.1, 0.171780
3676.7, 0.172200
3679.31, 0.172480
3681.93, 0.172760
3684.54, 0.172970
3687.17, 0.173250
3689.79, 0.173530
3692.42, 0.173950
3695.05, 0.174370
3697.69, 0.174790
3700.32, 0.175140
3702.97, 0.175560
3705.61, 0.175980
3708.27, 0.176330
3710.92, 0.176610
3713.58, 0.177030
3716.24, 0.177310
3718.91, 0.177660
3721.58, 0.178010
3724.25, 0.178290
3726.93, 0.178570
3729.61, 0.178850
3732.29, 0.179130
3734.98, 0.179340
3737.67, 0.179620
3740.37, 0.179760
3743.07, 0.179900
3745.78, 0.180250
3748.49, 0.180320
3751.2, 0.180320
3753.91, 0.180390
3756.63, 0.180530
3759.36, 0.180810
3762.09, 0.181020
3764.82, 0.181090
3767.55, 0.181160
3770.29, 0.181160
3773.04, 0.181300
3775.78, 0.181440
3778.54, 0.181510
3781.29, 0.181580
3784.05, 0.181650
3786.82, 0.181650
3789.59, 0.181720
3792.36, 0.181650
3795.13, 0.181790
3797.92, 0.181720
3800.7, 0.181720
3803.49, 0.181720
3806.28, 0.181510
3809.08, 0.181440
3811.88, 0.181510
3814.68, 0.181510
3817.49, 0.181510
3820.31, 0.181510
3823.12, 0.181580
3825.94, 0.181440
3828.77, 0.181230
3831.6, 0.181160
3834.43, 0.181160
3837.27, 0.181090
3840.11, 0.181020
3842.96, 0.180880
3845.81, 0.180740
3848.67, 0.180600
3851.53, 0.180460
3854.39, 0.180320
3857.26, 0.179970
3860.13, 0.179410
3863.01, 0.178360
3865.89, 0.175910
3868.77, 0.171640
3871.66, 0.170520
3874.55, 0.174160
3877.45, 0.177380
3880.35, 0.178640
3883.26, 0.178850
3886.17, 0.178780
3889.09, 0.178710
3892.01, 0.178570
3894.93, 0.178360
3897.86, 0.178290
3900.79, 0.178150
3903.73, 0.177800
3906.67, 0.177450
3909.62, 0.177380
3912.57, 0.177100
3915.52, 0.176890
3918.48, 0.176680
3921.45, 0.176400
3924.42, 0.176120
3927.39, 0.175770
3930.37, 0.175490
3933.35, 0.175210
3936.34, 0.174860
3939.33, 0.174580
3942.32, 0.174230
3945.32, 0.173950
3948.33, 0.173600
3951.34, 0.173320
3954.35, 0.172970
3957.37, 0.172830
3960.39, 0.172550
3963.42, 0.172270
3966.45, 0.171920
3969.49, 0.171570
3972.53, 0.171290
3975.58, 0.171080
3978.63, 0.170870
3981.68, 0.170660
3984.75, 0.170380
3987.81, 0.170170
3990.88, 0.169960
3993.95, 0.169890
3997.03, 0.169680
4000.12, 0.169470
4003.21, 0.169190
4006.3, 0.168980
4009.4, 0.168840
4012.5, 0.168770
4015.61, 0.168490
4018.72, 0.168350
4021.84, 0.168140
4024.96, 0.167930
4028.09, 0.167650
4031.22, 0.167580
4034.36, 0.167370
4037.5, 0.167160
4040.65, 0.166880
4043.8, 0.166670
4046.96, 0.166460
4050.12, 0.166250
4053.29, 0.166040
4056.46, 0.165690
4059.64, 0.165410
4062.82, 0.165200
4066.0, 0.164780
4069.19, 0.164500
4072.39, 0.164010
4075.59, 0.163520
4078.8, 0.163310
4082.01, 0.163170
4085.23, 0.162890
4088.45, 0.162680
4091.68, 0.162540
4094.91, 0.162400
4098.15, 0.162190
4101.39, 0.161980
4104.63, 0.161770
4107.89, 0.161700
4111.14, 0.161490
4114.41, 0.161140
4117.67, 0.161000
4120.95, 0.160860
4124.23, 0.160650
4127.51, 0.160510
4130.8, 0.160440
4134.09, 0.160300
4137.39, 0.160230
4140.7, 0.160230
4144.01, 0.160370
4147.32, 0.160510
4150.64, 0.160580
4153.97, 0.160860
4157.3, 0.161280
4160.64, 0.161770
4163.98, 0.162190
4167.33, 0.162540
4170.68, 0.162890
4174.04, 0.163240
4177.4, 0.163450
4180.77, 0.163590
4184.14, 0.163660
4187.52, 0.163590
4190.91, 0.163450
4194.3, 0.163240
4197.69, 0.163030
4201.1, 0.162960
4204.5, 0.162820
4207.92, 0.162540
4211.34, 0.162190
4214.76, 0.161700
4218.19, 0.161070
4221.62, 0.160090
4225.06, 0.158900
4228.51, 0.157570
4231.96, 0.156170
4235.42, 0.154560
4238.88, 0.152880
4242.35, 0.151410
4245.83, 0.150080
4249.31, 0.148890
4252.79, 0.147700
4256.28, 0.146650
4259.78, 0.145740
4263.29, 0.144760
4266.79, 0.143780
4270.31, 0.142870
4273.83, 0.141820
4277.35, 0.140840
4280.89, 0.140070
4284.42, 0.139370
4287.97, 0.138740
4291.52, 0.138110
4295.07, 0.137410
4298.63, 0.136430
4302.2, 0.135450
4305.78, 0.134190
4309.35, 0.132230
4312.94, 0.130130
4316.53, 0.127330
4320.13, 0.123760
4323.73, 0.119910
4327.34, 0.115990
4330.96, 0.112280
4334.58, 0.108990
4338.21, 0.106260
4341.84, 0.104090
4345.48, 0.102270
4349.12, 0.100730
4352.77, 0.0995400
4356.43, 0.0983500
4360.1, 0.0973700
4363.76, 0.0966000
4367.44, 0.0959000
4371.12, 0.0953400
4374.81, 0.0951300
4378.51, 0.0954100
4382.21, 0.0962500
4385.92, 0.0974400
4389.63, 0.0986300
4393.35, 0.0998200
4397.08, 0.100800
4400.81, 0.101360
4404.55, 0.101500
4408.29, 0.101640
4412.04, 0.101430
4415.8, 0.100870
4419.57, 0.100170
4423.34, 0.0991200
4427.12, 0.0978600
4430.9, 0.0967400
4434.69, 0.0957600
4438.49, 0.0949200
4442.29, 0.0942900
4446.1, 0.0938700
4449.92, 0.0933800
4453.74, 0.0927500
4457.57, 0.0921200
4461.41, 0.0915600
4465.25, 0.0911400
4469.1, 0.0905800
4472.95, 0.0896700
4476.82, 0.0882700
4480.69, 0.0865200
4484.56, 0.0842800
4488.44, 0.0821800
4492.33, 0.0805000
4496.23, 0.0795900
4500.13, 0.0795200
4504.04, 0.0798700
4507.96, 0.0805700
4511.88, 0.0812700
4515.81, 0.0816900
4519.75, 0.0819000
4523.69, 0.0819700
4527.65, 0.0817600
4531.6, 0.0812700
4535.57, 0.0802900
4539.54, 0.0790300
4543.52, 0.0778400
4547.5, 0.0767900
4551.5, 0.0762300
4555.5, 0.0761600
4559.5, 0.0764400
4563.52, 0.0765100
4567.54, 0.0759500
4571.56, 0.0743400
4575.6, 0.0720300
4579.64, 0.0692300
4583.69, 0.0664300
4587.75, 0.0641200
4591.81, 0.0627900
4595.88, 0.0625800
4599.96, 0.0637000
4604.04, 0.0653800
4608.14, 0.0676200
4612.24, 0.0701400
4616.34, 0.0725900
4620.46, 0.0746900
4624.58, 0.0765800
4628.71, 0.0784000
4632.84, 0.0806400
4636.99, 0.0833700
4641.14, 0.0865900
4645.3, 0.0900900
4649.47, 0.0936600
4653.64, 0.0967400
4657.82, 0.0984200
4662.01, 0.0982100
4666.21, 0.0962500
4670.41, 0.0933800
4674.62, 0.0910700
4678.84, 0.0900200
4683.07, 0.0898800
4687.3, 0.0899500
4691.54, 0.0898800
4695.79, 0.0893200
4700.05, 0.0884800
4704.31, 0.0874300
4708.59, 0.0861700
4712.87, 0.0842800
4717.15, 0.0819000
4721.45, 0.0793100
4725.76, 0.0772800
4730.07, 0.0767200
4734.39, 0.0782600
4738.72, 0.0821100
4743.05, 0.0878500
4747.39, 0.0946400
4751.75, 0.101710
4756.1, 0.108710
4760.47, 0.115710
4764.85, 0.123270
4769.23, 0.131740
4773.62, 0.140840
4778.02, 0.150080
4782.43, 0.158620
4786.85, 0.165550
4791.27, 0.171010
4795.7, 0.175280
4800.14, 0.178640
4804.59, 0.181230
4809.05, 0.183400
4813.51, 0.184940
4817.99, 0.185920
4822.47, 0.186410
4826.96, 0.185920
4831.46, 0.184450
4835.96, 0.182000
4840.48, 0.178780
4845.0, 0.175980
4849.54, 0.174930
4854.08, 0.176680
4858.63, 0.180740
4863.18, 0.185430
4867.75, 0.189350
4872.33, 0.191870
4876.91, 0.193060
4881.5, 0.193550
4886.1, 0.194600
4890.71, 0.196840
4895.33, 0.199430
4899.96, 0.201600
4904.59, 0.203350
4909.24, 0.204820
4913.89, 0.205940
4918.55, 0.206710
4923.22, 0.207340
4927.9, 0.207900
4932.59, 0.208460
4937.29, 0.208950
4942.0, 0.209300
4946.71, 0.209650
4951.44, 0.209860
4956.17, 0.210140
4960.91, 0.210280
4965.67, 0.210490
4970.43, 0.210420
4975.2, 0.210420
4979.98, 0.210560
4984.76, 0.210770
4989.56, 0.210840
4994.37, 0.211050
4999.18, 0.211260
5004.01, 0.211260
5008.84, 0.211260
5013.69, 0.211260
5018.54, 0.211190
5023.4, 0.211120
5028.28, 0.211050
5033.16, 0.211050
5038.05, 0.210980
5042.95, 0.210770
5047.86, 0.210700
5052.78, 0.210630
5057.71, 0.210420
5062.65, 0.210280
5067.6, 0.209930
5072.56, 0.209580
5077.53, 0.209370
5082.5, 0.209160
5087.49, 0.208880
5092.49, 0.208670
5097.5, 0.208390
5102.51, 0.208110
5107.54, 0.207830
5112.58, 0.207550
5117.62, 0.207200
5122.68, 0.206850
5127.75, 0.206500
5132.82, 0.206290
5137.91, 0.205940
5143.01, 0.205590
5148.12, 0.205240
5153.23, 0.204960
5158.36, 0.204610
5163.5, 0.204330
5168.65, 0.203980
5173.81, 0.203770
5178.98, 0.203420
5184.15, 0.203140
5189.34, 0.202930
5194.54, 0.202720
5199.75, 0.202440
5204.98, 0.202230
5210.21, 0.202020
5215.45, 0.201740
5220.7, 0.201390
5225.96, 0.201040
5231.23, 0.200690
5236.52, 0.200410
5241.81, 0.199990
5247.12, 0.199500
5252.44, 0.198940
5257.76, 0.198450
5263.1, 0.197890
5268.45, 0.197330
5273.81, 0.196770
5279.18, 0.196280
5284.56, 0.195860
5289.95, 0.195370
5295.36, 0.194810
5300.77, 0.194320
