Database of Origin, USGS Spectral Database
Sample Description, See USGS database for additional info
Date Added,2016-08-10 02:55:18.295053

Data ID,USGS_hem08          
Sample ID, hematite_gds69.9434
Mineral Name, hematite
Material Class,Oxide

Wavelength
1434.07, 0.131721
1434.46, 0.131479
1434.86, 0.131540
1435.26, 0.131660
1435.66, 0.131721
1436.05, 0.131902
1436.45, 0.132144
1436.85, 0.131660
1437.25, 0.131358
1437.65, 0.131540
1438.05, 0.131902
1438.44, 0.132205
1438.84, 0.132205
1439.24, 0.132023
1439.64, 0.131902
1440.04, 0.132023
1440.44, 0.132205
1440.84, 0.132023
1441.24, 0.131842
1441.65, 0.131963
1442.05, 0.131781
1442.45, 0.131358
1442.85, 0.131358
1443.25, 0.131963
1443.65, 0.132325
1444.05, 0.132205
1444.46, 0.132325
1444.86, 0.132386
1445.26, 0.132205
1445.67, 0.131963
1446.07, 0.131781
1446.47, 0.132023
1446.88, 0.131902
1447.28, 0.132023
1447.68, 0.132325
1448.09, 0.132144
1448.49, 0.132023
1448.9, 0.131781
1449.3, 0.131842
1449.71, 0.131963
1450.11, 0.131963
1450.52, 0.131781
1450.93, 0.131660
1451.33, 0.131660
1451.74, 0.131781
1452.14, 0.131902
1452.55, 0.132023
1452.96, 0.131842
1453.36, 0.131781
1453.77, 0.131902
1454.18, 0.131902
1454.59, 0.131842
1455.0, 0.131902
1455.41, 0.131902
1455.81, 0.131781
1456.22, 0.131540
1456.63, 0.131600
1457.04, 0.131600
1457.45, 0.131842
1457.86, 0.132023
1458.27, 0.131721
1458.68, 0.131540
1459.09, 0.131298
1459.5, 0.131781
1459.91, 0.131842
1460.32, 0.131902
1460.74, 0.132205
1461.15, 0.132023
1461.56, 0.131600
1461.97, 0.131116
1462.39, 0.131479
1462.8, 0.131721
1463.21, 0.131721
1463.62, 0.131660
1464.04, 0.131540
1464.45, 0.131660
1464.86, 0.131963
1465.28, 0.132023
1465.69, 0.131781
1466.11, 0.131479
1466.52, 0.131721
1466.94, 0.132084
1467.35, 0.132325
1467.77, 0.131963
1468.18, 0.132084
1468.6, 0.132084
1469.02, 0.131842
1469.43, 0.131902
1469.85, 0.131842
1470.27, 0.131781
1470.68, 0.132084
1471.1, 0.132023
1471.52, 0.131902
1471.94, 0.132023
1472.35, 0.131479
1472.77, 0.131479
1473.19, 0.131963
1473.61, 0.132265
1474.03, 0.132084
1474.45, 0.131781
1474.87, 0.131781
1475.29, 0.132205
1475.71, 0.132386
1476.13, 0.132084
1476.55, 0.131600
1476.97, 0.131902
1477.39, 0.132265
1477.81, 0.132205
1478.23, 0.131902
1478.65, 0.131842
1479.07, 0.131963
1479.5, 0.131842
1479.92, 0.131842
1480.34, 0.131902
1480.76, 0.132023
1481.19, 0.132144
1481.61, 0.132205
1482.03, 0.132084
1482.46, 0.131842
1482.88, 0.132023
1483.31, 0.131963
1483.73, 0.132144
1484.16, 0.132386
1484.58, 0.132265
1485.01, 0.132265
1485.43, 0.132205
1485.86, 0.132265
1486.28, 0.132144
1486.71, 0.132023
1487.14, 0.132023
1487.56, 0.131902
1487.99, 0.132265
1488.42, 0.132688
1488.84, 0.132507
1489.27, 0.132386
1489.7, 0.132386
1490.13, 0.132567
1490.56, 0.132386
1490.98, 0.132386
1491.41, 0.132325
1491.84, 0.132325
1492.27, 0.132809
1492.7, 0.132809
1493.13, 0.132265
1493.56, 0.132144
1493.99, 0.132144
1494.42, 0.132144
1494.85, 0.131963
1495.29, 0.132144
1495.72, 0.132325
1496.15, 0.132567
1496.58, 0.132990
1497.01, 0.133051
1497.44, 0.132809
1497.88, 0.132749
1498.31, 0.132749
1498.74, 0.132869
1499.18, 0.132809
1499.61, 0.132628
1500.04, 0.132990
1500.48, 0.133051
1500.91, 0.133051
1501.35, 0.133293
1501.78, 0.133111
1502.22, 0.132869
1502.65, 0.132869
1503.09, 0.132869
1503.53, 0.132930
1503.96, 0.133051
1504.4, 0.133172
1504.83, 0.133172
1505.27, 0.133051
1505.71, 0.132930
1506.15, 0.133232
1506.58, 0.133353
1507.02, 0.133051
1507.46, 0.133111
1507.9, 0.133414
1508.34, 0.133474
1508.78, 0.133474
1509.21, 0.133353
1509.66, 0.133172
1510.09, 0.133293
1510.53, 0.133595
1510.97, 0.133534
1511.42, 0.133232
1511.86, 0.133111
1512.3, 0.133293
1512.74, 0.133595
1513.18, 0.133595
1513.62, 0.133474
1514.06, 0.133474
1514.51, 0.133474
1514.95, 0.133474
1515.39, 0.133716
1515.83, 0.133716
1516.28, 0.133595
1516.72, 0.133595
1517.16, 0.133595
1517.61, 0.133414
1518.05, 0.133353
1518.5, 0.133414
1518.94, 0.133474
1519.39, 0.133595
1519.83, 0.133776
1520.28, 0.133655
1520.73, 0.133534
1521.17, 0.133595
1521.62, 0.133776
1522.07, 0.133595
1522.51, 0.133837
1522.96, 0.134078
1523.41, 0.134018
1523.85, 0.133958
1524.3, 0.133958
1524.75, 0.134018
1525.2, 0.133837
1525.65, 0.133837
1526.1, 0.134018
1526.55, 0.134018
1527.0, 0.134018
1527.45, 0.134078
1527.9, 0.133958
1528.35, 0.133958
1528.8, 0.133958
1529.25, 0.133897
1529.7, 0.134199
1530.15, 0.134441
1530.6, 0.134018
1531.05, 0.133716
1531.51, 0.133958
1531.96, 0.134199
1532.41, 0.134320
1532.87, 0.134320
1533.32, 0.134139
1533.77, 0.134199
1534.23, 0.134078
1534.68, 0.134199
1535.14, 0.134502
1535.59, 0.134441
1536.05, 0.134623
1536.5, 0.134683
1536.96, 0.134623
1537.41, 0.134441
1537.87, 0.134743
1538.32, 0.135167
1538.78, 0.134925
1539.24, 0.134864
1539.7, 0.134683
1540.15, 0.134743
1540.61, 0.135167
1541.07, 0.135046
1541.53, 0.134925
1541.98, 0.134743
1542.44, 0.134683
1542.9, 0.134804
1543.36, 0.135227
1543.82, 0.135408
1544.28, 0.134985
1544.74, 0.134683
1545.2, 0.134925
1545.66, 0.135227
1546.12, 0.135167
1546.59, 0.135167
1547.05, 0.135227
1547.51, 0.135348
1547.97, 0.135408
1548.43, 0.135408
1548.9, 0.135408
1549.36, 0.135590
1549.82, 0.135529
1550.29, 0.135469
1550.75, 0.135711
1551.21, 0.135529
1551.68, 0.135711
1552.14, 0.135529
1552.61, 0.135287
1553.07, 0.135892
1553.54, 0.136376
1554.0, 0.136134
1554.47, 0.135892
1554.93, 0.135952
1555.4, 0.136134
1555.87, 0.135952
1556.34, 0.136073
1556.8, 0.136134
1557.27, 0.135832
1557.74, 0.135650
1558.21, 0.135952
1558.68, 0.136255
1559.14, 0.135892
1559.61, 0.135832
1560.08, 0.136013
1560.55, 0.136013
1561.02, 0.136255
1561.49, 0.136557
1561.96, 0.136436
1562.43, 0.136436
1562.9, 0.136617
1563.38, 0.136557
1563.85, 0.136315
1564.32, 0.136376
1564.79, 0.136678
1565.26, 0.136678
1565.74, 0.136436
1566.21, 0.136376
1566.68, 0.136617
1567.16, 0.136617
1567.63, 0.136376
1568.1, 0.136738
1568.58, 0.137041
1569.05, 0.137041
1569.53, 0.137101
1570.0, 0.136859
1570.48, 0.136738
1570.96, 0.136980
1571.43, 0.137282
1571.91, 0.137161
1572.39, 0.136920
1572.86, 0.137041
1573.34, 0.137222
1573.82, 0.137464
1574.3, 0.137222
1574.77, 0.136980
1575.25, 0.136920
1575.73, 0.137041
1576.21, 0.137161
1576.69, 0.137101
1577.17, 0.137101
1577.65, 0.137282
1578.13, 0.137464
1578.61, 0.137524
1579.09, 0.137464
1579.57, 0.137464
1580.05, 0.137464
1580.54, 0.137403
1581.02, 0.137282
1581.5, 0.137403
1581.98, 0.137464
1582.47, 0.137403
1582.95, 0.137585
1583.43, 0.137645
1583.92, 0.137403
1584.4, 0.137343
1584.88, 0.137464
1585.37, 0.137826
1585.85, 0.137826
1586.34, 0.137645
1586.82, 0.137766
1587.31, 0.137766
1587.8, 0.137705
1588.28, 0.137705
1588.77, 0.137826
1589.26, 0.137947
1589.74, 0.137766
1590.23, 0.138008
1590.72, 0.138008
1591.21, 0.137766
1591.7, 0.137887
1592.19, 0.138310
1592.67, 0.138491
1593.16, 0.138129
1593.65, 0.138129
1594.14, 0.138310
1594.63, 0.138431
1595.12, 0.138552
1595.61, 0.138612
1596.11, 0.138491
1596.6, 0.138189
1597.09, 0.138129
1597.58, 0.138068
1598.08, 0.138129
1598.57, 0.138431
1599.06, 0.138431
1599.55, 0.138491
1600.05, 0.138794
1600.54, 0.138854
1601.04, 0.138794
1601.53, 0.138612
1602.03, 0.138612
1602.52, 0.138794
1603.02, 0.139035
1603.51, 0.139096
1604.01, 0.139035
1604.5, 0.138914
1605.0, 0.138733
1605.5, 0.138794
1606.0, 0.138854
1606.49, 0.138914
1606.99, 0.138975
1607.49, 0.139277
1607.99, 0.139338
1608.49, 0.139338
1608.99, 0.139459
1609.49, 0.139338
1609.99, 0.139338
1610.49, 0.139519
1610.99, 0.139761
1611.49, 0.139700
1611.99, 0.139579
1612.49, 0.139700
1612.99, 0.139700
1613.49, 0.139579
1614.0, 0.139640
1614.5, 0.140003
1615.0, 0.140123
1615.51, 0.139942
1616.01, 0.139882
1616.51, 0.140063
1617.02, 0.140244
1617.52, 0.140244
1618.03, 0.140123
1618.53, 0.140184
1619.04, 0.140063
1619.54, 0.140063
1620.05, 0.140184
1620.55, 0.140244
1621.06, 0.140305
1621.57, 0.140486
1622.08, 0.140365
1622.58, 0.140184
1623.09, 0.140123
1623.6, 0.140305
1624.11, 0.140607
1624.62, 0.140547
1625.13, 0.140486
1625.64, 0.140668
1626.15, 0.140788
1626.66, 0.140970
1627.17, 0.141091
1627.68, 0.141212
1628.19, 0.141151
1628.7, 0.141393
1629.21, 0.141151
1629.72, 0.140849
1630.24, 0.140909
1630.75, 0.141212
1631.26, 0.141453
1631.78, 0.141574
1632.29, 0.141453
1632.8, 0.141393
1633.32, 0.141453
1633.83, 0.141393
1634.35, 0.141514
1634.86, 0.141695
1635.38, 0.141937
1635.9, 0.141816
1636.41, 0.141393
1636.93, 0.141272
1637.45, 0.141635
1637.96, 0.141937
1638.48, 0.141756
1639.0, 0.141816
1639.52, 0.141997
1640.04, 0.142239
1640.56, 0.142179
1641.08, 0.141997
1641.59, 0.141937
1642.11, 0.142118
1642.63, 0.142239
1643.16, 0.142239
1643.68, 0.141997
1644.2, 0.142058
1644.72, 0.142118
1645.24, 0.142179
1645.76, 0.142300
1646.29, 0.142360
1646.81, 0.142481
1647.33, 0.142421
1647.86, 0.142481
1648.38, 0.142360
1648.9, 0.142421
1649.43, 0.142481
1649.95, 0.142421
1650.48, 0.142542
1651.0, 0.142542
1651.53, 0.142542
1652.06, 0.142723
1652.58, 0.142783
1653.11, 0.142783
1653.64, 0.142904
1654.17, 0.142783
1654.69, 0.142662
1655.22, 0.142723
1655.75, 0.142783
1656.28, 0.142965
1656.81, 0.142904
1657.34, 0.143025
1657.87, 0.143086
1658.4, 0.142965
1658.93, 0.142965
1659.46, 0.142965
1659.99, 0.142844
1660.52, 0.142965
1661.05, 0.143086
1661.59, 0.143388
1662.12, 0.143690
1662.65, 0.143569
1663.19, 0.143509
1663.72, 0.143509
1664.26, 0.143509
1664.79, 0.143569
1665.32, 0.143569
1665.86, 0.143630
1666.39, 0.143630
1666.93, 0.143448
1667.47, 0.143206
1668.0, 0.143388
1668.54, 0.143690
1669.08, 0.143811
1669.61, 0.143992
1670.15, 0.143932
1670.69, 0.144174
1671.23, 0.144295
1671.77, 0.144113
1672.31, 0.144174
1672.85, 0.144476
1673.39, 0.144476
1673.93, 0.144174
1674.47, 0.144174
1675.01, 0.144174
1675.55, 0.144234
1676.09, 0.144597
1676.64, 0.144597
1677.18, 0.144355
1677.72, 0.144355
1678.26, 0.144476
1678.81, 0.144718
1679.35, 0.144839
1679.89, 0.144960
1680.44, 0.145080
1680.98, 0.145020
1681.53, 0.144960
1682.07, 0.144960
1682.62, 0.145020
1683.17, 0.145262
1683.71, 0.145201
1684.26, 0.145141
1684.81, 0.145201
1685.36, 0.145201
1685.9, 0.145201
1686.45, 0.145322
1687.0, 0.145262
1687.55, 0.145201
1688.1, 0.145201
1688.65, 0.145443
1689.2, 0.145866
1689.75, 0.145866
1690.3, 0.145866
1690.85, 0.145745
1691.41, 0.145564
1691.96, 0.145624
1692.51, 0.145866
1693.06, 0.145927
1693.61, 0.145927
1694.17, 0.145987
1694.72, 0.146048
1695.28, 0.146289
1695.83, 0.146471
1696.39, 0.146652
1696.94, 0.146350
1697.5, 0.146229
1698.05, 0.146350
1698.61, 0.146531
1699.17, 0.146531
1699.72, 0.146531
1700.28, 0.146592
1700.84, 0.146773
1701.4, 0.146713
1701.95, 0.146713
1702.51, 0.146773
1703.07, 0.146833
1703.63, 0.146833
1704.19, 0.146894
1704.75, 0.146833
1705.31, 0.146954
1705.88, 0.147136
1706.44, 0.147136
1707.0, 0.147075
1707.56, 0.146954
1708.12, 0.147075
1708.69, 0.147075
1709.25, 0.147015
1709.81, 0.147378
1710.38, 0.147559
1710.94, 0.147559
1711.51, 0.147559
1712.07, 0.147378
1712.64, 0.147619
1713.2, 0.147801
1713.77, 0.147861
1714.34, 0.147922
1714.9, 0.147922
1715.47, 0.147740
1716.04, 0.147740
1716.61, 0.147801
1717.18, 0.147982
1717.74, 0.147982
1718.31, 0.147861
1718.88, 0.147740
1719.45, 0.147740
1720.02, 0.147740
1720.59, 0.147861
1721.17, 0.147922
1721.74, 0.147982
1722.31, 0.148103
1722.88, 0.148284
1723.45, 0.148284
1724.03, 0.148103
1724.6, 0.148163
1725.18, 0.148284
1725.75, 0.148163
1726.33, 0.148466
1726.9, 0.148647
1727.48, 0.148828
1728.05, 0.148707
1728.63, 0.148466
1729.2, 0.148405
1729.78, 0.148526
1730.36, 0.148647
1730.94, 0.148768
1731.51, 0.148828
1732.09, 0.149131
1732.67, 0.149131
1733.25, 0.148889
1733.83, 0.148707
1734.41, 0.148768
1734.99, 0.148707
1735.57, 0.148768
1736.15, 0.149010
1736.73, 0.149191
1737.32, 0.149131
1737.9, 0.149191
1738.48, 0.149251
1739.07, 0.149433
1739.65, 0.149493
1740.23, 0.149372
1740.82, 0.149251
1741.4, 0.149251
1741.99, 0.149554
1742.57, 0.149856
1743.16, 0.149916
1743.74, 0.149796
1744.33, 0.149554
1744.92, 0.149735
1745.51, 0.149977
1746.09, 0.150037
1746.68, 0.150037
1747.27, 0.149856
1747.86, 0.149614
1748.45, 0.149735
1749.04, 0.150158
1749.63, 0.150521
1750.22, 0.150521
1750.81, 0.150460
1751.4, 0.150460
1751.99, 0.150460
1752.59, 0.150642
1753.18, 0.150763
1753.77, 0.150763
1754.37, 0.150823
1754.96, 0.150702
1755.56, 0.150642
1756.15, 0.150763
1756.74, 0.151065
1757.34, 0.151186
1757.94, 0.151005
1758.53, 0.150884
1759.13, 0.151125
1759.73, 0.151307
1760.32, 0.151428
1760.92, 0.151428
1761.52, 0.151488
1762.12, 0.151428
1762.72, 0.151246
1763.32, 0.151246
1763.92, 0.151307
1764.52, 0.151549
1765.12, 0.151730
1765.72, 0.151790
1766.32, 0.151730
1766.92, 0.151730
1767.53, 0.151911
1768.13, 0.152032
1768.73, 0.151851
1769.34, 0.152093
1769.94, 0.152455
1770.55, 0.152334
1771.15, 0.152334
1771.76, 0.152395
1772.36, 0.152455
1772.97, 0.152455
1773.57, 0.152516
1774.18, 0.152637
1774.79, 0.152697
1775.4, 0.152758
1776.0, 0.152878
1776.61, 0.152697
1777.22, 0.152516
1777.83, 0.152758
1778.44, 0.152999
1779.05, 0.152999
1779.66, 0.152878
1780.27, 0.152758
1780.88, 0.152878
1781.5, 0.153060
1782.11, 0.153181
1782.72, 0.153181
1783.33, 0.153362
1783.95, 0.153664
1784.56, 0.153906
1785.18, 0.153785
1785.79, 0.153725
1786.41, 0.153604
1787.02, 0.153423
1787.64, 0.153483
1788.26, 0.153543
1788.87, 0.153362
1789.49, 0.153423
1790.11, 0.153846
1790.73, 0.153906
1791.35, 0.153664
1791.96, 0.153604
1792.58, 0.153846
1793.21, 0.153967
1793.83, 0.153664
1794.45, 0.153604
1795.07, 0.153846
1795.69, 0.153785
1796.31, 0.153785
1796.93, 0.154027
1797.56, 0.154148
1798.18, 0.154329
1798.8, 0.154511
1799.43, 0.154329
1800.05, 0.154208
1800.68, 0.154269
1801.3, 0.154208
1801.93, 0.154329
1802.56, 0.154511
1803.18, 0.154329
1803.81, 0.154450
1804.44, 0.154692
1805.07, 0.154571
1805.7, 0.154632
1806.33, 0.154752
1806.95, 0.154813
1807.58, 0.154752
1808.22, 0.154873
1808.85, 0.154873
1809.48, 0.154934
1810.11, 0.155176
1810.74, 0.155236
1811.38, 0.155236
1812.01, 0.155296
1812.64, 0.155296
1813.28, 0.155236
1813.91, 0.155055
1814.55, 0.155115
1815.18, 0.155357
1815.82, 0.155417
1816.45, 0.155417
1817.09, 0.155357
1817.73, 0.155357
1818.36, 0.155599
1819.0, 0.155538
1819.64, 0.155478
1820.28, 0.155720
1820.92, 0.155780
1821.56, 0.155780
1822.2, 0.155901
1822.84, 0.156082
1823.48, 0.156203
1824.12, 0.156143
1824.76, 0.156143
1825.41, 0.156143
1826.05, 0.156385
1826.69, 0.156506
1827.34, 0.156445
1827.98, 0.156445
1828.63, 0.156445
1829.27, 0.156445
1829.92, 0.156626
1830.56, 0.156808
1831.21, 0.156868
1831.86, 0.156808
1832.5, 0.156687
1833.15, 0.156929
1833.8, 0.156989
1834.45, 0.157050
1835.1, 0.157050
1835.75, 0.157231
1836.4, 0.157412
1837.05, 0.157231
1837.7, 0.157170
1838.35, 0.157291
1839.01, 0.157412
1839.66, 0.157352
1840.31, 0.157412
1840.96, 0.157896
1841.62, 0.158077
1842.27, 0.157956
1842.93, 0.157654
1843.58, 0.157594
1844.24, 0.157835
1844.9, 0.157956
1845.55, 0.158017
1846.21, 0.158259
1846.87, 0.158259
1847.53, 0.158138
1848.18, 0.158259
1848.84, 0.158319
1849.5, 0.158259
1850.16, 0.158379
1850.82, 0.158379
1851.48, 0.158440
1852.14, 0.158621
1852.81, 0.158742
1853.47, 0.158984
1854.13, 0.159105
1854.8, 0.158924
1855.46, 0.158984
1856.12, 0.159105
1856.79, 0.159105
1857.45, 0.159044
1858.12, 0.158984
1858.79, 0.159165
1859.45, 0.159528
1860.12, 0.159588
1860.79, 0.159347
1861.46, 0.159347
1862.12, 0.159407
1862.79, 0.159468
1863.46, 0.159407
1864.13, 0.159588
1864.8, 0.159830
1865.48, 0.159770
1866.15, 0.159528
1866.82, 0.159709
1867.49, 0.160132
1868.16, 0.160072
1868.84, 0.159830
1869.51, 0.159891
1870.19, 0.159951
1870.86, 0.160012
1871.54, 0.159951
1872.21, 0.159951
1872.89, 0.160253
1873.56, 0.160374
1874.24, 0.160253
1874.92, 0.160374
1875.6, 0.160253
1876.28, 0.160012
1876.96, 0.160253
1877.64, 0.160374
1878.32, 0.160253
1879.0, 0.160314
1879.68, 0.160435
1880.36, 0.160435
1881.04, 0.160374
1881.73, 0.160193
1882.41, 0.160314
1883.09, 0.160495
1883.78, 0.160314
1884.46, 0.160253
1885.15, 0.160435
1885.83, 0.160797
1886.52, 0.160677
1887.21, 0.160495
1887.89, 0.160435
1888.58, 0.160616
1889.27, 0.160737
1889.96, 0.160858
1890.65, 0.160858
1891.34, 0.160737
1892.03, 0.160797
1892.72, 0.160737
1893.41, 0.160556
1894.1, 0.160616
1894.79, 0.160737
1895.49, 0.160737
1896.18, 0.160918
1896.87, 0.160797
1897.57, 0.160737
1898.26, 0.160737
1898.96, 0.160918
1899.65, 0.161100
1900.35, 0.160979
1901.05, 0.160737
1901.74, 0.160858
1902.44, 0.160858
1903.14, 0.160858
1903.84, 0.160918
1904.54, 0.160918
1905.24, 0.161100
1905.94, 0.161221
1906.64, 0.161221
1907.34, 0.161402
1908.04, 0.161402
1908.75, 0.161402
1909.45, 0.161221
1910.15, 0.161100
1910.86, 0.161221
1911.56, 0.161342
1912.27, 0.161402
1912.97, 0.161523
1913.68, 0.161644
1914.39, 0.161644
1915.09, 0.161583
1915.8, 0.161644
1916.51, 0.161886
1917.22, 0.162067
1917.93, 0.162309
1918.64, 0.162369
1919.35, 0.162188
1920.06, 0.162309
1920.77, 0.162430
1921.48, 0.162309
1922.19, 0.162309
1922.91, 0.162430
1923.62, 0.162490
1924.33, 0.162671
1925.05, 0.162732
1925.76, 0.162792
1926.48, 0.162853
1927.19, 0.163155
1927.91, 0.163336
1928.63, 0.163397
1929.35, 0.163457
1930.07, 0.163457
1930.78, 0.163518
1931.5, 0.163457
1932.22, 0.163457
1932.94, 0.163518
1933.66, 0.163578
1934.39, 0.163518
1935.11, 0.163639
1935.83, 0.163820
1936.55, 0.164122
1937.28, 0.164304
1938.0, 0.164304
1938.73, 0.164183
1939.45, 0.164183
1940.18, 0.164364
1940.9, 0.164424
1941.63, 0.164545
1942.36, 0.164666
1943.09, 0.164606
1943.81, 0.164727
1944.54, 0.164908
1945.27, 0.164969
1946.0, 0.164787
1946.73, 0.164727
1947.47, 0.164848
1948.2, 0.165150
1948.93, 0.165392
1949.66, 0.165331
1950.4, 0.165452
1951.13, 0.165573
1951.86, 0.165513
1952.6, 0.165633
1953.34, 0.165754
1954.07, 0.165815
1954.81, 0.165754
1955.55, 0.165875
1956.29, 0.165936
1957.02, 0.165996
1957.76, 0.165996
1958.5, 0.165996
1959.24, 0.166117
1959.98, 0.166057
1960.72, 0.166178
1961.47, 0.166238
1962.21, 0.166178
1962.95, 0.166178
1963.7, 0.166480
1964.44, 0.166661
1965.18, 0.166661
1965.93, 0.166540
1966.67, 0.166419
1967.42, 0.166480
1968.17, 0.166661
1968.92, 0.166722
1969.66, 0.166722
1970.41, 0.167024
1971.16, 0.167145
1971.91, 0.167145
1972.66, 0.167024
1973.41, 0.167145
1974.16, 0.167387
1974.92, 0.167507
1975.67, 0.167387
1976.42, 0.167326
1977.18, 0.167507
1977.93, 0.167689
1978.69, 0.167749
1979.44, 0.167749
1980.2, 0.167689
1980.95, 0.167689
1981.71, 0.167689
1982.47, 0.167870
1983.23, 0.167991
1983.99, 0.167810
1984.74, 0.167749
1985.51, 0.168051
1986.27, 0.168172
1987.03, 0.168172
1987.79, 0.168112
1988.55, 0.168293
1989.32, 0.168293
1990.08, 0.168354
1990.84, 0.168414
1991.61, 0.168414
1992.37, 0.168596
1993.14, 0.168656
1993.9, 0.168596
1994.67, 0.168535
1995.44, 0.168716
1996.21, 0.168656
1996.98, 0.168596
1997.75, 0.168716
1998.52, 0.168777
1999.29, 0.168898
2000.06, 0.169140
2000.83, 0.169442
2001.6, 0.169623
2002.38, 0.169563
2003.15, 0.169321
2003.93, 0.169381
2004.7, 0.169563
2005.48, 0.169563
2006.25, 0.169381
2007.03, 0.169563
2007.81, 0.169684
2008.58, 0.169865
2009.36, 0.169925
2010.14, 0.169865
2010.92, 0.169986
2011.7, 0.169986
2012.48, 0.170107
2013.26, 0.170349
2014.05, 0.170349
2014.83, 0.170409
2015.61, 0.170469
2016.4, 0.170530
2017.18, 0.170590
2017.97, 0.170711
2018.75, 0.170590
2019.54, 0.170711
2020.32, 0.170953
2021.11, 0.171074
2021.9, 0.171014
2022.69, 0.171074
2023.48, 0.171074
2024.27, 0.171376
2025.06, 0.171618
2025.85, 0.171437
2026.64, 0.171376
2027.44, 0.171558
2028.23, 0.171678
2029.02, 0.171860
2029.82, 0.172162
2030.61, 0.172464
2031.41, 0.172464
2032.2, 0.172283
2033.0, 0.171981
2033.8, 0.172041
2034.6, 0.172464
2035.4, 0.172585
2036.2, 0.172706
2037.0, 0.172948
2037.8, 0.172888
2038.6, 0.172767
2039.4, 0.173008
2040.2, 0.173069
2041.01, 0.173129
2041.81, 0.173311
2042.61, 0.173250
2043.42, 0.173250
2044.22, 0.173250
2045.03, 0.173432
2045.84, 0.173492
2046.65, 0.173492
2047.46, 0.173492
2048.26, 0.173794
2049.07, 0.173794
2049.88, 0.173794
2050.69, 0.173915
2051.51, 0.174036
2052.32, 0.174157
2053.13, 0.174217
2053.94, 0.174157
2054.76, 0.174157
2055.57, 0.174278
2056.39, 0.174338
2057.2, 0.174641
2058.02, 0.174882
2058.84, 0.174822
2059.66, 0.174701
2060.48, 0.174822
2061.29, 0.174701
2062.11, 0.174580
2062.94, 0.174701
2063.76, 0.174761
2064.58, 0.174882
2065.4, 0.175124
2066.22, 0.175185
2067.05, 0.175064
2067.87, 0.175366
2068.7, 0.175487
2069.52, 0.175426
2070.35, 0.175366
2071.18, 0.175366
2072.0, 0.175426
2072.83, 0.175426
2073.66, 0.175426
2074.49, 0.175487
2075.32, 0.175608
2076.15, 0.175608
2076.98, 0.175608
2077.82, 0.175729
2078.65, 0.175789
2079.48, 0.175789
2080.32, 0.175729
2081.15, 0.176031
2081.99, 0.176212
2082.83, 0.176152
2083.66, 0.176152
2084.5, 0.176273
2085.34, 0.176454
2086.18, 0.176454
2087.02, 0.176394
2087.86, 0.176394
2088.7, 0.176454
2089.54, 0.176515
2090.39, 0.176575
2091.23, 0.176696
2092.07, 0.176635
2092.92, 0.176635
2093.76, 0.176817
2094.61, 0.176998
2095.45, 0.177119
2096.3, 0.177119
2097.15, 0.177059
2098.0, 0.176998
2098.85, 0.177059
2099.7, 0.177179
2100.55, 0.177361
2101.4, 0.177603
2102.25, 0.177663
2103.1, 0.177542
2103.96, 0.177482
2104.81, 0.177603
2105.67, 0.177844
2106.52, 0.177905
2107.38, 0.178026
2108.24, 0.178086
2109.09, 0.178086
2109.95, 0.177965
2110.81, 0.178147
2111.67, 0.178268
2112.53, 0.178328
2113.39, 0.178388
2114.25, 0.178268
2115.12, 0.178328
2115.98, 0.178388
2116.84, 0.178388
2117.71, 0.178570
2118.58, 0.178812
2119.44, 0.178933
2120.31, 0.179114
2121.18, 0.179295
2122.04, 0.179295
2122.91, 0.179295
2123.78, 0.179295
2124.65, 0.179416
2125.52, 0.179597
2126.4, 0.179658
2127.27, 0.179658
2128.14, 0.179537
2129.02, 0.179658
2129.89, 0.179960
2130.77, 0.180142
2131.64, 0.180081
2132.52, 0.180142
2133.4, 0.180323
2134.27, 0.180383
2135.15, 0.180383
2136.03, 0.180565
2136.91, 0.180565
2137.79, 0.180625
2138.68, 0.180625
2139.56, 0.180746
2140.44, 0.180806
2141.33, 0.180988
2142.21, 0.181230
2143.1, 0.181230
2143.99, 0.181109
2144.87, 0.181290
2145.76, 0.181471
2146.65, 0.181471
2147.54, 0.181471
2148.43, 0.181713
2149.32, 0.181774
2150.21, 0.181955
2151.1, 0.182136
2151.99, 0.182076
2152.89, 0.182015
2153.78, 0.182257
2154.68, 0.182257
2155.57, 0.182136
2156.47, 0.182318
2157.37, 0.182620
2158.27, 0.182801
2159.16, 0.182801
2160.06, 0.182922
2160.96, 0.183104
2161.86, 0.183164
2162.77, 0.183104
2163.67, 0.183104
2164.57, 0.183164
2165.48, 0.183224
2166.38, 0.183406
2167.29, 0.183466
2168.2, 0.183587
2169.1, 0.183648
2170.01, 0.183708
2170.92, 0.183648
2171.83, 0.183648
2172.74, 0.183829
2173.65, 0.183708
2174.56, 0.183769
2175.47, 0.183950
2176.39, 0.183950
2177.3, 0.183889
2178.22, 0.184131
2179.13, 0.184313
2180.05, 0.184192
2180.96, 0.184010
2181.88, 0.183950
2182.8, 0.184131
2183.72, 0.184373
2184.64, 0.184554
2185.56, 0.184615
2186.48, 0.184554
2187.41, 0.184615
2188.33, 0.184675
2189.25, 0.184736
2190.18, 0.184857
2191.1, 0.184917
2192.03, 0.184978
2192.96, 0.184978
2193.89, 0.185038
2194.82, 0.185159
2195.74, 0.185159
2196.68, 0.185280
2197.61, 0.185401
2198.54, 0.185461
2199.47, 0.185401
2200.4, 0.185280
2201.34, 0.185340
2202.28, 0.185461
2203.21, 0.185340
2204.15, 0.185401
2205.08, 0.185642
2206.02, 0.185703
2206.96, 0.185642
2207.9, 0.185582
2208.84, 0.185824
2209.78, 0.186005
2210.73, 0.186126
2211.67, 0.186187
2212.61, 0.186066
2213.56, 0.186005
2214.5, 0.186126
2215.45, 0.186126
2216.4, 0.186066
2217.35, 0.186187
2218.3, 0.186489
2219.24, 0.186428
2220.2, 0.186489
2221.15, 0.186670
2222.1, 0.186670
2223.05, 0.186851
2224.0, 0.186972
2224.96, 0.186912
2225.91, 0.186972
2226.87, 0.187033
2227.83, 0.187093
2228.79, 0.187154
2229.74, 0.187275
2230.7, 0.187456
2231.66, 0.187456
2232.63, 0.187456
2233.59, 0.187577
2234.55, 0.187758
2235.51, 0.187879
2236.48, 0.187879
2237.44, 0.187879
2238.41, 0.188000
2239.38, 0.188121
2240.34, 0.188363
2241.31, 0.188423
2242.28, 0.188484
2243.25, 0.188484
2244.22, 0.188544
2245.19, 0.188544
2246.17, 0.188544
2247.14, 0.188725
2248.12, 0.188725
2249.09, 0.188907
2250.07, 0.189088
2251.04, 0.189149
2252.02, 0.189390
2253.0, 0.189572
2253.98, 0.189572
2254.96, 0.189572
2255.94, 0.189693
2256.92, 0.189753
2257.91, 0.189814
2258.89, 0.189874
2259.88, 0.189934
2260.86, 0.190055
2261.85, 0.190237
2262.83, 0.190478
2263.82, 0.190539
2264.81, 0.190599
2265.8, 0.190720
2266.79, 0.190660
2267.78, 0.190720
2268.78, 0.190781
2269.77, 0.190902
2270.76, 0.191143
2271.76, 0.191204
2272.75, 0.191264
2273.75, 0.191385
2274.75, 0.191506
2275.75, 0.191808
2276.75, 0.191929
2277.75, 0.191929
2278.75, 0.191990
2279.75, 0.192171
2280.75, 0.192111
2281.76, 0.191990
2282.76, 0.192171
2283.77, 0.192473
2284.77, 0.192655
2285.78, 0.192715
2286.79, 0.192655
2287.8, 0.192715
2288.81, 0.192836
2289.82, 0.192836
2290.83, 0.193017
2291.84, 0.193017
2292.86, 0.193078
2293.87, 0.193199
2294.89, 0.193320
2295.91, 0.193199
2296.92, 0.193138
2297.94, 0.193138
2298.96, 0.193380
2299.98, 0.193622
2301.0, 0.193501
2302.02, 0.193561
2303.04, 0.193803
2304.07, 0.194045
2305.09, 0.193924
2306.12, 0.193803
2307.15, 0.193743
2308.17, 0.193743
2309.2, 0.193864
2310.23, 0.193985
2311.26, 0.194166
2312.29, 0.194166
2313.32, 0.194106
2314.35, 0.194347
2315.39, 0.194589
2316.42, 0.194650
2317.46, 0.194650
2318.5, 0.194589
2319.53, 0.194529
2320.57, 0.194589
2321.61, 0.194529
2322.65, 0.194840
2323.69, 0.195151
2324.73, 0.195384
2325.78, 0.195306
2326.82, 0.195617
2327.86, 0.195695
2328.91, 0.195617
2329.96, 0.196006
2331.01, 0.196317
2332.05, 0.196472
2333.1, 0.196550
2334.15, 0.196084
2335.21, 0.196084
2336.26, 0.195850
2337.31, 0.196006
2338.36, 0.196706
2339.42, 0.197094
2340.48, 0.197172
2341.53, 0.197094
2342.59, 0.197017
2343.65, 0.197094
2344.71, 0.196861
2345.77, 0.196706
2346.83, 0.197017
2347.9, 0.197639
2348.96, 0.197950
2350.02, 0.198105
2351.09, 0.198416
2352.16, 0.198261
2353.23, 0.197716
2354.29, 0.197561
2355.36, 0.197483
2356.43, 0.198105
2357.51, 0.198416
2358.58, 0.198494
2359.65, 0.198805
2360.73, 0.198727
2361.8, 0.198727
2362.88, 0.198494
2363.96, 0.198649
2365.03, 0.199427
2366.11, 0.199660
2367.19, 0.199816
2368.27, 0.200282
2369.36, 0.200515
2370.44, 0.200515
2371.53, 0.200360
2372.61, 0.200127
2373.7, 0.199893
2374.78, 0.199738
2375.87, 0.200204
2376.96, 0.200515
2378.05, 0.200593
2379.14, 0.200515
2380.24, 0.200826
2381.33, 0.201060
2382.42, 0.201293
2383.52, 0.201448
2384.61, 0.201915
2385.71, 0.202070
2386.81, 0.201759
2387.91, 0.201526
2389.01, 0.201215
2390.11, 0.201448
2391.22, 0.201915
2392.32, 0.202304
2393.42, 0.202615
2394.53, 0.203237
2395.64, 0.203081
2396.74, 0.202848
2397.85, 0.203081
2398.96, 0.203003
2400.07, 0.203081
2401.18, 0.203237
2402.3, 0.203237
2403.41, 0.203237
2404.52, 0.202926
2405.64, 0.203159
2406.76, 0.203781
2407.88, 0.204014
2408.99, 0.203781
2410.11, 0.203936
2411.23, 0.204170
2412.36, 0.204403
2413.48, 0.204481
2414.6, 0.204558
2415.73, 0.204636
2416.85, 0.204792
2417.98, 0.205025
2419.11, 0.205103
2420.24, 0.205258
2421.37, 0.205258
2422.5, 0.205414
2423.64, 0.205336
2424.77, 0.205103
2425.9, 0.205414
2427.04, 0.206036
2428.18, 0.206269
2429.31, 0.205958
2430.45, 0.205880
2431.59, 0.206113
2432.73, 0.206113
2433.88, 0.206191
2435.02, 0.206735
2436.16, 0.206891
2437.31, 0.206580
2438.45, 0.206735
2439.6, 0.206813
2440.75, 0.206891
2441.9, 0.207046
2443.05, 0.207280
2444.2, 0.207668
2445.35, 0.207824
2446.51, 0.207591
2447.67, 0.207513
2448.82, 0.207824
2449.98, 0.207979
2451.14, 0.208057
2452.3, 0.208213
2453.46, 0.208524
2454.62, 0.208912
2455.78, 0.208601
2456.94, 0.208135
2458.11, 0.208601
2459.28, 0.209301
2460.44, 0.209146
2461.61, 0.208912
2462.78, 0.208912
2463.95, 0.209223
2465.12, 0.209768
2466.3, 0.209923
2467.47, 0.209845
2468.65, 0.210079
2469.82, 0.210234
2471.0, 0.210390
2472.18, 0.210467
2473.36, 0.210778
2474.54, 0.211011
2475.72, 0.211011
2476.9, 0.211089
2478.08, 0.210934
2479.27, 0.211011
2480.46, 0.210778
2481.64, 0.211089
2482.83, 0.211245
2484.02, 0.211400
2485.21, 0.211633
2486.4, 0.211400
2487.6, 0.211633
2488.79, 0.211711
2489.99, 0.212022
2491.18, 0.212100
2492.38, 0.211867
2493.58, 0.211789
2494.78, 0.211867
2495.98, 0.212100
2497.18, 0.212178
2498.39, 0.212255
2499.59, 0.212489
2500.8, 0.212644
2502.01, 0.212800
2503.21, 0.213422
2504.42, 0.213655
2505.63, 0.213266
2506.84, 0.213266
2508.06, 0.213188
2509.27, 0.213111
2510.49, 0.213577
2511.7, 0.213733
2512.92, 0.213733
2514.14, 0.213810
2515.36, 0.213655
2516.58, 0.213577
2517.8, 0.213733
2519.03, 0.214199
2520.25, 0.214510
2521.48, 0.214432
2522.7, 0.214588
2523.93, 0.214977
2525.16, 0.214743
2526.39, 0.215054
2527.62, 0.215365
2528.86, 0.215210
2530.09, 0.215054
2531.33, 0.215754
2532.56, 0.215832
2533.8, 0.215832
2535.04, 0.216221
2536.28, 0.216376
2537.52, 0.216221
2538.76, 0.216221
2540.01, 0.216298
2541.25, 0.216454
2542.5, 0.216843
2543.75, 0.216998
2544.99, 0.216920
2546.24, 0.217154
2547.49, 0.217309
2548.75, 0.217542
2550.0, 0.217931
2551.26, 0.218164
2552.51, 0.218242
2553.77, 0.218242
2555.03, 0.218009
2556.29, 0.217853
2557.55, 0.217698
2558.81, 0.217931
2560.08, 0.219020
2561.34, 0.220264
2562.61, 0.220030
2563.88, 0.219719
2565.14, 0.219408
2566.41, 0.218864
2567.68, 0.219253
2568.96, 0.220264
2570.23, 0.220419
2571.51, 0.219719
2572.78, 0.220497
2574.06, 0.221197
2575.34, 0.220808
2576.62, 0.221352
2577.9, 0.221041
2579.18, 0.220652
2580.47, 0.221041
2581.75, 0.221508
2583.04, 0.222285
2584.32, 0.222829
2585.61, 0.221819
2586.9, 0.221819
2588.2, 0.221819
2589.49, 0.221741
2590.78, 0.221274
2592.08, 0.221041
2593.37, 0.223374
2594.67, 0.226561
2595.97, 0.225473
2597.27, 0.223063
2598.57, 0.221741
2599.88, 0.221585
2601.18, 0.222674
2602.49, 0.223063
2603.79, 0.223296
2605.1, 0.224540
2606.41, 0.224462
2607.72, 0.223685
2609.03, 0.223451
2610.35, 0.223063
2611.66, 0.222674
2612.98, 0.222752
2614.3, 0.222829
2615.62, 0.223840
2616.94, 0.225240
2618.26, 0.224384
2619.58, 0.224695
2620.91, 0.225240
2622.23, 0.223451
2623.56, 0.223063
2624.89, 0.223607
2626.22, 0.224851
2627.55, 0.224929
2628.88, 0.224384
2630.21, 0.225628
2631.55, 0.225551
2632.89, 0.224773
2634.22, 0.224773
2635.56, 0.223996
2636.9, 0.223685
2638.25, 0.223840
2639.59, 0.223840
2640.93, 0.223918
2642.28, 0.224151
2643.63, 0.224307
2644.98, 0.224618
2646.33, 0.224462
2647.68, 0.224384
2649.03, 0.224229
2650.39, 0.224151
2651.74, 0.224695
2653.1, 0.225162
2654.46, 0.224773
2655.82, 0.224695
2657.18, 0.224307
2658.54, 0.224695
2659.9, 0.225006
2661.27, 0.224851
2662.64, 0.224773
2664.01, 0.226095
2665.38, 0.227805
2666.74, 0.227650
2668.12, 0.226017
2669.49, 0.226484
2670.87, 0.227650
2672.24, 0.225162
2673.62, 0.223996
2675.0, 0.224307
2676.38, 0.225473
2677.76, 0.225240
2679.15, 0.224229
2680.54, 0.222752
2681.92, 0.221741
2683.31, 0.221585
2684.7, 0.220652
2686.09, 0.220108
2687.48, 0.219564
2688.88, 0.218320
2690.27, 0.216609
2691.67, 0.215832
2693.07, 0.215910
2694.47, 0.215132
2695.87, 0.212955
2697.27, 0.210623
2698.67, 0.208757
2700.08, 0.207668
2701.49, 0.206269
2702.9, 0.204014
2704.31, 0.201759
2705.72, 0.200438
2707.13, 0.199271
2708.54, 0.198805
2709.96, 0.198572
2711.38, 0.197716
2712.8, 0.195151
2714.22, 0.193518
2715.64, 0.192429
2717.06, 0.191263
2718.49, 0.189941
2719.91, 0.189864
2721.34, 0.188931
2722.77, 0.186598
2724.2, 0.185898
2725.63, 0.183955
2727.07, 0.181156
2728.5, 0.178901
2729.94, 0.176880
2731.38, 0.175325
2732.82, 0.174081
2734.26, 0.173225
2735.7, 0.171204
2737.15, 0.168871
2738.59, 0.167938
2740.04, 0.167083
2741.49, 0.164440
2742.94, 0.161563
2744.39, 0.159230
2745.84, 0.157442
2747.3, 0.155887
2748.76, 0.154332
2750.21, 0.152544
2751.67, 0.151067
2753.14, 0.150134
2754.6, 0.150212
2756.06, 0.149123
2757.53, 0.146480
2759.0, 0.144925
2760.46, 0.144069
2761.94, 0.143603
2763.41, 0.142981
2764.88, 0.141970
2766.36, 0.141270
2767.83, 0.140882
2769.31, 0.140337
2770.79, 0.139793
2772.27, 0.138860
2773.76, 0.138005
2775.24, 0.137305
2776.73, 0.136683
2778.22, 0.135906
2779.71, 0.135361
2781.2, 0.135050
2782.69, 0.134584
2784.18, 0.134351
2785.68, 0.134895
2787.18, 0.135672
2788.68, 0.135517
2790.18, 0.135128
2791.68, 0.135284
2793.19, 0.135517
2794.69, 0.135595
2796.2, 0.135983
2797.71, 0.136139
2799.22, 0.136139
2800.73, 0.136528
2802.24, 0.136761
2803.76, 0.136761
2805.28, 0.136450
2806.8, 0.136294
2808.32, 0.136061
2809.84, 0.135595
2811.36, 0.135361
2812.89, 0.135050
2814.42, 0.135128
2815.94, 0.135050
2817.48, 0.134817
2819.01, 0.134739
2820.54, 0.134662
2822.08, 0.134351
2823.61, 0.133884
2825.15, 0.133651
2826.69, 0.133418
2828.23, 0.133262
2829.78, 0.133262
2831.32, 0.133262
2832.87, 0.133184
2834.42, 0.132796
2835.97, 0.132407
2837.52, 0.132174
2839.08, 0.131629
2840.63, 0.131008
2842.19, 0.130619
2843.75, 0.130619
2845.31, 0.130386
2846.87, 0.129997
2848.44, 0.129686
2850.0, 0.129375
2851.57, 0.128831
2853.14, 0.128675
2854.71, 0.128597
2856.28, 0.128209
2857.86, 0.127664
2859.43, 0.127353
2861.01, 0.127120
2862.59, 0.126809
2864.17, 0.126498
2865.76, 0.126032
2867.34, 0.125876
2868.93, 0.125876
2870.52, 0.125487
2872.11, 0.125021
2873.7, 0.124943
2875.29, 0.124554
2876.89, 0.124243
2878.49, 0.123777
2880.08, 0.123621
2881.69, 0.123544
2883.29, 0.123233
2884.89, 0.123155
2886.5, 0.122922
2888.11, 0.122766
2889.72, 0.122611
2891.33, 0.122766
2892.94, 0.122688
2894.56, 0.122300
2896.17, 0.122066
2897.79, 0.122066
2899.42, 0.122066
2901.04, 0.121755
2902.66, 0.121444
2904.29, 0.121522
2905.92, 0.121755
2907.55, 0.121600
2909.18, 0.121600
2910.81, 0.121678
2912.45, 0.122066
2914.08, 0.122066
2915.72, 0.121755
2917.36, 0.121522
2919.01, 0.121522
2920.65, 0.121755
2922.3, 0.121989
2923.94, 0.121833
2925.59, 0.121911
2927.25, 0.122066
2928.9, 0.121911
2930.56, 0.121911
2932.21, 0.121833
2933.87, 0.121833
2935.53, 0.122144
2937.2, 0.122144
2938.86, 0.122377
2940.53, 0.122533
2942.2, 0.122377
2943.87, 0.122533
2945.54, 0.122999
2947.22, 0.123155
2948.89, 0.123077
2950.57, 0.123388
2952.25, 0.123699
2953.93, 0.123855
2955.62, 0.124088
2957.3, 0.124399
2958.99, 0.124632
2960.68, 0.124788
2962.37, 0.125021
2964.07, 0.125099
2965.76, 0.125254
2967.46, 0.125798
2969.16, 0.126109
2970.86, 0.126109
2972.56, 0.126187
2974.27, 0.126576
2975.98, 0.127042
2977.69, 0.127198
2979.4, 0.127431
2981.11, 0.127509
2982.83, 0.127742
2984.54, 0.128053
2986.26, 0.128286
2987.98, 0.128520
2989.71, 0.128831
2991.43, 0.129219
2993.16, 0.129375
2994.89, 0.129608
2996.62, 0.129841
2998.35, 0.129997
3000.09, 0.130152
3001.83, 0.130541
3003.57, 0.130852
3005.31, 0.131318
3007.05, 0.131629
3008.79, 0.131785
3010.54, 0.132174
3012.29, 0.132562
3014.04, 0.132718
3015.8, 0.132796
3017.55, 0.132951
3019.31, 0.133495
3021.07, 0.134040
3022.83, 0.134195
3024.59, 0.134428
3026.36, 0.134817
3028.13, 0.135050
3029.9, 0.135439
3031.67, 0.135906
3033.44, 0.135983
3035.22, 0.135906
3037.0, 0.136061
3038.78, 0.136605
3040.56, 0.136994
3042.34, 0.136994
3044.13, 0.137072
3045.92, 0.137616
3047.71, 0.137849
3049.5, 0.137927
3051.3, 0.138160
3053.09, 0.138238
3054.89, 0.138471
3056.69, 0.138938
3058.5, 0.139327
3060.3, 0.139482
3062.11, 0.139793
3063.92, 0.139949
3065.73, 0.139949
3067.55, 0.140104
3069.36, 0.140493
3071.18, 0.140726
3073.0, 0.141115
3074.82, 0.141426
3076.65, 0.141581
3078.48, 0.142048
3080.31, 0.142437
3082.14, 0.142437
3083.97, 0.142670
3085.8, 0.143136
3087.64, 0.143370
3089.48, 0.143681
3091.33, 0.143992
3093.17, 0.144303
3095.02, 0.144614
3096.87, 0.144847
3098.72, 0.145158
3100.57, 0.145469
3102.43, 0.145702
3104.28, 0.146246
3106.14, 0.146791
3108.01, 0.147257
3109.87, 0.147724
3111.74, 0.148268
3113.61, 0.148423
3115.48, 0.148657
3117.35, 0.149123
3119.23, 0.149434
3121.1, 0.149823
3122.98, 0.150367
3124.87, 0.150834
3126.75, 0.151145
3128.64, 0.151689
3130.53, 0.152233
3132.42, 0.152544
3134.31, 0.153088
3136.21, 0.153710
3138.11, 0.154099
3140.01, 0.154255
3141.91, 0.154566
3143.82, 0.155265
3145.73, 0.155732
3147.64, 0.156276
3149.55, 0.156820
3151.46, 0.157131
3153.38, 0.157676
3155.3, 0.158297
3157.22, 0.158919
3159.14, 0.159230
3161.07, 0.159619
3163.0, 0.160163
3164.93, 0.160785
3166.86, 0.161174
3168.8, 0.161407
3170.74, 0.161874
3172.68, 0.162340
3174.62, 0.162885
3176.56, 0.163429
3178.51, 0.163740
3180.46, 0.164440
3182.42, 0.165062
3184.37, 0.165450
3186.33, 0.165839
3188.29, 0.166306
3190.25, 0.166850
3192.21, 0.167394
3194.18, 0.167705
3196.15, 0.168172
3198.12, 0.168560
3200.09, 0.169182
3202.07, 0.169727
3204.05, 0.170115
3206.03, 0.170737
3208.02, 0.171048
3210.0, 0.171282
3211.99, 0.171904
3213.98, 0.172759
3215.98, 0.173225
3217.97, 0.173536
3219.97, 0.173925
3221.97, 0.174392
3223.98, 0.174858
3225.98, 0.175247
3227.99, 0.175947
3230.0, 0.176491
3232.02, 0.176724
3234.03, 0.177113
3236.05, 0.177735
3238.07, 0.178201
3240.1, 0.178590
3242.12, 0.179290
3244.15, 0.179834
3246.18, 0.180301
3248.22, 0.180767
3250.25, 0.181234
3252.29, 0.181467
3254.33, 0.181778
3256.38, 0.182322
3258.43, 0.183100
3260.47, 0.183721
3262.53, 0.183955
3264.58, 0.184343
3266.64, 0.185043
3268.7, 0.185743
3270.76, 0.186054
3272.82, 0.186287
3274.89, 0.186831
3276.96, 0.187376
3279.04, 0.187998
3281.11, 0.188464
3283.19, 0.188853
3285.27, 0.189319
3287.35, 0.189786
3289.44, 0.190252
3291.53, 0.190641
3293.62, 0.191185
3295.71, 0.191730
3297.81, 0.192274
3299.91, 0.192818
3302.01, 0.193129
3304.11, 0.193518
3306.22, 0.194062
3308.33, 0.194451
3310.44, 0.194840
3312.56, 0.195228
3314.68, 0.195773
3316.8, 0.196395
3318.92, 0.196706
3321.05, 0.197017
3323.18, 0.197561
3325.31, 0.197950
3327.44, 0.198416
3329.58, 0.198883
3331.72, 0.199271
3333.86, 0.199738
3336.01, 0.200204
3338.16, 0.200749
3340.31, 0.201215
3342.46, 0.201448
3344.61, 0.201682
3346.77, 0.202148
3348.94, 0.202459
3351.1, 0.203003
3353.27, 0.203237
3355.44, 0.203470
3357.61, 0.203859
3359.79, 0.204014
3361.97, 0.204170
3364.15, 0.204481
3366.33, 0.204636
3368.52, 0.204636
3370.71, 0.204792
3372.9, 0.204947
3375.1, 0.205336
3377.3, 0.205725
3379.5, 0.206191
3381.71, 0.206813
3383.91, 0.207357
3386.12, 0.207824
3388.34, 0.208524
3390.55, 0.208990
3392.77, 0.209223
3394.99, 0.209223
3397.22, 0.209301
3399.45, 0.209534
3401.68, 0.209768
3403.91, 0.209845
3406.15, 0.209923
3408.39, 0.210156
3410.63, 0.210545
3412.87, 0.211011
3415.12, 0.211556
3417.37, 0.212100
3419.63, 0.212566
3421.88, 0.213344
3424.14, 0.214277
3426.41, 0.215132
3428.67, 0.215910
3430.94, 0.216687
3433.21, 0.217309
3435.49, 0.217931
3437.77, 0.218709
3440.05, 0.219331
3442.33, 0.219953
3444.62, 0.220497
3446.91, 0.220886
3449.2, 0.221352
3451.5, 0.221974
3453.8, 0.222518
3456.1, 0.222907
3458.41, 0.223451
3460.72, 0.223996
3463.03, 0.224695
3465.34, 0.224929
3467.66, 0.225084
3469.98, 0.225395
3472.31, 0.225784
3474.63, 0.226173
3476.96, 0.226639
3479.3, 0.227261
3481.64, 0.227805
3483.97, 0.228116
3486.32, 0.228194
3488.66, 0.228427
3491.01, 0.228738
3493.36, 0.229049
3495.72, 0.229360
3498.08, 0.229594
3500.44, 0.229982
3502.81, 0.230604
3505.18, 0.231304
3507.55, 0.232004
3509.92, 0.232781
3512.3, 0.233481
3514.68, 0.234181
3517.06, 0.234881
3519.45, 0.235580
3521.84, 0.236047
3524.24, 0.236591
3526.64, 0.237135
3529.04, 0.237446
3531.44, 0.237990
3533.85, 0.238457
3536.26, 0.238690
3538.67, 0.239157
3541.09, 0.239623
3543.51, 0.240090
3545.93, 0.240634
3548.36, 0.241100
3550.79, 0.241334
3553.22, 0.241722
3555.66, 0.242267
3558.1, 0.242655
3560.54, 0.243122
3562.99, 0.243588
3565.44, 0.243899
3567.9, 0.244366
3570.35, 0.244910
3572.81, 0.245299
3575.28, 0.245843
3577.75, 0.246310
3580.22, 0.246854
3582.69, 0.247243
3585.17, 0.247709
3587.65, 0.248098
3590.14, 0.248253
3592.62, 0.248564
3595.11, 0.249031
3597.61, 0.249264
3600.11, 0.249497
3602.61, 0.249886
3605.11, 0.250430
3607.62, 0.250975
3610.14, 0.251519
3612.65, 0.251985
3615.17, 0.252530
3617.69, 0.253074
3620.22, 0.253463
3622.75, 0.253774
3625.28, 0.254085
3627.82, 0.254473
3630.36, 0.254940
3632.9, 0.255406
3635.45, 0.255717
3638.0, 0.256106
3640.56, 0.256417
3643.12, 0.256884
3645.68, 0.257195
3648.24, 0.257506
3650.81, 0.257817
3653.39, 0.258205
3655.96, 0.258594
3658.54, 0.258827
3661.13, 0.259294
3663.71, 0.259605
3666.3, 0.259916
3668.9, 0.260382
3671.5, 0.260771
3674.1, 0.261082
3676.7, 0.261393
3679.31, 0.261704
3681.93, 0.262093
3684.54, 0.262404
3687.17, 0.262715
3689.79, 0.263181
3692.42, 0.263492
3695.05, 0.263959
3697.69, 0.264425
3700.32, 0.264814
3702.97, 0.265125
3705.61, 0.265436
3708.27, 0.265902
3710.92, 0.266291
3713.58, 0.266758
3716.24, 0.267146
3718.91, 0.267457
3721.58, 0.267924
3724.25, 0.268235
3726.93, 0.268313
3729.61, 0.268701
3732.29, 0.269323
3734.98, 0.269790
3737.67, 0.270179
3740.37, 0.270490
3743.07, 0.270878
3745.78, 0.271345
3748.49, 0.271656
3751.2, 0.272045
3753.91, 0.272511
3756.63, 0.272667
3759.36, 0.272744
3762.09, 0.273133
3764.82, 0.273444
3767.55, 0.273755
3770.29, 0.274066
3773.04, 0.274455
3775.78, 0.274844
3778.54, 0.275077
3781.29, 0.275310
3784.05, 0.275621
3786.82, 0.275932
3789.59, 0.276321
3792.36, 0.276476
3795.13, 0.276554
3797.92, 0.276787
3800.7, 0.277021
3803.49, 0.277332
3806.28, 0.277565
3809.08, 0.277798
3811.88, 0.278109
3814.68, 0.278420
3817.49, 0.278653
3820.31, 0.278731
3823.12, 0.278964
3825.94, 0.279198
3828.77, 0.279431
3831.6, 0.279742
3834.43, 0.279975
3837.27, 0.280208
3840.11, 0.280442
3842.96, 0.280675
3845.81, 0.280908
3848.67, 0.281064
3851.53, 0.281141
3854.39, 0.281375
3857.26, 0.281608
3860.13, 0.281997
3863.01, 0.282230
3865.89, 0.282385
3868.77, 0.282619
3871.66, 0.282930
3874.55, 0.283007
3877.45, 0.283163
3880.35, 0.283318
3883.26, 0.283474
3886.17, 0.283629
3889.09, 0.283707
3892.01, 0.283940
3894.93, 0.284251
3897.86, 0.284640
3900.79, 0.284640
3903.73, 0.284796
3906.67, 0.284873
3909.62, 0.285029
3912.57, 0.285340
3915.52, 0.285418
3918.48, 0.285573
3921.45, 0.285729
3924.42, 0.285884
3927.39, 0.286117
3930.37, 0.286195
3933.35, 0.286273
3936.34, 0.286351
3939.33, 0.286428
3942.32, 0.286584
3945.32, 0.286739
3948.33, 0.286973
3951.34, 0.287050
3954.35, 0.287284
3957.37, 0.287517
3960.39, 0.287594
3963.42, 0.287750
3966.45, 0.287828
3969.49, 0.287983
3972.53, 0.288061
3975.58, 0.288139
3978.63, 0.288217
3981.68, 0.288372
3984.75, 0.288761
3987.81, 0.289149
3990.88, 0.289227
3993.95, 0.289383
3997.03, 0.289616
4000.12, 0.289694
4003.21, 0.289927
4006.3, 0.290083
4009.4, 0.290160
4012.5, 0.290238
4015.61, 0.290471
4018.72, 0.290704
4021.84, 0.290860
4024.96, 0.291093
4028.09, 0.291326
4031.22, 0.291560
4034.36, 0.291637
4037.5, 0.291715
4040.65, 0.291871
4043.8, 0.292104
4046.96, 0.292182
4050.12, 0.292259
4053.29, 0.292415
4056.46, 0.292570
4059.64, 0.292726
4062.82, 0.292804
4066.0, 0.292804
4069.19, 0.292959
4072.39, 0.293115
4075.59, 0.293115
4078.8, 0.293192
4082.01, 0.293348
4085.23, 0.293348
4088.45, 0.293426
4091.68, 0.293503
4094.91, 0.293659
4098.15, 0.293737
4101.39, 0.293737
4104.63, 0.293814
4107.89, 0.293970
4111.14, 0.294048
4114.41, 0.294125
4117.67, 0.294203
4120.95, 0.294281
4124.23, 0.294281
4127.51, 0.294281
4130.8, 0.294359
4134.09, 0.294514
4137.39, 0.294592
4140.7, 0.294747
4144.01, 0.294747
4147.32, 0.294592
4150.64, 0.294514
4153.97, 0.294670
4157.3, 0.294825
4160.64, 0.294981
4163.98, 0.294903
4167.33, 0.294825
4170.68, 0.294825
4174.04, 0.294747
4177.4, 0.294747
4180.77, 0.294825
4184.14, 0.294903
4187.52, 0.295214
4190.91, 0.295214
4194.3, 0.295214
4197.69, 0.295214
4201.1, 0.295058
4204.5, 0.295214
4207.92, 0.295680
4211.34, 0.295836
4214.76, 0.295758
4218.19, 0.295836
4221.62, 0.295836
4225.06, 0.295914
4228.51, 0.295991
4231.96, 0.295991
4235.42, 0.295991
4238.88, 0.295991
4242.35, 0.295680
4245.83, 0.295447
4249.31, 0.295058
4252.79, 0.294514
4256.28, 0.294048
4259.78, 0.293892
4263.29, 0.293814
4266.79, 0.293737
4270.31, 0.293659
4273.83, 0.293892
4277.35, 0.294281
4280.89, 0.294436
4284.42, 0.294670
4287.97, 0.294670
4291.52, 0.294670
4295.07, 0.294825
4298.63, 0.294670
4302.2, 0.294592
4305.78, 0.294436
4309.35, 0.294281
4312.94, 0.294203
4316.53, 0.294125
4320.13, 0.294048
4323.73, 0.293892
4327.34, 0.293581
4330.96, 0.293426
4334.58, 0.293270
4338.21, 0.293192
4341.84, 0.293037
4345.48, 0.292881
4349.12, 0.292648
4352.77, 0.292493
4356.43, 0.292259
4360.1, 0.292026
4363.76, 0.291715
4367.44, 0.291404
4371.12, 0.291326
4374.81, 0.291015
4378.51, 0.290549
4382.21, 0.290238
4385.92, 0.289927
4389.63, 0.289460
4393.35, 0.289072
4397.08, 0.288761
4400.81, 0.288294
4404.55, 0.287594
4408.29, 0.287128
4412.04, 0.286662
4415.8, 0.286040
4419.57, 0.285418
4423.34, 0.284796
4427.12, 0.284018
4430.9, 0.283241
4434.69, 0.282619
4438.49, 0.281919
4442.29, 0.280986
4446.1, 0.279975
4449.92, 0.278964
4453.74, 0.278031
4457.57, 0.277098
4461.41, 0.275932
4465.25, 0.274844
4469.1, 0.273755
4472.95, 0.272667
4476.82, 0.271500
4480.69, 0.270412
4484.56, 0.269323
4488.44, 0.268235
4492.33, 0.267069
4496.23, 0.265902
4500.13, 0.264658
4504.04, 0.263181
4507.96, 0.262015
4511.88, 0.260927
4515.81, 0.259916
4519.75, 0.258905
4523.69, 0.257661
4527.65, 0.256339
4531.6, 0.255173
4535.57, 0.254318
4539.54, 0.253229
4543.52, 0.251985
4547.5, 0.251052
4551.5, 0.250119
4555.5, 0.249264
4559.5, 0.248409
4563.52, 0.247554
4567.54, 0.246698
4571.56, 0.245999
4575.6, 0.245377
4579.64, 0.244521
4583.69, 0.243822
4587.75, 0.243122
4591.81, 0.242422
4595.88, 0.241800
4599.96, 0.241178
4604.04, 0.240556
4608.14, 0.240090
4612.24, 0.239623
4616.34, 0.239079
4620.46, 0.238612
4624.58, 0.238224
4628.71, 0.237990
4632.84, 0.237524
4636.99, 0.237135
4641.14, 0.236902
4645.3, 0.236669
4649.47, 0.236591
4653.64, 0.236513
4657.82, 0.236358
4662.01, 0.236202
4666.21, 0.235969
4670.41, 0.235813
4674.62, 0.235736
4678.84, 0.235736
4683.07, 0.235736
4687.3, 0.235736
4691.54, 0.235736
4695.79, 0.235813
4700.05, 0.235891
4704.31, 0.235969
4708.59, 0.235891
4712.87, 0.235969
4717.15, 0.236125
4721.45, 0.236202
4725.76, 0.236358
4730.07, 0.236591
4734.39, 0.236747
4738.72, 0.236824
4743.05, 0.236980
4747.39, 0.237213
4751.75, 0.237291
4756.1, 0.237446
4760.47, 0.237446
4764.85, 0.237602
4769.23, 0.237913
4773.62, 0.238068
4778.02, 0.238224
4782.43, 0.238457
4786.85, 0.238612
4791.27, 0.238846
4795.7, 0.239079
4800.14, 0.239312
4804.59, 0.239623
4809.05, 0.239856
4813.51, 0.240167
4817.99, 0.240556
4822.47, 0.240867
4826.96, 0.241334
4831.46, 0.241800
4835.96, 0.242111
4840.48, 0.242422
4845.0, 0.242889
4849.54, 0.243355
4854.08, 0.243588
4858.63, 0.243744
4863.18, 0.243977
4867.75, 0.244210
4872.33, 0.244599
4876.91, 0.244988
4881.5, 0.245299
4886.1, 0.245610
4890.71, 0.245843
4895.33, 0.246076
4899.96, 0.246310
4904.59, 0.246465
4909.24, 0.246776
4913.89, 0.246932
4918.55, 0.247087
4923.22, 0.247243
4927.9, 0.247476
4932.59, 0.247631
4937.29, 0.248020
4942.0, 0.248176
4946.71, 0.248253
4951.44, 0.248409
4956.17, 0.248487
4960.91, 0.248642
4965.67, 0.248720
4970.43, 0.248642
4975.2, 0.248642
4979.98, 0.248798
4984.76, 0.248875
4989.56, 0.249031
4994.37, 0.249264
4999.18, 0.249420
5004.01, 0.249342
5008.84, 0.249264
5013.69, 0.249420
5018.54, 0.250042
5023.4, 0.250508
5028.28, 0.251052
5033.16, 0.251597
5038.05, 0.252141
5042.95, 0.252452
5047.86, 0.252685
5052.78, 0.252918
5057.71, 0.253074
5062.65, 0.253385
5067.6, 0.253696
5072.56, 0.253929
5077.53, 0.254318
5082.5, 0.254707
5087.49, 0.255018
5092.49, 0.255251
5097.5, 0.255640
5102.51, 0.255951
5107.54, 0.256184
5112.58, 0.256495
5117.62, 0.256806
5122.68, 0.257117
5127.75, 0.257583
5132.82, 0.258050
5137.91, 0.258439
5143.01, 0.258983
5148.12, 0.259449
5153.23, 0.259683
5158.36, 0.259916
5163.5, 0.260305
5168.65, 0.260771
5173.81, 0.261315
5178.98, 0.261860
5184.15, 0.262326
5189.34, 0.262792
5194.54, 0.263415
5199.75, 0.264037
5204.98, 0.264425
5210.21, 0.264892
5215.45, 0.265436
5220.7, 0.265591
5225.96, 0.265825
5231.23, 0.266213
5236.52, 0.266758
5241.81, 0.267069
5247.12, 0.267302
5252.44, 0.267613
5257.76, 0.268002
5263.1, 0.268235
5268.45, 0.268701
5273.81, 0.269090
5279.18, 0.269401
5284.56, 0.269790
5289.95, 0.270256
5295.36, 0.270645
5300.77, 0.270878
5306.2, 0.271189
5311.63, 0.271656
5317.08, 0.272045
5322.54, 0.272511
5328.01, 0.273055
5333.49, 0.273600
5338.98, 0.274066
5344.49, 0.274610
5350.0, 0.275388
5355.53, 0.275854
5361.07, 0.276165
5366.62, 0.276710
5372.18, 0.277487
5377.75, 0.278109
5383.34, 0.278576
5388.93, 0.279353
5394.54, 0.280131
5400.16, 0.280830
5405.79, 0.281297
5411.44, 0.281919
5417.09, 0.282852
5422.76, 0.284018
5428.43, 0.284018
5434.12, 0.283940
5439.83, 0.284174
5445.54, 0.284562
5451.26, 0.284873
5457.0, 0.285340
5462.75, 0.286040
5468.52, 0.286351
5474.29, 0.286351
5480.08, 0.286584
5485.88, 0.286506
5491.69, 0.286584
5497.51, 0.286739
5503.35, 0.286973
5509.2, 0.287050
5515.06, 0.287128
5520.93, 0.287439
5526.82, 0.287672
5532.71, 0.287594
5538.63, 0.287750
5544.55, 0.288139
5550.49, 0.288683
5556.44, 0.288916
5562.4, 0.288839
5568.37, 0.288994
5574.36, 0.289616
5580.36, 0.290083
5586.37, 0.289694
5592.4, 0.289460
5598.44, 0.289771
5604.49, 0.289927
5610.56, 0.289927
5616.63, 0.290160
5622.73, 0.290238
5628.83, 0.290238
5634.95, 0.290627
5641.08, 0.291482
5647.23, 0.291326
5653.39, 0.291015
5659.56, 0.290704
5665.74, 0.290238
5671.94, 0.290393
5678.15, 0.290316
5684.38, 0.289849
5690.62, 0.289771
5696.87, 0.289538
5703.14, 0.289149
5709.42, 0.289616
5715.72, 0.288994
5722.03, 0.288061
5728.35, 0.287128
5734.69, 0.286428
5741.03, 0.285573
5747.4, 0.284951
5753.78, 0.283707
5760.17, 0.283163
5766.58, 0.283396
5773.0, 0.281686
5779.44, 0.279897
5785.88, 0.278653
5792.35, 0.277487
5798.83, 0.276476
5805.32, 0.275310
5811.83, 0.274533
5818.35, 0.274533
5824.89, 0.273833
5831.45, 0.271967
5838.01, 0.270179
5844.59, 0.268390
5851.19, 0.266991
5857.8, 0.265669
5864.43, 0.264581
5871.07, 0.263104
5877.73, 0.262870
5884.4, 0.261471
5891.09, 0.259216
5897.79, 0.257817
5904.5, 0.255095
5911.23, 0.252763
5917.98, 0.251052
5924.75, 0.249186
5931.53, 0.248487
5938.32, 0.247320
5945.13, 0.244055
5951.96, 0.241256
5958.8, 0.238923
5965.65, 0.237213
5972.53, 0.235036
5979.42, 0.232237
5986.32, 0.230293
5993.24, 0.227961
6000.18, 0.225317
6007.13, 0.223140
6014.1, 0.221585
6021.08, 0.219408
6028.09, 0.217076
6035.1, 0.215132
6042.14, 0.214510
6049.19, 0.214044
6056.25, 0.210856
6063.34, 0.208290
6070.44, 0.207280
6077.55, 0.205802
6084.69, 0.203859
6091.84, 0.202459
6099.0, 0.201759
6106.19, 0.201526
6113.39, 0.201915
6120.61, 0.201448
6127.84, 0.201215
6135.09, 0.201759
6142.36, 0.202848
6149.65, 0.204092
6156.95, 0.205880
6164.27, 0.207280
6171.61, 0.208524
6178.97, 0.210467
6186.34, 0.212644
6193.73, 0.213422
6201.14, 0.214044
6208.57, 0.214977
6216.01, 0.215754
6223.47, 0.216298
6230.95, 0.216687
6238.45, 0.216687
6245.97, 0.216532
6253.5, 0.216143
6261.06, 0.215443
6268.63, 0.214355
6276.21, 0.213111
6283.82, 0.211633
6291.45, 0.210001
6299.1, 0.207668
6306.76, 0.205103
6314.44, 0.202304
6322.14, 0.199349
6329.86, 0.196084
6337.6, 0.193207
6345.35, 0.189941
6353.13, 0.185665
6360.92, 0.181545
6368.74, 0.177968
6376.57, 0.173925
6384.43, 0.169804
6392.3, 0.165761
6400.19, 0.162185
6408.1, 0.159619
6416.03, 0.156354
6423.98, 0.151689
6431.95, 0.147879
6439.94, 0.144380
6447.95, 0.141270
6455.98, 0.138316
6464.03, 0.135828
6472.1, 0.133651
6480.19, 0.131707
6488.31, 0.130075
6496.44, 0.128209
6504.59, 0.125643
6512.76, 0.123932
6520.95, 0.122844
6529.16, 0.121522
6537.4, 0.120434
6545.65, 0.119734
6553.92, 0.119267
6562.22, 0.118956
6570.54, 0.119345
6578.88, 0.119423
6587.23, 0.119267
6595.61, 0.119656
6604.02, 0.120200
6612.44, 0.120978
6620.89, 0.121989
6629.35, 0.123699
6637.84, 0.125487
6646.35, 0.126343
6654.88, 0.127198
6663.44, 0.128831
6672.01, 0.130774
6680.61, 0.132718
6689.23, 0.134428
6697.88, 0.136217
6706.54, 0.138471
6715.23, 0.140648
6723.94, 0.142514
6732.67, 0.144458
6741.42, 0.146480
6750.2, 0.148734
6759.0, 0.150834
6767.82, 0.152933
6776.67, 0.155032
6785.54, 0.157365
6794.44, 0.159308
6803.35, 0.160552
6812.29, 0.162263
6821.26, 0.164206
6830.24, 0.165839
6839.25, 0.167161
6848.29, 0.168483
6857.35, 0.170193
6866.43, 0.171359
6875.54, 0.171437
6884.67, 0.172526
6893.82, 0.174392
6903.0, 0.176646
6912.2, 0.178746
6921.43, 0.180456
6930.69, 0.182011
6939.96, 0.183022
6949.27, 0.183799
6958.59, 0.184965
6967.95, 0.185121
6977.33, 0.184888
6986.73, 0.185199
6996.16, 0.185898
7005.61, 0.186987
7015.09, 0.188697
7024.6, 0.190874
7034.13, 0.193440
7043.69, 0.196550
7053.27, 0.199271
7062.88, 0.201526
7072.52, 0.204325
7082.18, 0.207435
7091.87, 0.210778
7101.58, 0.213888
7111.32, 0.217231
7121.09, 0.220419
7130.88, 0.223374
7140.71, 0.226406
7150.56, 0.229360
7160.43, 0.231926
7170.33, 0.234647
7180.27, 0.236591
7190.23, 0.238457
7200.21, 0.240634
7210.23, 0.242811
7220.27, 0.244366
7230.34, 0.245921
7240.44, 0.247476
7250.56, 0.248953
7260.72, 0.250042
7270.9, 0.251130
7281.12, 0.251985
7291.36, 0.252685
7301.63, 0.253540
7311.93, 0.254396
7322.25, 0.255095
7332.61, 0.255795
7343.0, 0.256184
7353.41, 0.256184
7363.86, 0.256106
7374.33, 0.256262
7384.83, 0.256184
7395.37, 0.256106
7405.93, 0.256184
7416.53, 0.256417
7427.15, 0.256262
7437.81, 0.256106
7448.5, 0.255951
7459.22, 0.256028
7469.96, 0.255717
7480.74, 0.255018
7491.55, 0.254240
7502.39, 0.253463
7513.27, 0.252763
7524.17, 0.251985
7535.11, 0.251208
7546.08, 0.250275
7557.08, 0.249264
7568.11, 0.248020
7579.17, 0.246932
7590.27, 0.245765
7601.4, 0.244444
7612.56, 0.243200
7623.76, 0.241722
7634.98, 0.240245
7646.24, 0.238923
7657.54, 0.237679
7668.87, 0.236202
7680.23, 0.234492
7691.62, 0.232859
7703.05, 0.231226
7714.51, 0.229438
7726.01, 0.227494
7737.54, 0.225395
7749.11, 0.223374
7760.71, 0.221352
7772.35, 0.219020
7784.02, 0.216687
7795.72, 0.214510
7807.46, 0.212489
7819.23, 0.210623
7831.04, 0.208679
7842.89, 0.206891
7854.77, 0.204947
7866.69, 0.203392
7878.65, 0.201837
7890.64, 0.200282
7902.67, 0.198960
7914.74, 0.197716
7926.84, 0.196706
7938.98, 0.195695
7951.16, 0.194606
7963.37, 0.193751
7975.62, 0.192663
7987.91, 0.191496
8000.24, 0.190330
8012.6, 0.189086
8025.01, 0.187764
8037.45, 0.186132
8049.93, 0.184577
8062.45, 0.183022
8075.01, 0.181311
8087.61, 0.179212
8100.24, 0.177113
8112.91, 0.175014
8125.63, 0.172681
8138.39, 0.170426
8151.18, 0.167938
8164.02, 0.165373
8176.9, 0.162807
8189.81, 0.160086
8202.77, 0.156976
8215.77, 0.153710
8228.82, 0.150678
8241.9, 0.147646
8255.02, 0.144536
8268.19, 0.141426
8281.39, 0.138471
8294.65, 0.135439
8307.94, 0.132485
8321.28, 0.129608
8334.66, 0.126809
8348.08, 0.124088
8361.54, 0.121678
8375.05, 0.119112
8388.6, 0.116468
8402.2, 0.113903
8415.84, 0.111648
8429.52, 0.109393
8443.25, 0.107294
8457.02, 0.105195
8470.84, 0.103096
8484.7, 0.101152
8498.61, 0.0994410
8512.57, 0.0977310
8526.57, 0.0961760
8540.62, 0.0943880
8554.71, 0.0925990
8568.85, 0.0907330
8583.04, 0.0890230
8597.27, 0.0877790
8611.55, 0.0872350
8625.88, 0.0870010
8640.26, 0.0867680
8654.68, 0.0861460
8669.16, 0.0854460
8683.68, 0.0848240
8698.25, 0.0841250
8712.87, 0.0833470
8727.53, 0.0827250
8742.25, 0.0820250
8757.02, 0.0810920
8771.83, 0.0802370
8786.7, 0.0797710
8801.62, 0.0789930
8816.59, 0.0780600
8831.61, 0.0772050
8846.68, 0.0765050
8861.8, 0.0757280
8876.97, 0.0750280
8892.2, 0.0741730
8907.48, 0.0733950
8922.81, 0.0726180
8938.2, 0.0719180
8953.63, 0.0712180
8969.13, 0.0704410
8984.67, 0.0695080
9000.27, 0.0687300
9015.92, 0.0677970
9031.63, 0.0669420
9047.39, 0.0660870
9063.21, 0.0653870
9079.08, 0.0645320
9095.01, 0.0636770
9111.0, 0.0628210
9127.04, 0.0618880
9143.13, 0.0608780
9159.28, 0.0601000
9175.49, 0.0594780
9191.76, 0.0589340
9208.09, 0.0583120
9224.47, 0.0578450
9240.92, 0.0574570
9257.42, 0.0576120
9273.98, 0.0577680
9290.6, 0.0573790
9307.28, 0.0573790
9324.02, 0.0575340
9340.82, 0.0573790
9357.68, 0.0573790
9374.6, 0.0573010
9391.58, 0.0573010
9408.62, 0.0572230
9425.73, 0.0571460
9442.9, 0.0571460
9460.13, 0.0569900
9477.42, 0.0565240
9494.78, 0.0562900
9512.2, 0.0560570
9529.69, 0.0559790
9547.24, 0.0560570
9564.86, 0.0560570
9582.54, 0.0556680
9600.28, 0.0554350
9618.1, 0.0555130
9635.97, 0.0553570
9653.92, 0.0551240
9671.93, 0.0548910
9690.01, 0.0548910
9708.16, 0.0548910
9726.37, 0.0547350
9744.65, 0.0546580
9763.0, 0.0545800
9781.43, 0.0547350
9799.92, 0.0551240
9818.48, 0.0553570
9837.1, 0.0552800
9855.8, 0.0555910
9874.58, 0.0556680
9893.42, 0.0558240
9912.34, 0.0559020
9931.33, 0.0562130
9950.39, 0.0566010
9969.52, 0.0569120
9988.74, 0.0568350
10008.0, 0.0566010
10027.4, 0.0566790
10046.8, 0.0568350
10066.3, 0.0567570
10085.9, 0.0569900
10105.6, 0.0569900
10125.3, 0.0563680
10145.1, 0.0557460
10165.0, 0.0558240
10185.0, 0.0556680
10205.0, 0.0553570
10225.2, 0.0545800
10245.4, 0.0541910
10265.7, 0.0539580
10286.0, 0.0534140
10306.5, 0.0529470
10327.0, 0.0521700
10347.6, 0.0512370
10368.3, 0.0512370
10389.1, 0.0510040
10409.9, 0.0501480
10430.9, 0.0494490
10451.9, 0.0492150
10473.0, 0.0488270
10494.2, 0.0481270
10515.5, 0.0475830
10536.9, 0.0472720
10558.4, 0.0468050
10579.9, 0.0463390
10601.5, 0.0459500
10623.3, 0.0455610
10645.1, 0.0450170
10667.0, 0.0445500
10689.0, 0.0440060
10711.1, 0.0436950
10733.2, 0.0434620
10755.5, 0.0432290
10777.9, 0.0427620
10800.3, 0.0423730
10822.9, 0.0422180
10845.5, 0.0419850
10868.2, 0.0414400
10891.1, 0.0408960
10914.0, 0.0406630
10937.0, 0.0405070
10960.2, 0.0405850
10983.4, 0.0402740
11006.7, 0.0400410
11030.1, 0.0401960
11053.6, 0.0405070
11077.3, 0.0408960
11101.0, 0.0412070
11124.8, 0.0414400
11148.7, 0.0412850
11172.7, 0.0412850
11196.9, 0.0416740
11221.1, 0.0419850
11245.4, 0.0419070
11269.9, 0.0419070
11294.4, 0.0418290
11319.1, 0.0417510
11343.9, 0.0414400
11368.8, 0.0415960
11393.7, 0.0413630
11418.8, 0.0411290
11444.0, 0.0409740
11469.4, 0.0409740
11494.8, 0.0408960
11520.3, 0.0403520
11546.0, 0.0397300
11571.8, 0.0394970
11597.7, 0.0392630
11623.7, 0.0390300
11649.8, 0.0384860
11676.0, 0.0383300
11702.4, 0.0383300
11728.9, 0.0377860
11755.5, 0.0371640
11782.2, 0.0370090
11809.0, 0.0368530
11836.0, 0.0370090
11863.0, 0.0368530
11890.3, 0.0365420
11917.6, 0.0360760
11945.0, 0.0356870
11972.6, 0.0355310
12000.4, 0.0354540
12028.2, 0.0348320
12056.2, 0.0343650
12084.3, 0.0336650
12112.5, 0.0331210
12140.9, 0.0328880
12169.4, 0.0328880
12198.0, 0.0324210
12226.8, 0.0319550
12255.7, 0.0312550
12284.7, 0.0307890
12313.9, 0.0303220
12343.2, 0.0294670
12372.7, 0.0291560
12402.3, 0.0292340
12432.0, 0.0288450
12461.9, 0.0280670
12491.9, 0.0275230
12522.1, 0.0272120
12552.4, 0.0267460
12582.9, 0.0265900
12613.5, 0.0262790
12644.3, 0.0255800
12675.2, 0.0251130
12706.3, 0.0249580
12737.5, 0.0243360
12768.9, 0.0236360
12800.4, 0.0232470
12832.1, 0.0227810
12863.9, 0.0220810
12895.9, 0.0220810
12928.1, 0.0222360
12960.4, 0.0223140
12992.9, 0.0220030
13025.5, 0.0211480
13058.3, 0.0205260
13091.3, 0.0198260
13124.4, 0.0188930
13157.8, 0.0185820
13191.2, 0.0181160
13224.9, 0.0173380
13258.7, 0.0164830
13292.7, 0.0156280
13326.9, 0.0146950
13361.2, 0.0142280
13395.7, 0.0137620
13430.4, 0.0133730
13465.3, 0.0127510
13500.4, 0.0124400
13535.7, 0.0118960
13571.1, 0.0112740
13606.7, 0.0105740
13642.5, 0.0101070
13678.5, 0.00971900
13714.7, 0.00964100
13751.1, 0.00933000
13787.6, 0.00894100
13824.4, 0.00824100
13861.4, 0.00785300
13898.5, 0.00769700
13935.9, 0.00730800
13973.5, 0.00668600
14011.2, 0.00637500
14049.2, 0.00614200
14087.4, 0.00598700
14125.8, 0.00513100
14164.3, 0.00466500
14203.2, 0.00466500
14242.2, 0.00497600
14281.4, 0.00497600
14320.9, 0.00474300
14360.5, 0.00458700
14400.4, 0.00505400
14440.5, 0.00544200
14480.9, 0.00583100
14521.4, 0.00606400
14562.2, 0.00715300
14603.3, 0.00870800
14644.5, 0.0104960
14686.0, 0.0119730
14727.7, 0.0141500
14769.7, 0.0171830
14811.9, 0.0218480
14854.3, 0.0270570
14897.0, 0.0333540
14939.9, 0.0408960
14983.1, 0.0496040
15026.5, 0.0590120
15070.2, 0.0701300
15114.2, 0.0824140
15158.3, 0.0960200
15202.8, 0.110559
15247.5, 0.124399
15292.5, 0.137694
15337.7, 0.150523
15383.2, 0.161407
15429.0, 0.170115
15475.1, 0.176724
15521.4, 0.182944
15568.0, 0.188542
15614.9, 0.192740
15662.1, 0.195928
15709.6, 0.199971
15757.3, 0.203625
15805.4, 0.206502
15853.7, 0.209457
15902.3, 0.212722
15951.2, 0.216143
16000.5, 0.219953
16050.0, 0.224462
16099.8, 0.229671
16150.0, 0.233792
16200.5, 0.237446
16251.3, 0.241023
16302.4, 0.245066
16353.8, 0.248176
16405.5, 0.251286
16457.6, 0.255095
16510.0, 0.258750
16562.8, 0.262715
16615.9, 0.266369
16669.3, 0.269323
16723.1, 0.272978
16777.2, 0.276710
16831.7, 0.279042
16886.5, 0.281608
16941.7, 0.283863
16997.2, 0.286351
17053.1, 0.289616
17109.4, 0.293814
17166.1, 0.298713
17223.1, 0.303144
17280.5, 0.307421
17338.3, 0.312396
17396.5, 0.316517
17455.1, 0.319705
17514.0, 0.322737
17573.4, 0.325303
17633.2, 0.327946
17693.4, 0.330434
17754.0, 0.332223
17815.0, 0.334166
17876.4, 0.337665
17938.3, 0.340464
18000.5, 0.342252
18063.3, 0.344274
18126.4, 0.345362
18190.0, 0.345751
18254.1, 0.344351
18318.6, 0.343185
18383.5, 0.342408
18449.0, 0.339531
18514.9, 0.335488
18581.2, 0.330745
18648.0, 0.325536
18715.4, 0.319627
18783.2, 0.312008
18851.5, 0.303689
18920.3, 0.292648
18989.6, 0.281608
19059.4, 0.270101
19129.7, 0.255640
19200.6, 0.239623
19272.0, 0.222907
19343.9, 0.205569
19416.3, 0.187687
19489.3, 0.170660
19562.8, 0.153166
19637.0, 0.137383
19711.6, 0.124399
19786.8, 0.113747
19862.6, 0.105117
19939.0, 0.0978860
20016.0, 0.0944650
20093.6, 0.0957090
20171.8, 0.102551
20250.6, 0.117557
20330.0, 0.138705
20410.0, 0.161641
20490.7, 0.183410
20572.0, 0.201682
20654.0, 0.217698
20736.6, 0.230915
20819.9, 0.238923
20903.8, 0.245454
20988.5, 0.252607
21073.8, 0.258983
21159.8, 0.260538
21246.5, 0.260149
21334.0, 0.260615
21422.1, 0.261082
21511.0, 0.261004
21600.7, 0.259372
21691.0, 0.256495
21782.1, 0.252918
21874.0, 0.250353
21966.7, 0.248253
22060.2, 0.244599
22154.5, 0.239779
22249.6, 0.237213
22345.5, 0.234570
22442.2, 0.230682
22539.8, 0.227572
22638.2, 0.219642
22737.5, 0.213344
22837.7, 0.210001
22938.7, 0.201293
23040.7, 0.190641
23143.5, 0.178201
23247.3, 0.167550
23352.1, 0.159386
23457.7, 0.147568
23564.4, 0.136683
23672.0, 0.130075
23780.5, 0.125954
23890.1, 0.119967
24000.7, 0.112892
24112.3, 0.106983
24225.0, 0.103640
24338.7, 0.104106
24453.5, 0.109238
24569.4, 0.113358
24686.4, 0.116080
24804.5, 0.123310
24923.8, 0.132562
