Database of Origin,USGS Spectral Database
Sample Description,See USGS database for additional info
Date Added,2017-02-22 02:48:43.305508

Data ID,USGS_uva02          
Sample ID,uvarovite_nmnh106661.23393
Mineral Name,uvarovite

Wavelength
1374.38, 0.316047
1374.74, 0.315602
1375.11, 0.315651
1375.47, 0.315948
1375.84, 0.315898
1376.2, 0.315156
1376.57, 0.315008
1376.93, 0.314859
1377.3, 0.314365
1377.67, 0.314266
1378.03, 0.313870
1378.4, 0.313375
1378.76, 0.313276
1379.13, 0.312782
1379.5, 0.311841
1379.87, 0.310802
1380.23, 0.309417
1380.6, 0.308378
1380.97, 0.308131
1381.34, 0.308477
1381.7, 0.308329
1382.07, 0.307834
1382.44, 0.307933
1382.81, 0.308081
1383.18, 0.307982
1383.55, 0.307587
1383.92, 0.307488
1384.29, 0.307636
1384.66, 0.307735
1385.03, 0.307290
1385.4, 0.306300
1385.77, 0.305162
1386.14, 0.305014
1386.51, 0.305261
1386.88, 0.304816
1387.25, 0.304321
1387.62, 0.303530
1387.99, 0.302689
1388.36, 0.302590
1388.74, 0.302540
1389.11, 0.301946
1389.48, 0.300957
1389.85, 0.300413
1390.23, 0.299324
1390.6, 0.297395
1390.97, 0.295119
1391.35, 0.292645
1391.72, 0.291458
1392.09, 0.292249
1392.47, 0.294426
1392.84, 0.296653
1393.21, 0.297543
1393.59, 0.298038
1393.96, 0.299176
1394.34, 0.299621
1394.71, 0.299324
1395.09, 0.299720
1395.46, 0.300116
1395.84, 0.300363
1396.22, 0.300215
1396.59, 0.299324
1396.97, 0.298582
1397.35, 0.298285
1397.72, 0.297939
1398.1, 0.297840
1398.48, 0.298335
1398.85, 0.298681
1399.23, 0.298829
1399.61, 0.299027
1399.99, 0.299473
1400.37, 0.299374
1400.74, 0.299324
1401.12, 0.299374
1401.5, 0.299621
1401.88, 0.299423
1402.26, 0.299077
1402.64, 0.298879
1403.02, 0.298978
1403.4, 0.298236
1403.78, 0.297791
1404.16, 0.297889
1404.54, 0.297889
1404.92, 0.297494
1405.3, 0.297147
1405.68, 0.297098
1406.06, 0.297345
1406.44, 0.297098
1406.83, 0.296752
1407.21, 0.296653
1407.59, 0.296702
1407.97, 0.296356
1408.35, 0.296009
1408.74, 0.295861
1409.12, 0.295910
1409.5, 0.295910
1409.89, 0.295564
1410.27, 0.295218
1410.65, 0.295168
1411.04, 0.295119
1411.42, 0.294872
1411.81, 0.294624
1412.19, 0.294723
1412.58, 0.294872
1412.96, 0.294773
1413.35, 0.294525
1413.73, 0.294426
1414.12, 0.294426
1414.5, 0.293931
1414.89, 0.293536
1415.28, 0.293387
1415.66, 0.293090
1416.05, 0.292991
1416.44, 0.293090
1416.82, 0.293338
1417.21, 0.293189
1417.6, 0.293189
1417.98, 0.292843
1418.37, 0.292447
1418.76, 0.292299
1419.15, 0.291854
1419.54, 0.291557
1419.93, 0.291705
1420.32, 0.291606
1420.71, 0.291458
1421.09, 0.291755
1421.48, 0.291606
1421.88, 0.291309
1422.27, 0.291111
1422.66, 0.290963
1423.05, 0.291012
1423.44, 0.290716
1423.83, 0.290567
1424.22, 0.290369
1424.61, 0.290221
1425.0, 0.290518
1425.39, 0.290419
1425.78, 0.289973
1426.18, 0.289776
1426.57, 0.289825
1426.96, 0.289776
1427.36, 0.289429
1427.75, 0.289380
1428.14, 0.289479
1428.54, 0.289677
1428.93, 0.289578
1429.32, 0.289330
1429.72, 0.289182
1430.11, 0.288885
1430.51, 0.288390
1430.9, 0.288143
1431.3, 0.288093
1431.69, 0.288341
1432.09, 0.288489
1432.48, 0.288539
1432.88, 0.288093
1433.28, 0.287698
1433.67, 0.287549
1434.07, 0.287747
1434.46, 0.287945
1434.86, 0.287500
1435.26, 0.286906
1435.66, 0.287005
1436.05, 0.287252
1436.45, 0.287252
1436.85, 0.287104
1437.25, 0.287153
1437.65, 0.286807
1438.05, 0.286362
1438.44, 0.286560
1438.84, 0.286708
1439.24, 0.286906
1439.64, 0.286857
1440.04, 0.286510
1440.44, 0.286312
1440.84, 0.285966
1441.24, 0.285966
1441.65, 0.286065
1442.05, 0.286164
1442.45, 0.285818
1442.85, 0.285570
1443.25, 0.285372
1443.65, 0.285273
1444.05, 0.285471
1444.46, 0.286015
1444.86, 0.286065
1445.26, 0.285471
1445.67, 0.285026
1446.07, 0.285224
1446.47, 0.284927
1446.88, 0.284828
1447.28, 0.284927
1447.68, 0.284976
1448.09, 0.284680
1448.49, 0.284531
1448.9, 0.284729
1449.3, 0.284680
1449.71, 0.284284
1450.11, 0.284284
1450.52, 0.284185
1450.93, 0.284185
1451.33, 0.283987
1451.74, 0.283987
1452.14, 0.283740
1452.55, 0.283839
1452.96, 0.284036
1453.36, 0.284086
1453.77, 0.283789
1454.18, 0.283443
1454.59, 0.283789
1455.0, 0.283789
1455.41, 0.283641
1455.81, 0.283245
1456.22, 0.282899
1456.63, 0.282800
1457.04, 0.282948
1457.45, 0.282849
1457.86, 0.282899
1458.27, 0.282948
1458.68, 0.282800
1459.09, 0.282849
1459.5, 0.282899
1459.91, 0.282651
1460.32, 0.282552
1460.74, 0.282651
1461.15, 0.282305
1461.56, 0.282107
1461.97, 0.282255
1462.39, 0.282354
1462.8, 0.282404
1463.21, 0.282008
1463.62, 0.281958
1464.04, 0.282008
1464.45, 0.282156
1464.86, 0.281860
1465.28, 0.281662
1465.69, 0.281315
1466.11, 0.281414
1466.52, 0.281958
1466.94, 0.282156
1467.35, 0.281909
1467.77, 0.281662
1468.18, 0.281563
1468.6, 0.281365
1469.02, 0.281414
1469.43, 0.281464
1469.85, 0.281365
1470.27, 0.281414
1470.68, 0.281464
1471.1, 0.281266
1471.52, 0.281266
1471.94, 0.281365
1472.35, 0.281563
1472.77, 0.281315
1473.19, 0.281068
1473.61, 0.280969
1474.03, 0.281018
1474.45, 0.281315
1474.87, 0.281414
1475.29, 0.281068
1475.71, 0.281167
1476.13, 0.281018
1476.55, 0.280672
1476.97, 0.280672
1477.39, 0.280870
1477.81, 0.280722
1478.23, 0.280623
1478.65, 0.280969
1479.07, 0.281068
1479.5, 0.281117
1479.92, 0.281068
1480.34, 0.281068
1480.76, 0.281117
1481.19, 0.280969
1481.61, 0.280821
1482.03, 0.280771
1482.46, 0.280870
1482.88, 0.281117
1483.31, 0.281018
1483.73, 0.280870
1484.16, 0.281068
1484.58, 0.281167
1485.01, 0.281167
1485.43, 0.281018
1485.86, 0.280771
1486.28, 0.280623
1486.71, 0.280821
1487.14, 0.281018
1487.56, 0.281018
1487.99, 0.280771
1488.42, 0.280573
1488.84, 0.280722
1489.27, 0.280821
1489.7, 0.280821
1490.13, 0.280722
1490.56, 0.280672
1490.98, 0.280722
1491.41, 0.280623
1491.84, 0.280870
1492.27, 0.281266
1492.7, 0.280870
1493.13, 0.280375
1493.56, 0.280524
1493.99, 0.280821
1494.42, 0.280969
1494.85, 0.281216
1495.29, 0.281117
1495.72, 0.280920
1496.15, 0.280920
1496.58, 0.280969
1497.01, 0.280771
1497.44, 0.280771
1497.88, 0.280870
1498.31, 0.281018
1498.74, 0.281216
1499.18, 0.281117
1499.61, 0.281018
1500.04, 0.280920
1500.48, 0.281117
1500.91, 0.281167
1501.35, 0.280870
1501.78, 0.281167
1502.22, 0.281365
1502.65, 0.281266
1503.09, 0.281315
1503.53, 0.281216
1503.96, 0.281167
1504.4, 0.281068
1504.83, 0.281068
1505.27, 0.281315
1505.71, 0.281216
1506.15, 0.281117
1506.58, 0.281068
1507.02, 0.281167
1507.46, 0.281315
1507.9, 0.281315
1508.34, 0.281216
1508.78, 0.281464
1509.21, 0.281464
1509.66, 0.281216
1510.09, 0.281068
1510.53, 0.280920
1510.97, 0.281117
1511.42, 0.281365
1511.86, 0.281315
1512.3, 0.281167
1512.74, 0.281018
1513.18, 0.281216
1513.62, 0.281513
1514.06, 0.281464
1514.51, 0.281464
1514.95, 0.281464
1515.39, 0.281464
1515.83, 0.281711
1516.28, 0.281513
1516.72, 0.281315
1517.16, 0.281068
1517.61, 0.281167
1518.05, 0.281216
1518.5, 0.281365
1518.94, 0.281563
1519.39, 0.281513
1519.83, 0.281414
1520.28, 0.281365
1520.73, 0.281365
1521.17, 0.281662
1521.62, 0.281761
1522.07, 0.281414
1522.51, 0.281315
1522.96, 0.281365
1523.41, 0.281315
1523.85, 0.281563
1524.3, 0.281612
1524.75, 0.281513
1525.2, 0.281612
1525.65, 0.281612
1526.1, 0.281612
1526.55, 0.281563
1527.0, 0.281711
1527.45, 0.281810
1527.9, 0.282008
1528.35, 0.281711
1528.8, 0.281563
1529.25, 0.281612
1529.7, 0.281761
1530.15, 0.281761
1530.6, 0.281860
1531.05, 0.281909
1531.51, 0.281909
1531.96, 0.281761
1532.41, 0.281810
1532.87, 0.281909
1533.32, 0.282057
1533.77, 0.281958
1534.23, 0.282008
1534.68, 0.282206
1535.14, 0.282156
1535.59, 0.282404
1536.05, 0.282552
1536.5, 0.282255
1536.96, 0.282156
1537.41, 0.282255
1537.87, 0.282404
1538.32, 0.282156
1538.78, 0.282206
1539.24, 0.282503
1539.7, 0.282948
1540.15, 0.282750
1540.61, 0.282404
1541.07, 0.282503
1541.53, 0.282998
1541.98, 0.283047
1542.44, 0.282849
1542.9, 0.282800
1543.36, 0.282849
1543.82, 0.282948
1544.28, 0.283096
1544.74, 0.283047
1545.2, 0.282998
1545.66, 0.283096
1546.12, 0.283245
1546.59, 0.282948
1547.05, 0.283096
1547.51, 0.283294
1547.97, 0.283344
1548.43, 0.283245
1548.9, 0.283195
1549.36, 0.283344
1549.82, 0.283344
1550.29, 0.283443
1550.75, 0.283492
1551.21, 0.283641
1551.68, 0.283591
1552.14, 0.283542
1552.61, 0.283789
1553.07, 0.283888
1553.54, 0.283789
1554.0, 0.283740
1554.47, 0.283740
1554.93, 0.283789
1555.4, 0.283839
1555.87, 0.284135
1556.34, 0.284333
1556.8, 0.284185
1557.27, 0.283987
1557.74, 0.284036
1558.21, 0.284234
1558.68, 0.284185
1559.14, 0.284234
1559.61, 0.283937
1560.08, 0.283987
1560.55, 0.284234
1561.02, 0.284234
1561.49, 0.284185
1561.96, 0.284383
1562.43, 0.284333
1562.9, 0.284432
1563.38, 0.284531
1563.85, 0.284482
1564.32, 0.284482
1564.79, 0.284531
1565.26, 0.284630
1565.74, 0.284927
1566.21, 0.284680
1566.68, 0.284432
1567.16, 0.284729
1567.63, 0.284680
1568.1, 0.284630
1568.58, 0.284828
1569.05, 0.284779
1569.53, 0.284779
1570.0, 0.284976
1570.48, 0.285026
1570.96, 0.284878
1571.43, 0.284828
1571.91, 0.284828
1572.39, 0.285026
1572.86, 0.285323
1573.34, 0.285224
1573.82, 0.285273
1574.3, 0.285372
1574.77, 0.285174
1575.25, 0.285125
1575.73, 0.285174
1576.21, 0.285174
1576.69, 0.285372
1577.17, 0.285372
1577.65, 0.285224
1578.13, 0.285273
1578.61, 0.285471
1579.09, 0.285471
1579.57, 0.285224
1580.05, 0.285224
1580.54, 0.285372
1581.02, 0.285719
1581.5, 0.285818
1581.98, 0.285669
1582.47, 0.285323
1582.95, 0.285224
1583.43, 0.285422
1583.92, 0.285471
1584.4, 0.285521
1584.88, 0.285719
1585.37, 0.285768
1585.85, 0.285719
1586.34, 0.285768
1586.82, 0.285620
1587.31, 0.285669
1587.8, 0.285818
1588.28, 0.285620
1588.77, 0.285422
1589.26, 0.285620
1589.74, 0.285818
1590.23, 0.285867
1590.72, 0.285867
1591.21, 0.285966
1591.7, 0.286213
1592.19, 0.286114
1592.67, 0.286114
1593.16, 0.286114
1593.65, 0.285917
1594.14, 0.285818
1594.63, 0.285867
1595.12, 0.285867
1595.61, 0.285917
1596.11, 0.286263
1596.6, 0.286312
1597.09, 0.286263
1597.58, 0.286362
1598.08, 0.286510
1598.57, 0.286411
1599.06, 0.286312
1599.55, 0.286461
1600.05, 0.286411
1600.54, 0.286362
1601.04, 0.286510
1601.53, 0.286461
1602.03, 0.286609
1602.52, 0.286609
1603.02, 0.286609
1603.51, 0.286560
1604.01, 0.286609
1604.5, 0.286659
1605.0, 0.286708
1605.5, 0.286659
1606.0, 0.286659
1606.49, 0.286758
1606.99, 0.286857
1607.49, 0.287054
1607.99, 0.287005
1608.49, 0.287153
1608.99, 0.287054
1609.49, 0.286906
1609.99, 0.286906
1610.49, 0.286807
1610.99, 0.286807
1611.49, 0.287005
1611.99, 0.286906
1612.49, 0.286955
1612.99, 0.287252
1613.49, 0.287401
1614.0, 0.287450
1614.5, 0.287351
1615.0, 0.287351
1615.51, 0.287549
1616.01, 0.287549
1616.51, 0.287549
1617.02, 0.287351
1617.52, 0.287302
1618.03, 0.287401
1618.53, 0.287450
1619.04, 0.287747
1619.54, 0.287698
1620.05, 0.287500
1620.55, 0.287599
1621.06, 0.287648
1621.57, 0.287896
1622.08, 0.288093
1622.58, 0.287945
1623.09, 0.287846
1623.6, 0.287747
1624.11, 0.287797
1624.62, 0.287747
1625.13, 0.287648
1625.64, 0.287747
1626.15, 0.287945
1626.66, 0.287797
1627.17, 0.287648
1627.68, 0.287648
1628.19, 0.287698
1628.7, 0.287846
1629.21, 0.287846
1629.72, 0.287846
1630.24, 0.287945
1630.75, 0.287945
1631.26, 0.287994
1631.78, 0.288192
1632.29, 0.288192
1632.8, 0.287994
1633.32, 0.287945
1633.83, 0.288093
1634.35, 0.288291
1634.86, 0.288093
1635.38, 0.288044
1635.9, 0.288044
1636.41, 0.288093
1636.93, 0.287896
1637.45, 0.288044
1637.96, 0.288192
1638.48, 0.288192
1639.0, 0.288192
1639.52, 0.288291
1640.04, 0.288539
1640.56, 0.288539
1641.08, 0.288539
1641.59, 0.288539
1642.11, 0.288341
1642.63, 0.288539
1643.16, 0.288588
1643.68, 0.288539
1644.2, 0.288440
1644.72, 0.288291
1645.24, 0.288539
1645.76, 0.288440
1646.29, 0.288242
1646.81, 0.288341
1647.33, 0.288390
1647.86, 0.288539
1648.38, 0.288390
1648.9, 0.288192
1649.43, 0.288093
1649.95, 0.288192
1650.48, 0.288440
1651.0, 0.288440
1651.53, 0.288291
1652.06, 0.288291
1652.58, 0.288291
1653.11, 0.288440
1653.64, 0.288588
1654.17, 0.288440
1654.69, 0.288341
1655.22, 0.288242
1655.75, 0.288291
1656.28, 0.288341
1656.81, 0.288489
1657.34, 0.288489
1657.87, 0.288341
1658.4, 0.288440
1658.93, 0.288440
1659.46, 0.288440
1659.99, 0.288390
1660.52, 0.288341
1661.05, 0.288440
1661.59, 0.288440
1662.12, 0.288390
1662.65, 0.288341
1663.19, 0.288440
1663.72, 0.288291
1664.26, 0.288044
1664.79, 0.288143
1665.32, 0.288440
1665.86, 0.288390
1666.39, 0.288341
1666.93, 0.288588
1667.47, 0.288539
1668.0, 0.288489
1668.54, 0.288440
1669.08, 0.288737
1669.61, 0.288786
1670.15, 0.288489
1670.69, 0.288390
1671.23, 0.288638
1671.77, 0.288687
1672.31, 0.288539
1672.85, 0.288638
1673.39, 0.288588
1673.93, 0.288737
1674.47, 0.288786
1675.01, 0.288687
1675.55, 0.288638
1676.09, 0.288687
1676.64, 0.288687
1677.18, 0.288687
1677.72, 0.288539
1678.26, 0.288588
1678.81, 0.288638
1679.35, 0.288588
1679.89, 0.288638
1680.44, 0.288588
1680.98, 0.288687
1681.53, 0.288588
1682.07, 0.288341
1682.62, 0.288242
1683.17, 0.288390
1683.71, 0.288638
1684.26, 0.288737
1684.81, 0.288737
1685.36, 0.288737
1685.9, 0.288539
1686.45, 0.288588
1687.0, 0.288737
1687.55, 0.288836
1688.1, 0.288687
1688.65, 0.288588
1689.2, 0.288638
1689.75, 0.288687
1690.3, 0.288687
1690.85, 0.288687
1691.41, 0.288588
1691.96, 0.288737
1692.51, 0.288836
1693.06, 0.288687
1693.61, 0.288588
1694.17, 0.288638
1694.72, 0.288934
1695.28, 0.288786
1695.83, 0.288489
1696.39, 0.288341
1696.94, 0.288489
1697.5, 0.288687
1698.05, 0.288687
1698.61, 0.288687
1699.17, 0.288539
1699.72, 0.288440
1700.28, 0.288390
1700.84, 0.288440
1701.4, 0.288539
1701.95, 0.288440
1702.51, 0.288440
1703.07, 0.288539
1703.63, 0.288489
1704.19, 0.288440
1704.75, 0.288341
1705.31, 0.288390
1705.88, 0.288341
1706.44, 0.288341
1707.0, 0.288489
1707.56, 0.288291
1708.12, 0.288390
1708.69, 0.288638
1709.25, 0.288489
1709.81, 0.288093
1710.38, 0.288044
1710.94, 0.288341
1711.51, 0.288440
1712.07, 0.288341
1712.64, 0.288440
1713.2, 0.288539
1713.77, 0.288341
1714.34, 0.288291
1714.9, 0.288341
1715.47, 0.288242
1716.04, 0.288143
1716.61, 0.288192
1717.18, 0.288291
1717.74, 0.288192
1718.31, 0.288242
1718.88, 0.288242
1719.45, 0.288044
1720.02, 0.287896
1720.59, 0.287698
1721.17, 0.287896
1721.74, 0.287994
1722.31, 0.287994
1722.88, 0.288093
1723.45, 0.288192
1724.03, 0.288192
1724.6, 0.287945
1725.18, 0.287945
1725.75, 0.287747
1726.33, 0.287599
1726.9, 0.287698
1727.48, 0.287846
1728.05, 0.287846
1728.63, 0.287846
1729.2, 0.287747
1729.78, 0.287846
1730.36, 0.287896
1730.94, 0.287599
1731.51, 0.287500
1732.09, 0.287648
1732.67, 0.287896
1733.25, 0.287896
1733.83, 0.287648
1734.41, 0.287648
1734.99, 0.287500
1735.57, 0.287549
1736.15, 0.287599
1736.73, 0.287549
1737.32, 0.287599
1737.9, 0.287500
1738.48, 0.287351
1739.07, 0.287549
1739.65, 0.287401
1740.23, 0.287302
1740.82, 0.287500
1741.4, 0.287549
1741.99, 0.287599
1742.57, 0.287599
1743.16, 0.287549
1743.74, 0.287450
1744.33, 0.287549
1744.92, 0.287747
1745.51, 0.287896
1746.09, 0.287698
1746.68, 0.287500
1747.27, 0.287549
1747.86, 0.287549
1748.45, 0.287599
1749.04, 0.287648
1749.63, 0.287599
1750.22, 0.287450
1750.81, 0.287401
1751.4, 0.287549
1751.99, 0.287599
1752.59, 0.287450
1753.18, 0.287549
1753.77, 0.287599
1754.37, 0.287351
1754.96, 0.287351
1755.56, 0.287450
1756.15, 0.287450
1756.74, 0.287153
1757.34, 0.287054
1757.94, 0.287500
1758.53, 0.287747
1759.13, 0.287500
1759.73, 0.287203
1760.32, 0.287203
1760.92, 0.287351
1761.52, 0.287302
1762.12, 0.287104
1762.72, 0.287153
1763.32, 0.287252
1763.92, 0.287153
1764.52, 0.287153
1765.12, 0.287005
1765.72, 0.286758
1766.32, 0.287054
1766.92, 0.287302
1767.53, 0.287401
1768.13, 0.287203
1768.73, 0.287005
1769.34, 0.286906
1769.94, 0.286906
1770.55, 0.286906
1771.15, 0.286708
1771.76, 0.286807
1772.36, 0.287005
1772.97, 0.286955
1773.57, 0.286906
1774.18, 0.286708
1774.79, 0.286510
1775.4, 0.286659
1776.0, 0.286807
1776.61, 0.286857
1777.22, 0.286758
1777.83, 0.286659
1778.44, 0.286659
1779.05, 0.286708
1779.66, 0.286758
1780.27, 0.286906
1780.88, 0.286857
1781.5, 0.286609
1782.11, 0.286560
1782.72, 0.286461
1783.33, 0.286510
1783.95, 0.286411
1784.56, 0.286213
1785.18, 0.286263
1785.79, 0.286411
1786.41, 0.286411
1787.02, 0.286114
1787.64, 0.286065
1788.26, 0.286164
1788.87, 0.286015
1789.49, 0.285966
1790.11, 0.286015
1790.73, 0.286065
1791.35, 0.286015
1791.96, 0.286065
1792.58, 0.286015
1793.21, 0.286015
1793.83, 0.285917
1794.45, 0.285768
1795.07, 0.285818
1795.69, 0.285917
1796.31, 0.285867
1796.93, 0.285719
1797.56, 0.285669
1798.18, 0.285867
1798.8, 0.285818
1799.43, 0.285867
1800.05, 0.285917
1800.68, 0.285867
1801.3, 0.285818
1801.93, 0.285768
1802.56, 0.285669
1803.18, 0.285669
1803.81, 0.285521
1804.44, 0.285422
1805.07, 0.285372
1805.7, 0.285323
1806.33, 0.285224
1806.95, 0.285224
1807.58, 0.285323
1808.22, 0.285224
1808.85, 0.285174
1809.48, 0.285075
1810.11, 0.284976
1810.74, 0.285026
1811.38, 0.285224
1812.01, 0.285422
1812.64, 0.285422
1813.28, 0.285273
1813.91, 0.285224
1814.55, 0.285125
1815.18, 0.285026
1815.82, 0.284976
1816.45, 0.284828
1817.09, 0.284828
1817.73, 0.284878
1818.36, 0.284878
1819.0, 0.284878
1819.64, 0.285075
1820.28, 0.285224
1820.92, 0.285174
1821.56, 0.285026
1822.2, 0.285026
1822.84, 0.284779
1823.48, 0.284779
1824.12, 0.284878
1824.76, 0.284976
1825.41, 0.284976
1826.05, 0.285026
1826.69, 0.284927
1827.34, 0.284680
1827.98, 0.284779
1828.63, 0.284927
1829.27, 0.284927
1829.92, 0.285125
1830.56, 0.285075
1831.21, 0.284779
1831.86, 0.284581
1832.5, 0.284630
1833.15, 0.284729
1833.8, 0.284828
1834.45, 0.284828
1835.1, 0.284878
1835.75, 0.285026
1836.4, 0.285026
1837.05, 0.284779
1837.7, 0.284680
1838.35, 0.284581
1839.01, 0.284531
1839.66, 0.284581
1840.31, 0.284432
1840.96, 0.284333
1841.62, 0.284630
1842.27, 0.284680
1842.93, 0.284383
1843.58, 0.284185
1844.24, 0.284135
1844.9, 0.284185
1845.55, 0.284234
1846.21, 0.284482
1846.87, 0.284680
1847.53, 0.284531
1848.18, 0.284284
1848.84, 0.283987
1849.5, 0.283888
1850.16, 0.284135
1850.82, 0.284185
1851.48, 0.283987
1852.14, 0.284086
1852.81, 0.284284
1853.47, 0.284284
1854.13, 0.284333
1854.8, 0.284135
1855.46, 0.283987
1856.12, 0.284086
1856.79, 0.284135
1857.45, 0.283888
1858.12, 0.283839
1858.79, 0.283839
1859.45, 0.283839
1860.12, 0.283789
1860.79, 0.283740
1861.46, 0.283690
1862.12, 0.283542
1862.79, 0.283542
1863.46, 0.283641
1864.13, 0.283492
1864.8, 0.283245
1865.48, 0.283294
1866.15, 0.283393
1866.82, 0.283492
1867.49, 0.283591
1868.16, 0.283492
1868.84, 0.283344
1869.51, 0.283344
1870.19, 0.283195
1870.86, 0.283542
1871.54, 0.283344
1872.21, 0.282948
1872.89, 0.283096
1873.56, 0.283096
1874.24, 0.283146
1874.92, 0.282899
1875.6, 0.282849
1876.28, 0.282899
1876.96, 0.283047
1877.64, 0.282800
1878.32, 0.282503
1879.0, 0.282354
1879.68, 0.282354
1880.36, 0.282305
1881.04, 0.282057
1881.73, 0.282057
1882.41, 0.282206
1883.09, 0.282255
1883.78, 0.282404
1884.46, 0.282354
1885.15, 0.282008
1885.83, 0.281909
1886.52, 0.282008
1887.21, 0.282107
1887.89, 0.281909
1888.58, 0.281711
1889.27, 0.281612
1889.96, 0.281711
1890.65, 0.281761
1891.34, 0.281662
1892.03, 0.281513
1892.72, 0.281464
1893.41, 0.281365
1894.1, 0.281216
1894.79, 0.281167
1895.49, 0.281167
1896.18, 0.281068
1896.87, 0.281117
1897.57, 0.281167
1898.26, 0.281018
1898.96, 0.280969
1899.65, 0.281117
1900.35, 0.280969
1901.05, 0.280870
1901.74, 0.280722
1902.44, 0.280771
1903.14, 0.280969
1903.84, 0.280870
1904.54, 0.280870
1905.24, 0.280870
1905.94, 0.280771
1906.64, 0.280771
1907.34, 0.280623
1908.04, 0.280375
1908.75, 0.280326
1909.45, 0.280276
1910.15, 0.280474
1910.86, 0.280623
1911.56, 0.280573
1912.27, 0.280524
1912.97, 0.280623
1913.68, 0.280771
1914.39, 0.280623
1915.09, 0.280425
1915.8, 0.280524
1916.51, 0.280573
1917.22, 0.280425
1917.93, 0.280474
1918.64, 0.280524
1919.35, 0.280524
1920.06, 0.280722
1920.77, 0.280771
1921.48, 0.280425
1922.19, 0.280276
1922.91, 0.280326
1923.62, 0.280474
1924.33, 0.280524
1925.05, 0.280425
1925.76, 0.280425
1926.48, 0.280425
1927.19, 0.280425
1927.91, 0.280573
1928.63, 0.280821
1929.35, 0.280672
1930.07, 0.280524
1930.78, 0.280375
1931.5, 0.280227
1932.22, 0.280029
1932.94, 0.280078
1933.66, 0.280128
1934.39, 0.280326
1935.11, 0.280474
1935.83, 0.280375
1936.55, 0.280128
1937.28, 0.280078
1938.0, 0.280227
1938.73, 0.280227
1939.45, 0.280128
1940.18, 0.280276
1940.9, 0.280425
1941.63, 0.280227
1942.36, 0.280029
1943.09, 0.279930
1943.81, 0.279831
1944.54, 0.279831
1945.27, 0.280128
1946.0, 0.280227
1946.73, 0.280029
1947.47, 0.279930
1948.2, 0.279930
1948.93, 0.279831
1949.66, 0.279683
1950.4, 0.279683
1951.13, 0.279831
1951.86, 0.279732
1952.6, 0.279534
1953.34, 0.279485
1954.07, 0.279485
1954.81, 0.279534
1955.55, 0.279584
1956.29, 0.279485
1957.02, 0.279435
1957.76, 0.279336
1958.5, 0.279336
1959.24, 0.279237
1959.98, 0.279138
1960.72, 0.279188
1961.47, 0.279188
1962.21, 0.279188
1962.95, 0.279089
1963.7, 0.278941
1964.44, 0.278990
1965.18, 0.278990
1965.93, 0.278792
1966.67, 0.278743
1967.42, 0.278891
1968.17, 0.278792
1968.92, 0.278644
1969.66, 0.278693
1970.41, 0.278891
1971.16, 0.278891
1971.91, 0.278693
1972.66, 0.278644
1973.41, 0.278644
1974.16, 0.278594
1974.92, 0.278495
1975.67, 0.278446
1976.42, 0.278446
1977.18, 0.278495
1977.93, 0.278594
1978.69, 0.278545
1979.44, 0.278545
1980.2, 0.278545
1980.95, 0.278594
1981.71, 0.278693
1982.47, 0.278644
1983.23, 0.278545
1983.99, 0.278495
1984.74, 0.278495
1985.51, 0.278446
1986.27, 0.278446
1987.03, 0.278396
1987.79, 0.278545
1988.55, 0.278594
1989.32, 0.278347
1990.08, 0.278099
1990.84, 0.278149
1991.61, 0.278198
1992.37, 0.278297
1993.14, 0.278396
1993.9, 0.278297
1994.67, 0.278050
1995.44, 0.278001
1996.21, 0.278149
1996.98, 0.278297
1997.75, 0.278248
1998.52, 0.278248
1999.29, 0.278297
2000.06, 0.278099
2000.83, 0.278001
2001.6, 0.278099
2002.38, 0.278198
2003.15, 0.278198
2003.93, 0.278248
2004.7, 0.278248
2005.48, 0.278347
2006.25, 0.278446
2007.03, 0.278594
2007.81, 0.278446
2008.58, 0.278347
2009.36, 0.278495
2010.14, 0.278644
2010.92, 0.278644
2011.7, 0.278495
2012.48, 0.278396
2013.26, 0.278495
2014.05, 0.278545
2014.83, 0.278594
2015.61, 0.278743
2016.4, 0.278644
2017.18, 0.278594
2017.97, 0.278594
2018.75, 0.278644
2019.54, 0.278644
2020.32, 0.278693
2021.11, 0.278594
2021.9, 0.278347
2022.69, 0.278446
2023.48, 0.278495
2024.27, 0.278545
2025.06, 0.278594
2025.85, 0.278495
2026.64, 0.278545
2027.44, 0.278743
2028.23, 0.278842
2029.02, 0.278693
2029.82, 0.278446
2030.61, 0.278297
2031.41, 0.278396
2032.2, 0.278545
2033.0, 0.278594
2033.8, 0.278644
2034.6, 0.278545
2035.4, 0.278396
2036.2, 0.278297
2037.0, 0.278347
2037.8, 0.278446
2038.6, 0.278446
2039.4, 0.278446
2040.2, 0.278297
2041.01, 0.278248
2041.81, 0.278297
2042.61, 0.278248
2043.42, 0.278347
2044.22, 0.278396
2045.03, 0.278248
2045.84, 0.278149
2046.65, 0.278446
2047.46, 0.278594
2048.26, 0.278545
2049.07, 0.278495
2049.88, 0.278594
2050.69, 0.278396
2051.51, 0.278248
2052.32, 0.278149
2053.13, 0.278149
2053.94, 0.278248
2054.76, 0.278347
2055.57, 0.278248
2056.39, 0.278297
2057.2, 0.278297
2058.02, 0.278198
2058.84, 0.278198
2059.66, 0.278099
2060.48, 0.278198
2061.29, 0.278198
2062.11, 0.278198
2062.94, 0.278297
2063.76, 0.278248
2064.58, 0.278001
2065.4, 0.277704
2066.22, 0.277803
2067.05, 0.277852
2067.87, 0.277704
2068.7, 0.277704
2069.52, 0.277803
2070.35, 0.277852
2071.18, 0.277753
2072.0, 0.277506
2072.83, 0.277555
2073.66, 0.277753
2074.49, 0.277753
2075.32, 0.277605
2076.15, 0.277308
2076.98, 0.277110
2077.82, 0.277159
2078.65, 0.277357
2079.48, 0.277357
2080.32, 0.277209
2081.15, 0.277209
2081.99, 0.277209
2082.83, 0.277159
2083.66, 0.277258
2084.5, 0.277110
2085.34, 0.277060
2086.18, 0.277060
2087.02, 0.277011
2087.86, 0.277060
2088.7, 0.277110
2089.54, 0.277159
2090.39, 0.277110
2091.23, 0.277159
2092.07, 0.277011
2092.92, 0.276863
2093.76, 0.276764
2094.61, 0.276813
2095.45, 0.276863
2096.3, 0.276863
2097.15, 0.277060
2098.0, 0.276962
2098.85, 0.276912
2099.7, 0.276912
2100.55, 0.276962
2101.4, 0.276813
2102.25, 0.276863
2103.1, 0.276863
2103.96, 0.276813
2104.81, 0.276863
2105.67, 0.276962
2106.52, 0.277110
2107.38, 0.277011
2108.24, 0.276962
2109.09, 0.277060
2109.95, 0.277110
2110.81, 0.277110
2111.67, 0.277159
2112.53, 0.277011
2113.39, 0.276912
2114.25, 0.276912
2115.12, 0.277110
2115.98, 0.277110
2116.84, 0.276962
2117.71, 0.277159
2118.58, 0.277209
2119.44, 0.277110
2120.31, 0.277159
2121.18, 0.277110
2122.04, 0.277159
2122.91, 0.277209
2123.78, 0.277110
2124.65, 0.277011
2125.52, 0.277159
2126.4, 0.277308
2127.27, 0.277308
2128.14, 0.277159
2129.02, 0.277011
2129.89, 0.277110
2130.77, 0.277110
2131.64, 0.276912
2132.52, 0.276764
2133.4, 0.276962
2134.27, 0.277159
2135.15, 0.276962
2136.03, 0.276863
2136.91, 0.276962
2137.79, 0.277110
2138.68, 0.277209
2139.56, 0.277110
2140.44, 0.277110
2141.33, 0.277060
2142.21, 0.277209
2143.1, 0.277258
2143.99, 0.277258
2144.87, 0.277159
2145.76, 0.277110
2146.65, 0.277308
2147.54, 0.277357
2148.43, 0.277258
2149.32, 0.277308
2150.21, 0.277209
2151.1, 0.277159
2151.99, 0.277258
2152.89, 0.277209
2153.78, 0.277159
2154.68, 0.277308
2155.57, 0.277151
2156.47, 0.276837
2157.37, 0.277098
2158.27, 0.277256
2159.16, 0.276994
2160.06, 0.277151
2160.96, 0.277151
2161.86, 0.276941
2162.77, 0.276784
2163.67, 0.276732
2164.57, 0.276889
2165.48, 0.276994
2166.38, 0.277046
2167.29, 0.276732
2168.2, 0.276732
2169.1, 0.276941
2170.01, 0.277046
2170.92, 0.277151
2171.83, 0.277151
2172.74, 0.276889
2173.65, 0.276470
2174.56, 0.276104
2175.47, 0.276156
2176.39, 0.276261
2177.3, 0.276365
2178.22, 0.276261
2179.13, 0.276365
2180.05, 0.276679
2180.96, 0.276784
2181.88, 0.276627
2182.8, 0.276104
2183.72, 0.275475
2184.64, 0.276104
2185.56, 0.276470
2186.48, 0.276261
2187.41, 0.276418
2188.33, 0.276627
2189.25, 0.276261
2190.18, 0.276365
2191.1, 0.276418
2192.03, 0.275737
2192.96, 0.275737
2193.89, 0.276051
2194.82, 0.276313
2195.74, 0.276104
2196.68, 0.276051
2197.61, 0.276208
2198.54, 0.276261
2199.47, 0.276261
2200.4, 0.276365
2201.34, 0.275999
2202.28, 0.275737
2203.21, 0.275632
2204.15, 0.275423
2205.08, 0.275318
2206.02, 0.275475
2206.96, 0.275685
2207.9, 0.275789
2208.84, 0.276261
2209.78, 0.276261
2210.73, 0.275894
2211.67, 0.275266
2212.61, 0.275475
2213.56, 0.275946
2214.5, 0.275946
2215.45, 0.275842
2216.4, 0.275580
2217.35, 0.275999
2218.3, 0.276156
2219.24, 0.275946
2220.2, 0.275789
2221.15, 0.275266
2222.1, 0.275370
2223.05, 0.275842
2224.0, 0.275737
2224.96, 0.275528
2225.91, 0.275266
2226.87, 0.275213
2227.83, 0.275213
2228.79, 0.275161
2229.74, 0.274690
2230.7, 0.274585
2231.66, 0.274794
2232.63, 0.274585
2233.59, 0.274637
2234.55, 0.275213
2235.51, 0.275109
2236.48, 0.274794
2237.44, 0.274480
2238.41, 0.274794
2239.38, 0.275004
2240.34, 0.274585
2241.31, 0.274271
2242.28, 0.274376
2243.25, 0.274637
2244.22, 0.274376
2245.19, 0.274009
2246.17, 0.274271
2247.14, 0.274218
2248.12, 0.274009
2249.09, 0.274009
2250.07, 0.273852
2251.04, 0.273800
2252.02, 0.273695
2253.0, 0.274271
2253.98, 0.274585
2254.96, 0.273904
2255.94, 0.273171
2256.92, 0.272857
2257.91, 0.272805
2258.89, 0.273276
2259.88, 0.273643
2260.86, 0.273485
2261.85, 0.273014
2262.83, 0.272752
2263.82, 0.272543
2264.81, 0.272334
2265.8, 0.272229
2266.79, 0.271862
2267.78, 0.271862
2268.78, 0.271862
2269.77, 0.271548
2270.76, 0.271339
2271.76, 0.271443
2272.75, 0.271443
2273.75, 0.271129
2274.75, 0.270710
2275.75, 0.270606
2276.75, 0.270606
2277.75, 0.270658
2278.75, 0.270501
2279.75, 0.270291
2280.75, 0.270082
2281.76, 0.269558
2282.76, 0.268878
2283.77, 0.268721
2284.77, 0.268825
2285.78, 0.268354
2286.79, 0.267569
2287.8, 0.267150
2288.81, 0.266678
2289.82, 0.266102
2290.83, 0.265841
2291.84, 0.265684
2292.86, 0.266102
2293.87, 0.266312
2294.89, 0.266417
2295.91, 0.266626
2296.92, 0.266888
2297.94, 0.266940
2298.96, 0.266731
2299.98, 0.266417
2301.0, 0.266521
2302.02, 0.266417
2303.04, 0.265893
2304.07, 0.265108
2305.09, 0.264584
2306.12, 0.263956
2307.15, 0.262908
2308.17, 0.262018
2309.2, 0.261547
2310.23, 0.260814
2311.26, 0.260028
2312.29, 0.259610
2313.32, 0.259662
2314.35, 0.259714
2315.39, 0.259610
2316.42, 0.260395
2317.46, 0.261233
2318.5, 0.261652
2319.53, 0.261809
2320.57, 0.262332
2321.61, 0.262647
2322.65, 0.262856
2323.69, 0.262908
2324.73, 0.263275
2325.78, 0.264008
2326.82, 0.264689
2327.86, 0.265160
2328.91, 0.265369
2329.96, 0.266050
2331.01, 0.266417
2332.05, 0.266312
2333.1, 0.266364
2334.15, 0.266155
2335.21, 0.266364
2336.26, 0.266626
2337.31, 0.266521
2338.36, 0.266993
2339.42, 0.267569
2340.48, 0.267621
2341.53, 0.267778
2342.59, 0.268092
2343.65, 0.268040
2344.71, 0.267883
2345.77, 0.267935
2346.83, 0.268249
2347.9, 0.268773
2348.96, 0.268878
2350.02, 0.269192
2351.09, 0.269663
2352.16, 0.269768
2353.23, 0.269820
2354.29, 0.269820
2355.36, 0.269715
2356.43, 0.269820
2357.51, 0.270134
2358.58, 0.270396
2359.65, 0.270501
2360.73, 0.270134
2361.8, 0.270030
2362.88, 0.270239
2363.96, 0.270239
2365.03, 0.270448
2366.11, 0.270396
2367.19, 0.270396
2368.27, 0.270344
2369.36, 0.269925
2370.44, 0.269611
2371.53, 0.269663
2372.61, 0.269558
2373.7, 0.269244
2374.78, 0.268721
2375.87, 0.268302
2376.96, 0.268302
2378.05, 0.268197
2379.14, 0.267935
2380.24, 0.267935
2381.33, 0.267830
2382.42, 0.267726
2383.52, 0.267621
2384.61, 0.267516
2385.71, 0.267150
2386.81, 0.266783
2387.91, 0.266835
2389.01, 0.267202
2390.11, 0.267097
2391.22, 0.266783
2392.32, 0.266993
2393.42, 0.266940
2394.53, 0.267045
2395.64, 0.267359
2396.74, 0.267412
2397.85, 0.267412
2398.96, 0.267726
2400.07, 0.267987
2401.18, 0.267987
2402.3, 0.268145
2403.41, 0.268616
2404.52, 0.268878
2405.64, 0.268825
2406.76, 0.268773
2407.88, 0.268878
2408.99, 0.269035
2410.11, 0.268721
2411.23, 0.268721
2412.36, 0.268930
2413.48, 0.269035
2414.6, 0.268982
2415.73, 0.268982
2416.85, 0.268982
2417.98, 0.268668
2419.11, 0.268563
2420.24, 0.268563
2421.37, 0.268406
2422.5, 0.268302
2423.64, 0.268092
2424.77, 0.268092
2425.9, 0.268145
2427.04, 0.268145
2428.18, 0.267883
2429.31, 0.267516
2430.45, 0.267569
2431.59, 0.267516
2432.73, 0.267307
2433.88, 0.267307
2435.02, 0.267307
2436.16, 0.267359
2437.31, 0.267359
2438.45, 0.267464
2439.6, 0.267726
2440.75, 0.267830
2441.9, 0.267359
2443.05, 0.267359
2444.2, 0.267569
2445.35, 0.267569
2446.51, 0.267621
2447.67, 0.267830
2448.82, 0.267673
2449.98, 0.267726
2451.14, 0.267830
2452.3, 0.267883
2453.46, 0.267883
2454.62, 0.267830
2455.78, 0.267621
2456.94, 0.267516
2458.11, 0.267778
2459.28, 0.268040
2460.44, 0.267883
2461.61, 0.267516
2462.78, 0.267569
2463.95, 0.267516
2465.12, 0.267516
2466.3, 0.267464
2467.47, 0.267464
2468.65, 0.267412
2469.82, 0.267254
2471.0, 0.267150
2472.18, 0.267464
2473.36, 0.267464
2474.54, 0.267412
2475.72, 0.267726
2476.9, 0.267412
2478.08, 0.267254
2479.27, 0.267359
2480.46, 0.267412
2481.64, 0.267621
2482.83, 0.267516
2484.02, 0.267516
2485.21, 0.267621
2486.4, 0.267621
2487.6, 0.267621
2488.79, 0.267516
2489.99, 0.267412
2491.18, 0.267097
2492.38, 0.267150
2493.58, 0.267202
2494.78, 0.267150
2495.98, 0.266888
2497.18, 0.266678
2498.39, 0.266783
2499.59, 0.266678
2500.8, 0.266417
2502.01, 0.266469
2503.21, 0.266260
2504.42, 0.266260
2505.63, 0.266260
2506.84, 0.266050
2508.06, 0.265893
2509.27, 0.266102
2510.49, 0.266364
2511.7, 0.266521
2512.92, 0.266417
2514.14, 0.266364
2515.36, 0.266574
2516.58, 0.266678
2517.8, 0.266835
2519.03, 0.266888
2520.25, 0.266626
2521.48, 0.266626
2522.7, 0.266993
2523.93, 0.267359
2525.16, 0.267150
2526.39, 0.266888
2527.62, 0.266783
2528.86, 0.266888
2530.09, 0.266888
2531.33, 0.267150
2532.56, 0.267359
2533.8, 0.267254
2535.04, 0.267150
2536.28, 0.267254
2537.52, 0.267202
2538.76, 0.266993
2540.01, 0.266835
2541.25, 0.266888
2542.5, 0.267150
2543.75, 0.267516
2544.99, 0.267412
2546.24, 0.267412
2547.49, 0.267359
2548.75, 0.267045
2550.0, 0.266783
2551.26, 0.266888
2552.51, 0.266888
2553.77, 0.266731
2555.03, 0.266521
2556.29, 0.266783
2557.55, 0.266626
2558.81, 0.266417
2560.08, 0.266783
2561.34, 0.267569
2562.61, 0.267778
2563.88, 0.267726
2565.14, 0.267412
2566.41, 0.266888
2567.68, 0.266626
2568.96, 0.267202
2570.23, 0.267673
2571.51, 0.266993
2572.78, 0.267307
2574.06, 0.268092
2575.34, 0.267778
2576.62, 0.267726
2577.9, 0.267569
2579.18, 0.267045
2580.47, 0.267150
2581.75, 0.267150
2583.04, 0.267359
2584.32, 0.268459
2585.61, 0.267883
2586.9, 0.267883
2588.2, 0.268092
2589.49, 0.267726
2590.78, 0.267202
2592.08, 0.266835
2593.37, 0.267412
2594.67, 0.269768
2595.97, 0.270396
2597.27, 0.268721
2598.57, 0.267569
2599.88, 0.267359
2601.18, 0.267569
2602.49, 0.267726
2603.79, 0.267830
2605.1, 0.268459
2606.41, 0.268878
2607.72, 0.268406
2609.03, 0.268040
2610.35, 0.267987
2611.66, 0.267621
2612.98, 0.267621
2614.3, 0.267412
2615.62, 0.267412
2616.94, 0.268721
2618.26, 0.268563
2619.58, 0.268249
2620.91, 0.268773
2622.23, 0.267726
2623.56, 0.267150
2624.89, 0.267202
2626.22, 0.268197
2627.55, 0.268459
2628.88, 0.267987
2630.21, 0.268878
2631.55, 0.268773
2632.89, 0.268040
2634.22, 0.268040
2635.56, 0.267621
2636.9, 0.267412
2638.25, 0.267045
2639.59, 0.266783
2640.93, 0.267045
2642.28, 0.267359
2643.63, 0.266940
2644.98, 0.266678
2646.33, 0.266626
2647.68, 0.266469
2649.03, 0.266260
2650.39, 0.265893
2651.74, 0.266155
2653.1, 0.266417
2654.46, 0.265631
2655.82, 0.265422
2657.18, 0.265212
2658.54, 0.265160
2659.9, 0.265317
2661.27, 0.264898
2662.64, 0.264060
2664.01, 0.263746
2665.38, 0.264270
2666.74, 0.264374
2668.12, 0.263013
2669.49, 0.262018
2670.87, 0.262280
2672.24, 0.259400
2673.62, 0.256363
2675.0, 0.253954
2676.38, 0.251651
2677.76, 0.248090
2679.15, 0.243430
2680.54, 0.237618
2681.92, 0.231334
2683.31, 0.225522
2684.7, 0.219291
2686.09, 0.213479
2687.48, 0.207876
2688.88, 0.202640
2690.27, 0.197142
2691.67, 0.191696
2693.07, 0.186722
2694.47, 0.181486
2695.87, 0.174155
2697.27, 0.164259
2698.67, 0.154101
2700.08, 0.147608
2701.49, 0.144257
2702.9, 0.140068
2704.31, 0.133837
2705.72, 0.127239
2707.13, 0.121479
2708.54, 0.118338
2709.96, 0.117971
2711.38, 0.119751
2712.8, 0.121532
2714.22, 0.122841
2715.64, 0.123312
2717.06, 0.121113
2718.49, 0.116400
2719.91, 0.114306
2721.34, 0.119018
2722.77, 0.125825
2724.2, 0.133627
2725.63, 0.139754
2727.07, 0.142633
2728.5, 0.143576
2729.94, 0.142581
2731.38, 0.141272
2732.82, 0.142686
2734.26, 0.146246
2735.7, 0.149283
2737.15, 0.150488
2738.59, 0.151692
2740.04, 0.152949
2741.49, 0.153472
2742.94, 0.153368
2744.39, 0.153839
2745.84, 0.155200
2747.3, 0.156562
2748.76, 0.157661
2750.21, 0.158708
2751.67, 0.159337
2753.14, 0.159651
2754.6, 0.160698
2756.06, 0.161903
2757.53, 0.161903
2759.0, 0.161641
2760.46, 0.161641
2761.94, 0.162217
2763.41, 0.162793
2764.88, 0.162897
2766.36, 0.163369
2767.83, 0.164102
2769.31, 0.164468
2770.79, 0.165097
2772.27, 0.165411
2773.76, 0.165358
2775.24, 0.165306
2776.73, 0.165516
2778.22, 0.166039
2779.71, 0.166667
2781.2, 0.167348
2782.69, 0.168029
2784.18, 0.168657
2785.68, 0.169443
2787.18, 0.170438
2788.68, 0.171118
2790.18, 0.171589
2791.68, 0.172165
2793.19, 0.172689
2794.69, 0.173160
2796.2, 0.173632
2797.71, 0.174155
2799.22, 0.174679
2800.73, 0.175150
2802.24, 0.175831
2803.76, 0.176721
2805.28, 0.177140
2806.8, 0.177663
2808.32, 0.178239
2809.84, 0.178606
2811.36, 0.179025
2812.89, 0.179601
2814.42, 0.180491
2815.94, 0.181276
2817.48, 0.181800
2819.01, 0.182690
2820.54, 0.183685
2822.08, 0.184261
2823.61, 0.185046
2825.15, 0.185622
2826.69, 0.186041
2828.23, 0.186670
2829.78, 0.187036
2831.32, 0.187246
2832.87, 0.187822
2834.42, 0.188450
2835.97, 0.188607
2837.52, 0.188869
2839.08, 0.189340
2840.63, 0.189550
2842.19, 0.189445
2843.75, 0.189602
2845.31, 0.189759
2846.87, 0.189968
2848.44, 0.190178
2850.0, 0.190649
2851.57, 0.190806
2853.14, 0.190859
2854.71, 0.191225
2856.28, 0.191435
2857.86, 0.191382
2859.43, 0.191592
2861.01, 0.191696
2862.59, 0.191801
2864.17, 0.191958
2865.76, 0.192063
2867.34, 0.192272
2868.93, 0.192220
2870.52, 0.192115
2872.11, 0.192168
2873.7, 0.192115
2875.29, 0.192011
2876.89, 0.192011
2878.49, 0.192011
2880.08, 0.192168
2881.69, 0.192272
2883.29, 0.192429
2884.89, 0.192534
2886.5, 0.192534
2888.11, 0.192744
2889.72, 0.192848
2891.33, 0.193110
2892.94, 0.193477
2894.56, 0.193791
2896.17, 0.194000
2897.79, 0.194053
2899.42, 0.194157
2901.04, 0.194314
2902.66, 0.194314
2904.29, 0.194472
2905.92, 0.194681
2907.55, 0.194890
2909.18, 0.194943
2910.81, 0.194786
2912.45, 0.194838
2914.08, 0.194943
2915.72, 0.194943
2917.36, 0.194995
2919.01, 0.194995
2920.65, 0.195048
2922.3, 0.194995
2923.94, 0.195100
2925.59, 0.195309
2927.25, 0.195414
2928.9, 0.195414
2930.56, 0.195571
2932.21, 0.195781
2933.87, 0.195938
2935.53, 0.196252
2937.2, 0.196357
2938.86, 0.196566
2940.53, 0.196671
2942.2, 0.196828
2943.87, 0.196985
2945.54, 0.197247
2947.22, 0.197613
2948.89, 0.197666
2950.57, 0.197718
2952.25, 0.197980
2953.93, 0.198189
2955.62, 0.198189
2957.3, 0.198294
2958.99, 0.198556
2960.68, 0.198713
2962.37, 0.198818
2964.07, 0.198975
2965.76, 0.199132
2967.46, 0.199394
2969.16, 0.199498
2970.86, 0.199498
2972.56, 0.199708
2974.27, 0.199917
2975.98, 0.199917
2977.69, 0.200074
2979.4, 0.200231
2981.11, 0.200441
2982.83, 0.200703
2984.54, 0.200807
2986.26, 0.200860
2987.98, 0.200912
2989.71, 0.201174
2991.43, 0.201436
2993.16, 0.201593
2994.89, 0.201907
2996.62, 0.202221
2998.35, 0.202431
3000.09, 0.202640
3001.83, 0.202797
3003.57, 0.202954
3005.31, 0.203111
3007.05, 0.203216
3008.79, 0.203268
3010.54, 0.203478
3012.29, 0.203740
3014.04, 0.203897
3015.8, 0.204054
3017.55, 0.204211
3019.31, 0.204368
3021.07, 0.204525
3022.83, 0.204734
3024.59, 0.205049
3026.36, 0.205258
3028.13, 0.205415
3029.9, 0.205625
3031.67, 0.205729
3033.44, 0.205834
3035.22, 0.205939
3037.0, 0.206201
3038.78, 0.206358
3040.56, 0.206515
3042.34, 0.206724
3044.13, 0.206881
3045.92, 0.207038
3047.71, 0.207091
3049.5, 0.207248
3051.3, 0.207510
3053.09, 0.207771
3054.89, 0.207876
3056.69, 0.207981
3058.5, 0.208033
3060.3, 0.208243
3062.11, 0.208400
3063.92, 0.208609
3065.73, 0.208662
3067.55, 0.208976
3069.36, 0.209185
3071.18, 0.209185
3073.0, 0.209342
3074.82, 0.209709
3076.65, 0.209761
3078.48, 0.209709
3080.31, 0.209814
3082.14, 0.209866
3083.97, 0.209971
3085.8, 0.210075
3087.64, 0.210128
3089.48, 0.210232
3091.33, 0.210442
3093.17, 0.210547
3095.02, 0.210808
3096.87, 0.211018
3098.72, 0.211123
3100.57, 0.211280
3102.43, 0.211489
3104.28, 0.211594
3106.14, 0.211751
3108.01, 0.211960
3109.87, 0.212222
3111.74, 0.212589
3113.61, 0.212851
3115.48, 0.213008
3117.35, 0.213217
3119.23, 0.213322
3121.1, 0.213479
3122.98, 0.213531
3124.87, 0.213636
3126.75, 0.213845
3128.64, 0.214160
3130.53, 0.214369
3132.42, 0.214578
3134.31, 0.214945
3136.21, 0.215259
3138.11, 0.215573
3140.01, 0.215888
3141.91, 0.216149
3143.82, 0.216463
3145.73, 0.216568
3147.64, 0.216568
3149.55, 0.216830
3151.46, 0.217301
3153.38, 0.217563
3155.3, 0.217877
3157.22, 0.218087
3159.14, 0.218296
3161.07, 0.218558
3163.0, 0.218820
3164.93, 0.219239
3166.86, 0.219553
3168.8, 0.219762
3170.74, 0.219919
3172.68, 0.220181
3174.62, 0.220443
3176.56, 0.220810
3178.51, 0.221176
3180.46, 0.221543
3182.42, 0.221647
3184.37, 0.221804
3186.33, 0.222171
3188.29, 0.222380
3190.25, 0.222695
3192.21, 0.223061
3194.18, 0.223480
3196.15, 0.223689
3198.12, 0.223846
3200.09, 0.224213
3202.07, 0.224422
3204.05, 0.224632
3206.03, 0.224946
3208.02, 0.225208
3210.0, 0.225417
3211.99, 0.225679
3213.98, 0.225941
3215.98, 0.226203
3217.97, 0.226412
3219.97, 0.226517
3221.97, 0.226674
3223.98, 0.226883
3225.98, 0.227093
3227.99, 0.227355
3230.0, 0.227669
3232.02, 0.227878
3234.03, 0.228088
3236.05, 0.228350
3238.07, 0.228559
3240.1, 0.228821
3242.12, 0.229083
3244.15, 0.229240
3246.18, 0.229554
3248.22, 0.229763
3250.25, 0.230025
3252.29, 0.230339
3254.33, 0.230444
3256.38, 0.230549
3258.43, 0.230758
3260.47, 0.231125
3262.53, 0.231334
3264.58, 0.231596
3266.64, 0.231805
3268.7, 0.232015
3270.76, 0.232277
3272.82, 0.232539
3274.89, 0.232696
3276.96, 0.232905
3279.04, 0.233272
3281.11, 0.233481
3283.19, 0.233638
3285.27, 0.233900
3287.35, 0.234005
3289.44, 0.234057
3291.53, 0.234162
3293.62, 0.234424
3295.71, 0.234633
3297.81, 0.234842
3299.91, 0.234895
3302.01, 0.234947
3304.11, 0.235104
3306.22, 0.235261
3308.33, 0.235314
3310.44, 0.235471
3312.56, 0.235733
3314.68, 0.235942
3316.8, 0.236152
3318.92, 0.236361
3321.05, 0.236832
3323.18, 0.237094
3325.31, 0.237251
3327.44, 0.237408
3329.58, 0.237565
3331.72, 0.237775
3333.86, 0.237984
3336.01, 0.237932
3338.16, 0.237775
3340.31, 0.237565
3342.46, 0.237199
3344.61, 0.236885
3346.77, 0.236361
3348.94, 0.235994
3351.1, 0.235628
3353.27, 0.235418
3355.44, 0.235314
3357.61, 0.235052
3359.79, 0.234790
3361.97, 0.234633
3364.15, 0.234214
3366.33, 0.233795
3368.52, 0.233429
3370.71, 0.232957
3372.9, 0.232591
3375.1, 0.232277
3377.3, 0.232067
3379.5, 0.232015
3381.71, 0.232172
3383.91, 0.232486
3386.12, 0.232905
3388.34, 0.233272
3390.55, 0.233638
3392.77, 0.233848
3394.99, 0.233900
3397.22, 0.233743
3399.45, 0.233219
3401.68, 0.232696
3403.91, 0.232277
3406.15, 0.231753
3408.39, 0.231177
3410.63, 0.230758
3412.87, 0.230496
3415.12, 0.230444
3417.37, 0.230863
3419.63, 0.231753
3421.88, 0.232905
3424.14, 0.234005
3426.41, 0.235261
3428.67, 0.236518
3430.94, 0.237513
3433.21, 0.238403
3435.49, 0.239241
3437.77, 0.239922
3440.05, 0.240655
3442.33, 0.241283
3444.62, 0.241911
3446.91, 0.242435
3449.2, 0.242959
3451.5, 0.243482
3453.8, 0.243901
3456.1, 0.244320
3458.41, 0.244844
3460.72, 0.245262
3463.03, 0.245315
3465.34, 0.245210
3467.66, 0.244948
3469.98, 0.244844
3472.31, 0.244686
3474.63, 0.244372
3476.96, 0.244006
3479.3, 0.243901
3481.64, 0.243744
3483.97, 0.243796
3486.32, 0.244163
3488.66, 0.244477
3491.01, 0.244686
3493.36, 0.244634
3495.72, 0.244582
3498.08, 0.244634
3500.44, 0.244739
3502.81, 0.245053
3505.18, 0.245786
3507.55, 0.246886
3509.92, 0.248038
3512.3, 0.249085
3514.68, 0.250132
3517.06, 0.251284
3519.45, 0.252436
3521.84, 0.253431
3524.24, 0.254216
3526.64, 0.255054
3529.04, 0.255892
3531.44, 0.256468
3533.85, 0.257096
3536.26, 0.257777
3538.67, 0.258248
3541.09, 0.258824
3543.51, 0.259191
3545.93, 0.259557
3548.36, 0.259924
3550.79, 0.260186
3553.22, 0.260552
3555.66, 0.260866
3558.1, 0.261233
3560.54, 0.261495
3562.99, 0.261704
3565.44, 0.261966
3567.9, 0.262280
3570.35, 0.262542
3572.81, 0.262856
3575.28, 0.263013
3577.75, 0.263223
3580.22, 0.263589
3582.69, 0.263851
3585.17, 0.263956
3587.65, 0.264113
3590.14, 0.264427
3592.62, 0.264846
3595.11, 0.265108
3597.61, 0.265212
3600.11, 0.265422
3602.61, 0.265631
3605.11, 0.265893
3607.62, 0.266102
3610.14, 0.266155
3612.65, 0.266260
3615.17, 0.266469
3617.69, 0.266783
3620.22, 0.266940
3622.75, 0.267045
3625.28, 0.267202
3627.82, 0.267412
3630.36, 0.267673
3632.9, 0.267830
3635.45, 0.267935
3638.0, 0.268092
3640.56, 0.268354
3643.12, 0.268459
3645.68, 0.268563
3648.24, 0.268721
3650.81, 0.268930
3653.39, 0.269035
3655.96, 0.269139
3658.54, 0.269192
3661.13, 0.269401
3663.71, 0.269715
3666.3, 0.269872
3668.9, 0.269820
3671.5, 0.270082
3674.1, 0.270291
3676.7, 0.270344
3679.31, 0.270448
3681.93, 0.270501
3684.54, 0.270763
3687.17, 0.270920
3689.79, 0.270972
3692.42, 0.271024
3695.05, 0.271234
3697.69, 0.271496
3700.32, 0.271705
3702.97, 0.271862
3705.61, 0.271862
3708.27, 0.272072
3710.92, 0.272334
3713.58, 0.272543
3716.24, 0.272648
3718.91, 0.272752
3721.58, 0.273014
3724.25, 0.273224
3726.93, 0.273328
3729.61, 0.273433
3732.29, 0.273590
3734.98, 0.273800
3737.67, 0.273957
3740.37, 0.273957
3743.07, 0.274114
3745.78, 0.274271
3748.49, 0.274323
3751.2, 0.274585
3753.91, 0.274794
3756.63, 0.274952
3759.36, 0.275109
3762.09, 0.275213
3764.82, 0.275370
3767.55, 0.275528
3770.29, 0.275737
3773.04, 0.275894
3775.78, 0.275946
3778.54, 0.276156
3781.29, 0.276313
3784.05, 0.276365
3786.82, 0.276470
3789.59, 0.276627
3792.36, 0.276732
3795.13, 0.276784
3797.92, 0.276837
3800.7, 0.276837
3803.49, 0.276784
3806.28, 0.276941
3809.08, 0.277046
3811.88, 0.277203
3814.68, 0.277203
3817.49, 0.277151
3820.31, 0.277046
3823.12, 0.276941
3825.94, 0.276889
3828.77, 0.276941
3831.6, 0.276994
3834.43, 0.276941
3837.27, 0.276889
3840.11, 0.276837
3842.96, 0.276784
3845.81, 0.276784
3848.67, 0.276732
3851.53, 0.276732
3854.39, 0.276784
3857.26, 0.276732
3860.13, 0.276679
3863.01, 0.276784
3865.89, 0.276837
3868.77, 0.276889
3871.66, 0.276889
3874.55, 0.276941
3877.45, 0.276889
3880.35, 0.276837
3883.26, 0.276941
3886.17, 0.276941
3889.09, 0.276941
3892.01, 0.277046
3894.93, 0.277098
3897.86, 0.277046
3900.79, 0.277098
3903.73, 0.277151
3906.67, 0.277046
3909.62, 0.277046
3912.57, 0.277046
3915.52, 0.276941
3918.48, 0.276994
3921.45, 0.276941
3924.42, 0.276889
3927.39, 0.276941
3930.37, 0.277046
3933.35, 0.277098
3936.34, 0.276994
3939.33, 0.276732
3942.32, 0.276470
3945.32, 0.276208
3948.33, 0.275894
3951.34, 0.275580
3954.35, 0.275318
3957.37, 0.275161
3960.39, 0.274899
3963.42, 0.274637
3966.45, 0.274585
3969.49, 0.274637
3972.53, 0.274690
3975.58, 0.274690
3978.63, 0.274794
3981.68, 0.274952
3984.75, 0.275056
3987.81, 0.275423
3990.88, 0.275894
3993.95, 0.276470
3997.03, 0.277098
4000.12, 0.277674
4003.21, 0.278250
4006.3, 0.279088
4009.4, 0.279874
4012.5, 0.280450
4015.61, 0.281130
4018.72, 0.281811
4021.84, 0.282282
4024.96, 0.282701
4028.09, 0.283120
4031.22, 0.283644
4034.36, 0.284010
4037.5, 0.284481
4040.65, 0.284796
4043.8, 0.285214
4046.96, 0.285633
4050.12, 0.286157
4053.29, 0.286524
4056.46, 0.286942
4059.64, 0.287152
4062.82, 0.287361
4066.0, 0.287675
4069.19, 0.288042
4072.39, 0.288409
4075.59, 0.288723
4078.8, 0.288880
4082.01, 0.289142
4085.23, 0.289403
4088.45, 0.289665
4091.68, 0.289875
4094.91, 0.290189
4098.15, 0.290398
4101.39, 0.290503
4104.63, 0.290660
4107.89, 0.290974
4111.14, 0.291236
4114.41, 0.291341
4117.67, 0.291550
4120.95, 0.291760
4124.23, 0.291917
4127.51, 0.292074
4130.8, 0.292231
4134.09, 0.292440
4137.39, 0.292493
4140.7, 0.292545
4144.01, 0.292597
4147.32, 0.292807
4150.64, 0.292912
4153.97, 0.293016
4157.3, 0.293069
4160.64, 0.293173
4163.98, 0.293331
4167.33, 0.293435
4170.68, 0.293435
4174.04, 0.293592
4177.4, 0.293697
4180.77, 0.293854
4184.14, 0.293907
4187.52, 0.293959
4190.91, 0.294116
4194.3, 0.294221
4197.69, 0.294168
4201.1, 0.294168
4204.5, 0.294325
4207.92, 0.294535
4211.34, 0.294797
4214.76, 0.295216
4218.19, 0.295373
4221.62, 0.295530
4225.06, 0.295634
4228.51, 0.295896
4231.96, 0.296158
4235.42, 0.296210
4238.88, 0.296210
4242.35, 0.296263
4245.83, 0.296106
4249.31, 0.295844
4252.79, 0.295530
4256.28, 0.295268
4259.78, 0.295216
4263.29, 0.295634
4266.79, 0.295792
4270.31, 0.295844
4273.83, 0.296001
4277.35, 0.296210
4280.89, 0.296158
4284.42, 0.296106
4287.97, 0.296053
4291.52, 0.296053
4295.07, 0.296001
4298.63, 0.295949
4302.2, 0.295792
4305.78, 0.295634
4309.35, 0.295530
4312.94, 0.295530
4316.53, 0.295530
4320.13, 0.295477
4323.73, 0.295373
4327.34, 0.295373
4330.96, 0.295216
4334.58, 0.295268
4338.21, 0.295216
4341.84, 0.295216
4345.48, 0.295163
4349.12, 0.295216
4352.77, 0.295268
4356.43, 0.295216
4360.1, 0.295111
4363.76, 0.295059
4367.44, 0.295216
4371.12, 0.295268
4374.81, 0.295216
4378.51, 0.295163
4382.21, 0.295111
4385.92, 0.295163
4389.63, 0.295216
4393.35, 0.295268
4397.08, 0.295216
4400.81, 0.295163
4404.55, 0.295163
4408.29, 0.295111
4412.04, 0.295111
4415.8, 0.295059
4419.57, 0.295059
4423.34, 0.295059
4427.12, 0.294954
4430.9, 0.295006
4434.69, 0.295059
4438.49, 0.295059
4442.29, 0.295059
4446.1, 0.294954
4449.92, 0.294901
4453.74, 0.294901
4457.57, 0.294901
4461.41, 0.294954
4465.25, 0.295006
4469.1, 0.295006
4472.95, 0.295111
4476.82, 0.295216
4480.69, 0.295216
4484.56, 0.295163
4488.44, 0.295163
4492.33, 0.295268
4496.23, 0.295320
4500.13, 0.295268
4504.04, 0.295111
4507.96, 0.295111
4511.88, 0.295163
4515.81, 0.295216
4519.75, 0.295216
4523.69, 0.295268
4527.65, 0.295268
4531.6, 0.295163
4535.57, 0.295216
4539.54, 0.295163
4543.52, 0.295059
4547.5, 0.295006
4551.5, 0.294954
4555.5, 0.294954
4559.5, 0.294954
4563.52, 0.294954
4567.54, 0.294901
4571.56, 0.294954
4575.6, 0.294901
4579.64, 0.294797
4583.69, 0.294692
4587.75, 0.294692
4591.81, 0.294640
4595.88, 0.294640
4599.96, 0.294587
4604.04, 0.294482
4608.14, 0.294430
4612.24, 0.294325
4616.34, 0.294168
4620.46, 0.294064
4624.58, 0.293959
4628.71, 0.293907
4632.84, 0.293749
4636.99, 0.293488
4641.14, 0.293278
4645.3, 0.293226
4649.47, 0.293069
4653.64, 0.292912
4657.82, 0.292755
4662.01, 0.292597
4666.21, 0.292493
4670.41, 0.292493
4674.62, 0.292440
4678.84, 0.292440
4683.07, 0.292336
4687.3, 0.292231
4691.54, 0.292179
4695.79, 0.292126
4700.05, 0.292022
4704.31, 0.292022
4708.59, 0.291917
4712.87, 0.291864
4717.15, 0.291812
4721.45, 0.291707
4725.76, 0.291550
4730.07, 0.291498
4734.39, 0.291446
4738.72, 0.291184
4743.05, 0.290974
4747.39, 0.290974
4751.75, 0.290817
4756.1, 0.290660
4760.47, 0.290451
4764.85, 0.290241
4769.23, 0.290084
4773.62, 0.289875
4778.02, 0.289613
4782.43, 0.289403
4786.85, 0.289246
4791.27, 0.289037
4795.7, 0.288775
4800.14, 0.288566
4804.59, 0.288409
4809.05, 0.288199
4813.51, 0.287885
4817.99, 0.287728
4822.47, 0.287728
4826.96, 0.287571
4831.46, 0.287257
4835.96, 0.287100
4840.48, 0.287100
4845.0, 0.287152
4849.54, 0.287047
4854.08, 0.286890
4858.63, 0.286733
4863.18, 0.286628
4867.75, 0.286471
4872.33, 0.286419
4876.91, 0.286262
4881.5, 0.286105
4886.1, 0.285843
4890.71, 0.285529
4895.33, 0.285214
4899.96, 0.285005
4904.59, 0.284586
4909.24, 0.284272
4913.89, 0.283905
4918.55, 0.283591
4923.22, 0.283225
4927.9, 0.282963
4932.59, 0.282701
4937.29, 0.282335
4942.0, 0.281968
4946.71, 0.281811
4951.44, 0.281549
4956.17, 0.281340
4960.91, 0.280921
4965.67, 0.280502
4970.43, 0.279926
4975.2, 0.279559
4979.98, 0.279245
4984.76, 0.278774
4989.56, 0.278093
4994.37, 0.277413
4999.18, 0.276732
5004.01, 0.276156
5008.84, 0.275423
5013.69, 0.274637
5018.54, 0.274009
5023.4, 0.273328
5028.28, 0.272491
5033.16, 0.271758
5038.05, 0.271024
5042.95, 0.270344
5047.86, 0.269768
5052.78, 0.269244
5057.71, 0.268668
5062.65, 0.268197
5067.6, 0.267726
5072.56, 0.267150
5077.53, 0.266521
5082.5, 0.265945
5087.49, 0.265265
5092.49, 0.264532
5097.5, 0.263694
5102.51, 0.262804
5107.54, 0.261861
5112.58, 0.260971
5117.62, 0.260028
5122.68, 0.258981
5127.75, 0.257934
5132.82, 0.257044
5137.91, 0.256101
5143.01, 0.255368
5148.12, 0.254740
5153.23, 0.254007
5158.36, 0.253379
5163.5, 0.252750
5168.65, 0.251965
5173.81, 0.251232
5178.98, 0.250289
5184.15, 0.249399
5189.34, 0.248352
5194.54, 0.247357
5199.75, 0.246362
5204.98, 0.245210
5210.21, 0.243953
5215.45, 0.242749
5220.7, 0.241335
5225.96, 0.240131
5231.23, 0.238927
5236.52, 0.237722
5241.81, 0.236256
5247.12, 0.234528
5252.44, 0.232748
5257.76, 0.230811
5263.1, 0.228559
5268.45, 0.226098
5273.81, 0.223428
5279.18, 0.220600
5284.56, 0.217354
5289.95, 0.214002
5295.36, 0.210337
5300.77, 0.206515
5306.2, 0.202535
5311.63, 0.198556
5317.08, 0.194786
5322.54, 0.191225
5328.01, 0.187769
5333.49, 0.184628
5338.98, 0.181695
5344.49, 0.179287
5350.0, 0.177245
5355.53, 0.175150
5361.07, 0.173108
5366.62, 0.171223
5372.18, 0.169495
5377.75, 0.167924
5383.34, 0.166301
5388.93, 0.164521
5394.54, 0.162636
5400.16, 0.160594
5405.79, 0.158394
5411.44, 0.156038
5417.09, 0.153577
5422.76, 0.150854
5428.43, 0.147503
5434.12, 0.144204
5439.83, 0.141115
5445.54, 0.138026
5451.26, 0.135146
5457.0, 0.132580
5462.75, 0.130643
5468.52, 0.129229
5474.29, 0.128182
5480.08, 0.127763
5485.88, 0.127763
5491.69, 0.128182
5497.51, 0.129019
5503.35, 0.130014
5509.2, 0.131061
5515.06, 0.132056
5520.93, 0.132947
5526.82, 0.133575
5532.71, 0.133889
5538.63, 0.134046
5544.55, 0.133994
5550.49, 0.133680
5556.44, 0.133208
5562.4, 0.132894
5568.37, 0.132842
5574.36, 0.132999
5580.36, 0.133470
5586.37, 0.133732
5592.4, 0.133941
5598.44, 0.134151
5604.49, 0.133941
5610.56, 0.133365
5616.63, 0.132685
5622.73, 0.131742
5628.83, 0.130538
5634.95, 0.129281
5641.08, 0.128182
5647.23, 0.126663
5653.39, 0.124935
5659.56, 0.123312
5665.74, 0.121741
5671.94, 0.120484
5678.15, 0.119071
5684.38, 0.117552
5690.62, 0.116295
5696.87, 0.114934
5703.14, 0.113625
5709.42, 0.112525
5715.72, 0.111059
5722.03, 0.109436
5728.35, 0.107813
5734.69, 0.106347
5741.03, 0.104881
5747.4, 0.103467
5753.78, 0.101739
5760.17, 0.100325
5766.58, 0.0992260
5773.0, 0.0974980
5779.44, 0.0958740
5785.88, 0.0944610
5792.35, 0.0930990
5798.83, 0.0918950
5805.32, 0.0906380
5811.83, 0.0895390
5818.35, 0.0887530
5824.89, 0.0877060
5831.45, 0.0862920
5838.01, 0.0849310
5844.59, 0.0838310
5851.19, 0.0828360
5857.8, 0.0819460
5864.43, 0.0811080
5871.07, 0.0800610
5877.73, 0.0795380
5884.4, 0.0791190
5891.09, 0.0783860
5897.79, 0.0782810
5904.5, 0.0779140
5911.23, 0.0778620
5917.98, 0.0781240
5924.75, 0.0787000
5931.53, 0.0795380
5938.32, 0.0807940
5945.13, 0.0814750
5951.96, 0.0823130
5958.8, 0.0833600
5965.65, 0.0846690
5972.53, 0.0859260
5979.42, 0.0869730
5986.32, 0.0883870
5993.24, 0.0898000
6000.18, 0.0907950
6007.13, 0.0922090
6014.1, 0.0937800
6021.08, 0.0951410
6028.09, 0.0965030
6035.1, 0.0981260
6042.14, 0.100116
6049.19, 0.103100
6056.25, 0.104671
6063.34, 0.105928
6070.44, 0.108284
6077.55, 0.110745
6084.69, 0.112840
6091.84, 0.115353
6099.0, 0.118023
6106.19, 0.121060
6113.39, 0.124726
6120.61, 0.127658
6127.84, 0.130014
6135.09, 0.132947
6142.36, 0.135826
6149.65, 0.138497
6156.95, 0.141272
6164.27, 0.143890
6171.61, 0.145880
6178.97, 0.148498
6186.34, 0.151430
6193.73, 0.153472
6201.14, 0.155148
6208.57, 0.157242
6216.01, 0.159127
6223.47, 0.160960
6230.95, 0.162583
6238.45, 0.164049
6245.97, 0.165306
6253.5, 0.166406
6261.06, 0.167401
6268.63, 0.168343
6276.21, 0.168919
6283.82, 0.169390
6291.45, 0.169704
6299.1, 0.169914
6306.76, 0.170228
6314.44, 0.170856
6322.14, 0.171537
6329.86, 0.172165
6337.6, 0.173213
6345.35, 0.174731
6353.13, 0.175045
6360.92, 0.175412
6368.74, 0.176459
6376.57, 0.177140
6384.43, 0.177506
6392.3, 0.178187
6400.19, 0.178763
6408.1, 0.180439
6416.03, 0.182376
6423.98, 0.182324
6431.95, 0.182428
6439.94, 0.182952
6447.95, 0.183528
6455.98, 0.184261
6464.03, 0.184680
6472.1, 0.185413
6480.19, 0.186041
6488.31, 0.186984
6496.44, 0.187507
6504.59, 0.186722
6512.76, 0.186094
6520.95, 0.186251
6529.16, 0.185727
6537.4, 0.185204
6545.65, 0.184889
6553.92, 0.184523
6562.22, 0.183894
6570.54, 0.183528
6578.88, 0.182376
6587.23, 0.180805
6595.61, 0.179444
6604.02, 0.177873
6612.44, 0.176459
6620.89, 0.175045
6629.35, 0.173946
6637.84, 0.173108
6646.35, 0.170856
6654.88, 0.168552
6663.44, 0.166929
6672.01, 0.165620
6680.61, 0.164364
6689.23, 0.162636
6697.88, 0.160751
6706.54, 0.159337
6715.23, 0.157714
6723.94, 0.155881
6732.67, 0.153944
6741.42, 0.151954
6750.2, 0.150121
6759.0, 0.148079
6767.82, 0.146089
6776.67, 0.144257
6785.54, 0.142372
6794.44, 0.140172
6803.35, 0.137711
6812.29, 0.135826
6821.26, 0.134360
6830.24, 0.132685
6839.25, 0.130643
6848.29, 0.128810
6857.35, 0.127344
6866.43, 0.125459
6875.54, 0.123050
6884.67, 0.120956
6893.82, 0.119175
6903.0, 0.117500
6912.2, 0.115719
6921.43, 0.113782
6930.69, 0.112054
6939.96, 0.110431
6949.27, 0.109122
6958.59, 0.108232
6967.95, 0.107289
6977.33, 0.106347
6986.73, 0.105875
6996.16, 0.105666
7005.61, 0.105457
7015.09, 0.105352
7024.6, 0.105247
7034.13, 0.105038
7043.69, 0.105090
7053.27, 0.104724
7062.88, 0.104043
7072.52, 0.103624
7082.18, 0.103205
7091.87, 0.102786
7101.58, 0.102210
7111.32, 0.101634
7121.09, 0.101111
7130.88, 0.100325
7140.71, 0.0998010
7150.56, 0.0992780
7160.43, 0.0988070
7170.33, 0.0984400
7180.27, 0.0979690
7190.23, 0.0976550
7200.21, 0.0974980
7210.23, 0.0973410
7220.27, 0.0970790
7230.34, 0.0968690
7240.44, 0.0967120
7250.56, 0.0964500
7260.72, 0.0962410
7270.9, 0.0960310
7281.12, 0.0958220
7291.36, 0.0954550
7301.63, 0.0949840
7311.93, 0.0946180
7322.25, 0.0942510
7332.61, 0.0940940
7343.0, 0.0939370
7353.41, 0.0935180
7363.86, 0.0930990
7374.33, 0.0927330
7384.83, 0.0923660
7395.37, 0.0920520
7405.93, 0.0916850
7416.53, 0.0912140
7427.15, 0.0907430
7437.81, 0.0902720
7448.5, 0.0898000
7459.22, 0.0893820
7469.96, 0.0890150
7480.74, 0.0884390
7491.55, 0.0878630
7502.39, 0.0872350
7513.27, 0.0867630
7524.17, 0.0861350
7535.11, 0.0853500
7546.08, 0.0848780
7557.08, 0.0843550
7568.11, 0.0838310
7579.17, 0.0833600
7590.27, 0.0829410
7601.4, 0.0827320
7612.56, 0.0824700
7623.76, 0.0822080
7634.98, 0.0818940
7646.24, 0.0815800
7657.54, 0.0814230
7668.87, 0.0812650
7680.23, 0.0810040
7691.62, 0.0806890
7703.05, 0.0802710
7714.51, 0.0799560
7726.01, 0.0796950
7737.54, 0.0793800
7749.11, 0.0790140
7760.71, 0.0785950
7772.35, 0.0781240
7784.02, 0.0777050
7795.72, 0.0771290
7807.46, 0.0768150
7819.23, 0.0764480
7831.04, 0.0760820
7842.89, 0.0757150
7854.77, 0.0754010
7866.69, 0.0749820
7878.65, 0.0745110
7890.64, 0.0741440
7902.67, 0.0738300
7914.74, 0.0735680
7926.84, 0.0732540
7938.98, 0.0728350
7951.16, 0.0724160
7963.37, 0.0720500
7975.62, 0.0716830
7987.91, 0.0713170
8000.24, 0.0708450
8012.6, 0.0703740
8025.01, 0.0698510
8037.45, 0.0693790
8049.93, 0.0688030
8062.45, 0.0681750
8075.01, 0.0675470
8087.61, 0.0670230
8100.24, 0.0665520
8112.91, 0.0660280
8125.63, 0.0654000
8138.39, 0.0647710
8151.18, 0.0641960
8164.02, 0.0634620
8176.9, 0.0628860
8189.81, 0.0622060
8202.77, 0.0614200
8215.77, 0.0606350
8228.82, 0.0599020
8241.9, 0.0591160
8255.02, 0.0582260
8268.19, 0.0573880
8281.39, 0.0566550
8294.65, 0.0558700
8307.94, 0.0550850
8321.28, 0.0544560
8334.66, 0.0538800
8348.08, 0.0532520
8361.54, 0.0527280
8375.05, 0.0523090
8388.6, 0.0518900
8402.2, 0.0514720
8415.84, 0.0512620
8429.52, 0.0510530
8443.25, 0.0507910
8457.02, 0.0505810
8470.84, 0.0505810
8484.7, 0.0506860
8498.61, 0.0506860
8512.57, 0.0504240
8526.57, 0.0504240
8540.62, 0.0506340
8554.71, 0.0507910
8568.85, 0.0506340
8583.04, 0.0505810
8597.27, 0.0505810
8611.55, 0.0503720
8625.88, 0.0500580
8640.26, 0.0499010
8654.68, 0.0495870
8669.16, 0.0490110
8683.68, 0.0484350
8698.25, 0.0478060
8712.87, 0.0472830
8727.53, 0.0468110
8742.25, 0.0460780
8757.02, 0.0450830
8771.83, 0.0440890
8786.7, 0.0433030
8801.62, 0.0425700
8816.59, 0.0418890
8831.61, 0.0411040
8846.68, 0.0402140
8861.8, 0.0392710
8876.97, 0.0386430
8892.2, 0.0381190
8907.48, 0.0374910
8922.81, 0.0368100
8938.2, 0.0362870
8953.63, 0.0359200
8969.13, 0.0355540
8984.67, 0.0351350
9000.27, 0.0348210
9015.92, 0.0346630
9031.63, 0.0342970
9047.39, 0.0336690
9063.21, 0.0331970
9079.08, 0.0329360
9095.01, 0.0327260
9111.0, 0.0324640
9127.04, 0.0323070
9143.13, 0.0320450
9159.28, 0.0319930
9175.49, 0.0319410
9191.76, 0.0320450
9208.09, 0.0320450
9224.47, 0.0320450
9240.92, 0.0319410
9257.42, 0.0319410
9273.98, 0.0319410
9290.6, 0.0318880
9307.28, 0.0317840
9324.02, 0.0317310
9340.82, 0.0316270
9357.68, 0.0315220
9374.6, 0.0314690
9391.58, 0.0315740
9408.62, 0.0314690
9425.73, 0.0314690
9442.9, 0.0317840
9460.13, 0.0323600
9477.42, 0.0328830
9494.78, 0.0331970
9512.2, 0.0337210
9529.69, 0.0346630
9547.24, 0.0353440
9564.86, 0.0359200
9582.54, 0.0367060
9600.28, 0.0375430
9618.1, 0.0382240
9635.97, 0.0388520
9653.92, 0.0393760
9671.93, 0.0398470
9690.01, 0.0399520
9708.16, 0.0403190
9726.37, 0.0408950
9744.65, 0.0412610
9763.0, 0.0417850
9781.43, 0.0425180
9799.92, 0.0432510
9818.48, 0.0444030
9837.1, 0.0458690
9855.8, 0.0475440
9874.58, 0.0491680
9893.42, 0.0511570
9912.34, 0.0537760
9931.33, 0.0564460
9950.39, 0.0595350
9969.52, 0.0631480
9988.74, 0.0671280
10008.0, 0.0717360
10027.4, 0.0770240
10046.8, 0.0824700
10066.3, 0.0878630
10085.9, 0.0929940
10105.6, 0.0977070
10125.3, 0.102001
10145.1, 0.105457
10165.0, 0.108336
10185.0, 0.110797
10205.0, 0.112525
10225.2, 0.113730
10245.4, 0.114620
10265.7, 0.115405
10286.0, 0.115719
10306.5, 0.115929
10327.0, 0.116348
10347.6, 0.116662
10368.3, 0.116662
10389.1, 0.116767
10409.9, 0.116924
10430.9, 0.116924
10451.9, 0.116819
10473.0, 0.116976
10494.2, 0.117029
10515.5, 0.116976
10536.9, 0.117081
10558.4, 0.117238
10579.9, 0.117605
10601.5, 0.117919
10623.3, 0.118338
10645.1, 0.118809
10667.0, 0.119175
10689.0, 0.119542
10711.1, 0.119751
10733.2, 0.120013
10755.5, 0.120380
10777.9, 0.120589
10800.3, 0.120851
10822.9, 0.121427
10845.5, 0.122317
10868.2, 0.122998
10891.1, 0.123469
10914.0, 0.123521
10937.0, 0.123102
10960.2, 0.122527
10983.4, 0.121741
11006.7, 0.120589
11030.1, 0.119175
11053.6, 0.117605
11077.3, 0.115981
11101.0, 0.113834
11124.8, 0.111112
11148.7, 0.107760
11172.7, 0.103781
11196.9, 0.0986500
11221.1, 0.0925760
11245.4, 0.0857690
11269.9, 0.0781760
11294.4, 0.0703220
11319.1, 0.0628860
11343.9, 0.0563410
11368.8, 0.0511570
11393.7, 0.0477540
11418.8, 0.0456590
11444.0, 0.0445600
11469.4, 0.0450830
11494.8, 0.0470730
11520.3, 0.0500050
11546.0, 0.0545090
11571.8, 0.0602680
11597.7, 0.0669180
11623.7, 0.0748250
11649.8, 0.0828360
11676.0, 0.0899050
11702.4, 0.0961890
11728.9, 0.101739
11755.5, 0.106242
11782.2, 0.110274
11809.0, 0.113730
11836.0, 0.116400
11863.0, 0.117762
11890.3, 0.117709
11917.6, 0.116924
11945.0, 0.115301
11972.6, 0.113206
12000.4, 0.111426
12028.2, 0.110536
12056.2, 0.110955
12084.3, 0.112787
12112.5, 0.115196
12140.9, 0.117343
12169.4, 0.118128
12198.0, 0.116924
12226.8, 0.113730
12255.7, 0.109122
12284.7, 0.104095
12313.9, 0.0994350
12343.2, 0.0950890
12372.7, 0.0909000
12402.3, 0.0872870
12432.0, 0.0845120
12461.9, 0.0821560
12491.9, 0.0799040
12522.1, 0.0781240
12552.4, 0.0763430
12582.9, 0.0747730
12613.5, 0.0737250
12644.3, 0.0727830
12675.2, 0.0719970
12706.3, 0.0714210
12737.5, 0.0709500
12768.9, 0.0705310
12800.4, 0.0701650
12832.1, 0.0693270
12863.9, 0.0688030
12895.9, 0.0685940
12928.1, 0.0685420
12960.4, 0.0683840
12992.9, 0.0680180
13025.5, 0.0677560
13058.3, 0.0673370
13091.3, 0.0668660
13124.4, 0.0665520
13157.8, 0.0666040
13191.2, 0.0663950
13224.9, 0.0655570
13258.7, 0.0649290
13292.7, 0.0646140
13326.9, 0.0649290
13361.2, 0.0653470
13395.7, 0.0656620
13430.4, 0.0660280
13465.3, 0.0662380
13500.4, 0.0663950
13535.7, 0.0662900
13571.1, 0.0661330
13606.7, 0.0659760
13642.5, 0.0662380
13678.5, 0.0662380
13714.7, 0.0660280
13751.1, 0.0659230
13787.6, 0.0654520
13824.4, 0.0645100
13861.4, 0.0638810
13898.5, 0.0635670
13935.9, 0.0632010
13973.5, 0.0630960
14011.2, 0.0629390
14049.2, 0.0624680
14087.4, 0.0623100
14125.8, 0.0620490
14164.3, 0.0615770
14203.2, 0.0609490
14242.2, 0.0600590
14281.4, 0.0592210
14320.9, 0.0582790
14360.5, 0.0572310
14400.4, 0.0562370
14440.5, 0.0551370
14480.9, 0.0541940
14521.4, 0.0531470
14562.2, 0.0524140
14603.3, 0.0518380
14644.5, 0.0511050
14686.0, 0.0502150
14727.7, 0.0493250
14769.7, 0.0482780
14811.9, 0.0471780
14854.3, 0.0464450
14897.0, 0.0456590
14939.9, 0.0448740
14983.1, 0.0440360
15026.5, 0.0433560
15070.2, 0.0427270
15114.2, 0.0420990
15158.3, 0.0418890
15202.8, 0.0417320
15247.5, 0.0416800
15292.5, 0.0413130
15337.7, 0.0406850
15383.2, 0.0402140
15429.0, 0.0394280
15475.1, 0.0386430
15521.4, 0.0381190
15568.0, 0.0370720
15614.9, 0.0359200
15662.1, 0.0347680
15709.6, 0.0335640
15757.3, 0.0325170
15805.4, 0.0312600
15853.7, 0.0297940
15902.3, 0.0280660
15951.2, 0.0263900
16000.5, 0.0250810
16050.0, 0.0239820
16099.8, 0.0225680
16150.0, 0.0217300
16200.5, 0.0213640
16251.3, 0.0209970
16302.4, 0.0216780
16353.8, 0.0234060
16405.5, 0.0252910
16457.6, 0.0262860
16510.0, 0.0263900
16562.8, 0.0252380
16615.9, 0.0240860
16669.3, 0.0235100
16723.1, 0.0224630
16777.2, 0.0213110
16831.7, 0.0201590
16886.5, 0.0191120
16941.7, 0.0180650
16997.2, 0.0165990
17053.1, 0.0155510
17109.4, 0.0145040
17166.1, 0.0139810
17223.1, 0.0134570
17280.5, 0.0130900
17338.3, 0.0131430
17396.5, 0.0129330
17455.1, 0.0137710
17514.0, 0.0156040
17573.4, 0.0184840
17633.2, 0.0225680
17693.4, 0.0285370
17754.0, 0.0370720
17815.0, 0.0471780
17876.4, 0.0559750
17938.3, 0.0637770
18000.5, 0.0718930
18063.3, 0.0800610
18126.4, 0.0861350
18190.0, 0.0904810
18254.1, 0.0941460
18318.6, 0.0951410
18383.5, 0.0949840
18449.0, 0.0925230
18514.9, 0.0873390
18581.2, 0.0799040
18648.0, 0.0709500
18715.4, 0.0624150
18783.2, 0.0570740
18851.5, 0.0529380
18920.3, 0.0481730
18989.6, 0.0444030
19059.4, 0.0420460
19129.7, 0.0391670
19200.6, 0.0367580
19272.0, 0.0354490
19343.9, 0.0331970
19416.3, 0.0314170
19489.3, 0.0319930
19562.8, 0.0331450
19637.0, 0.0343490
19711.6, 0.0366530
19786.8, 0.0393760
19862.6, 0.0433560
19939.0, 0.0481730
20016.0, 0.0526240
20093.6, 0.0589590
20171.8, 0.0661850
20250.6, 0.0740920
20330.0, 0.0835170
20410.0, 0.0925760
20490.7, 0.101320
20572.0, 0.107342
20654.0, 0.112054
20736.6, 0.115824
20819.9, 0.119490
20903.8, 0.121165
20988.5, 0.121217
21073.8, 0.122998
21159.8, 0.124359
21246.5, 0.124569
21334.0, 0.124935
21422.1, 0.125197
21511.0, 0.125145
21600.7, 0.124673
21691.0, 0.123574
21782.1, 0.124097
21874.0, 0.122422
21966.7, 0.118914
22060.2, 0.112368
22154.5, 0.102420
22249.6, 0.0938320
22345.5, 0.0889100
22442.2, 0.0869730
22539.8, 0.0857160
22638.2, 0.0859780
22737.5, 0.0875490
22837.7, 0.0902720
22938.7, 0.0937280
23040.7, 0.0980740
23143.5, 0.102263
23247.3, 0.106609
23352.1, 0.110902
23457.7, 0.114253
23564.4, 0.117709
23672.0, 0.120327
23780.5, 0.122003
23890.1, 0.121270
24000.7, 0.119228
24112.3, 0.114829
24225.0, 0.111059
24338.7, 0.108912
24453.5, 0.100116
24569.4, 0.0927330
