Database of Origin, USGS Spectral Database
Sample Description, See USGS database for additional info
Date Added,2016-08-10 05:38:14.248142

Data ID,USGS_sil01          
Sample ID, sillimanite_hs186.20572
Mineral Name, sillimanite
Material Class,Nesosilicate

Wavelength
221.1, 0.164007
229.1, 0.153016
236.1, 0.138895
242.1, 0.130139
248.1, 0.124821
253.6, 0.121195
258.6, 0.120278
263.6, 0.123038
268.6, 0.127005
273.1, 0.131408
277.1, 0.138101
281.1, 0.144505
285.1, 0.153522
289.1, 0.163497
293.1, 0.179323
297.1, 0.195989
301.1, 0.218097
305.1, 0.241719
309.1, 0.272366
313.1, 0.301252
317.1, 0.337530
321.1, 0.372112
325.1, 0.407807
329.1, 0.441463
333.1, 0.464549
337.1, 0.485287
341.1, 0.501066
345.1, 0.510038
349.1, 0.532431
353.1, 0.536459
357.1, 0.540333
360.6, 0.551089
363.6, 0.556939
366.6, 0.563055
369.6, 0.574449
372.6, 0.583740
375.6, 0.590987
378.6, 0.598604
381.1, 0.603355
383.1, 0.607589
385.1, 0.612926
387.1, 0.620085
389.1, 0.621505
391.1, 0.632180
393.1, 0.635067
395.1, 0.640401
397.1, 0.645770
399.1, 0.649081
401.1, 0.656711
403.1, 0.662040
405.1, 0.664618
407.1, 0.664810
409.1, 0.668255
411.1, 0.675229
412.8, 0.679580
415.8, 0.687350
418.8, 0.690895
421.8, 0.696202
424.8, 0.702753
427.8, 0.709885
430.8, 0.716591
433.8, 0.720053
436.8, 0.721505
439.8, 0.730186
442.8, 0.732571
445.8, 0.738445
448.8, 0.740521
451.3, 0.742949
453.3, 0.745410
455.3, 0.746983
457.3, 0.749197
459.3, 0.749114
461.3, 0.749949
463.3, 0.754265
465.3, 0.753893
467.3, 0.753966
469.3, 0.756203
471.3, 0.759706
473.3, 0.762208
475.3, 0.762036
477.3, 0.766509
479.3, 0.769223
481.3, 0.769414
483.3, 0.772617
485.3, 0.774366
487.3, 0.772582
489.3, 0.781107
491.3, 0.780106
493.3, 0.781811
495.3, 0.783949
497.3, 0.792100
499.3, 0.785123
501.3, 0.789985
503.3, 0.791891
505.3, 0.798999
507.3, 0.794663
509.3, 0.795283
511.3, 0.794349
513.3, 0.801584
515.3, 0.802394
517.3, 0.804289
519.3, 0.805411
521.3, 0.802864
523.3, 0.812139
525.3, 0.812865
527.3, 0.810918
529.3, 0.814466
531.3, 0.809312
533.3, 0.813702
535.3, 0.818424
537.3, 0.821459
539.3, 0.820947
541.3, 0.819535
543.3, 0.824017
545.3, 0.823076
547.3, 0.825156
549.3, 0.823582
551.3, 0.827565
553.3, 0.825264
555.3, 0.827022
557.3, 0.828809
559.3, 0.831499
561.3, 0.832771
563.3, 0.836543
565.3, 0.835011
567.3, 0.835548
569.3, 0.833071
571.3, 0.834887
573.3, 0.835084
575.3, 0.831499
577.3, 0.836406
579.3, 0.837087
581.3, 0.837011
583.3, 0.835835
585.3, 0.839287
587.3, 0.839395
589.3, 0.836952
591.3, 0.839645
593.3, 0.840241
595.3, 0.840555
597.3, 0.840518
599.3, 0.839249
601.1, 0.833726
602.7, 0.842104
604.3, 0.841062
605.9, 0.843199
607.5, 0.839751
609.1, 0.841398
610.7, 0.844180
612.3, 0.842838
613.9, 0.844426
615.5, 0.840168
617.1, 0.843548
618.7, 0.841513
620.3, 0.842094
621.9, 0.841289
623.5, 0.842644
625.1, 0.840305
626.7, 0.847544
628.3, 0.843899
629.9, 0.844229
631.7, 0.847584
633.7, 0.843688
635.7, 0.847210
637.7, 0.845818
639.7, 0.847468
641.7, 0.848482
643.7, 0.846253
645.7, 0.848585
647.7, 0.847996
649.7, 0.853056
651.7, 0.852040
653.7, 0.853863
655.7, 0.855109
657.7, 0.852710
659.7, 0.853290
661.7, 0.853942
663.7, 0.858673
665.7, 0.857324
667.7, 0.857879
670.2, 0.857614
673.2, 0.863742
676.2, 0.860562
679.2, 0.858571
682.2, 0.862601
685.2, 0.864247
688.2, 0.864618
691.2, 0.868004
694.2, 0.866610
697.2, 0.870046
700.2, 0.868618
702.0, 0.871165
704.0, 0.864401
706.0, 0.875078
708.0, 0.875228
710.0, 0.874325
712.0, 0.877126
714.0, 0.876566
716.0, 0.874089
718.0, 0.875730
720.0, 0.875800
722.0, 0.879943
724.0, 0.874074
726.0, 0.880413
728.0, 0.875267
730.0, 0.877307
732.0, 0.880299
734.0, 0.880408
736.0, 0.878246
738.0, 0.879743
740.0, 0.882392
742.0, 0.883413
744.0, 0.882570
746.0, 0.882441
748.0, 0.879271
750.5, 0.880438
753.5, 0.883810
756.5, 0.886244
759.5, 0.883920
762.5, 0.883471
765.5, 0.883814
768.5, 0.884078
771.5, 0.885072
774.5, 0.884250
777.5, 0.885892
781.0, 0.884265
785.0, 0.886969
789.0, 0.887685
793.0, 0.886524
797.0, 0.887555
801.5, 0.888003
806.5, 0.880919
811.5, 0.888096
816.5, 0.887201
822.0, 0.883897
828.0, 0.886015
835.0, 0.881658
843.0, 0.887335
851.0, 0.890491
859.0, 0.890862
871.0, 0.890818
883.0, 0.890405
894.0, 0.886636
904.0, 0.889850
914.0, 0.888332
924.0, 0.890407
933.0, 0.887678
941.0, 0.887388
949.0, 0.883586
957.0, 0.884381
964.0, 0.879786
970.0, 0.887804
976.0, 0.885266
982.0, 0.884867
988.0, 0.890755
994.0, 0.889005
1000.0, 0.888603
1006.0, 0.887841
1012.0, 0.885682
1018.0, 0.888359
1023.5, 0.888355
1028.5, 0.884137
1033.5, 0.890029
1038.5, 0.886496
1043.5, 0.885421
1048.5, 0.890737
1053.5, 0.889938
1058.5, 0.887282
1063.5, 0.885402
1068.5, 0.890346
1073.5, 0.886485
1078.5, 0.893205
1083.5, 0.890229
1088.5, 0.888369
1093.5, 0.891746
1098.5, 0.892142
1103.5, 0.890398
1108.5, 0.893979
1113.5, 0.891539
1118.5, 0.892960
1123.5, 0.889492
1128.5, 0.890314
1133.5, 0.892308
1138.5, 0.889509
1143.5, 0.888195
1148.5, 0.892411
1153.5, 0.892574
1158.5, 0.889895
1163.5, 0.895710
1168.5, 0.892196
1173.5, 0.889098
1178.5, 0.894978
1183.5, 0.887635
1188.5, 0.892206
1193.5, 0.888065
1198.5, 0.889653
1203.5, 0.891831
1208.5, 0.889275
1213.5, 0.893509
1218.5, 0.889416
1223.5, 0.885858
1228.5, 0.886725
1233.5, 0.889182
1238.5, 0.888965
1243.5, 0.890359
1248.5, 0.890939
1253.5, 0.890236
1258.5, 0.888919
1263.5, 0.891542
1268.5, 0.889490
1273.5, 0.891957
1278.5, 0.890053
1283.5, 0.886648
1288.5, 0.884668
1293.5, 0.881673
1298.5, 0.881280
1303.5, 0.880624
1308.5, 0.883195
1313.5, 0.878785
1318.5, 0.878661
1323.5, 0.875732
1328.5, 0.874952
1333.5, 0.877944
1338.5, 0.878757
1343.5, 0.875828
1348.5, 0.873171
1353.5, 0.865585
1358.5, 0.858950
1363.5, 0.860525
1368.5, 0.849057
1373.5, 0.838463
1378.5, 0.818790
1383.5, 0.800398
1388.5, 0.748816
1393.5, 0.749246
1398.5, 0.754977
1403.5, 0.750345
1408.5, 0.746734
1413.5, 0.782201
1418.5, 0.817856
1423.5, 0.836407
1428.5, 0.840258
1433.5, 0.850107
1438.5, 0.852714
1443.5, 0.854951
1448.5, 0.854186
1453.5, 0.858804
1458.5, 0.863065
1463.5, 0.863502
1468.5, 0.864469
1473.5, 0.865546
1478.5, 0.865851
1483.5, 0.868372
1488.5, 0.868214
1493.5, 0.868236
1498.5, 0.868062
1503.5, 0.869013
1508.5, 0.870434
1513.5, 0.875929
1518.5, 0.872701
1523.5, 0.871804
1528.5, 0.870283
1534.0, 0.871692
1540.0, 0.874500
1546.0, 0.869567
1552.0, 0.874359
1558.0, 0.872633
1564.0, 0.872717
1570.5, 0.873265
1577.5, 0.871491
1584.5, 0.870307
1591.5, 0.871213
1598.5, 0.871631
1605.5, 0.868516
1612.5, 0.867883
1619.5, 0.869858
1626.5, 0.867105
1633.5, 0.866690
1640.5, 0.868010
1647.5, 0.862438
1654.5, 0.862678
1661.5, 0.862272
1668.5, 0.864657
1676.0, 0.859101
1684.0, 0.861985
1692.0, 0.859726
1700.0, 0.859920
1708.0, 0.864596
1716.0, 0.858921
1724.0, 0.860207
1732.0, 0.860925
1740.0, 0.859284
1748.0, 0.859342
1756.0, 0.861510
1764.0, 0.857690
1772.0, 0.858903
1780.0, 0.856995
1788.0, 0.856939
1796.0, 0.850161
1805.0, 0.852931
1815.0, 0.852965
1825.0, 0.849079
1835.0, 0.850093
1845.0, 0.851499
1855.0, 0.852372
1865.0, 0.849648
1875.0, 0.839839
1885.0, 0.831809
1895.0, 0.813428
1905.0, 0.794696
1915.0, 0.784644
1925.0, 0.789833
1935.0, 0.791965
1945.0, 0.795262
1955.0, 0.797494
1965.0, 0.803994
1975.0, 0.804853
1985.0, 0.810414
1995.0, 0.813508
2005.0, 0.815864
2015.0, 0.818052
2025.0, 0.818003
2035.0, 0.822992
2045.0, 0.823111
2055.0, 0.824927
2065.0, 0.815001
2075.0, 0.817565
2085.0, 0.809936
2095.0, 0.815097
2105.0, 0.806448
2115.0, 0.805401
2125.0, 0.799562
2135.0, 0.778388
2145.0, 0.757113
2155.0, 0.717782
2165.0, 0.677360
2175.0, 0.673565
2185.0, 0.654998
2195.0, 0.647026
2205.0, 0.651558
2215.0, 0.699996
2225.0, 0.729593
2235.0, 0.735594
2245.0, 0.734850
2255.0, 0.731164
2265.0, 0.731930
2275.0, 0.729682
2285.0, 0.725704
2295.0, 0.712715
2305.0, 0.703217
2315.0, 0.682282
2325.0, 0.671651
2335.0, 0.669382
2345.0, 0.664386
2355.0, 0.667431
2365.0, 0.668536
2375.0, 0.657660
2386.0, 0.651016
2400.0, 0.644424
2418.0, 0.632556
2440.0, 0.614849
2466.0, 0.611971
2496.0, 0.605214
2528.0, 0.600674
2560.0, 0.580027
2592.0, 0.561195
2624.0, 0.531437
2656.0, 0.491338
2688.0, 0.306984
2720.0, 0.139619
2752.0, 0.113644
2784.0, 0.160386
2816.0, 0.194745
2848.0, 0.196253
2880.0, 0.203563
2912.0, 0.202263
2944.0, 0.212960
2976.0, 0.220929
