Database of Origin, USGS Spectral Database
Sample Description, See USGS database for additional info
Date Added,2016-08-10 05:01:48.162166

Data ID,USGS_kne02          
Sample ID, knebelite_hs419.12394
Mineral Name, knebelite
Material Class,Nesosilicate

Wavelength
1584.4, 0.235894
1584.88, 0.235771
1585.37, 0.236325
1585.85, 0.236448
1586.34, 0.236202
1586.82, 0.235955
1587.31, 0.236756
1587.8, 0.236386
1588.28, 0.236694
1588.77, 0.237064
1589.26, 0.237310
1589.74, 0.237372
1590.23, 0.237679
1590.72, 0.237433
1591.21, 0.237987
1591.7, 0.237864
1592.19, 0.237803
1592.67, 0.238111
1593.16, 0.238172
1593.65, 0.238111
1594.14, 0.239219
1594.63, 0.239034
1595.12, 0.238973
1595.61, 0.238911
1596.11, 0.239034
1596.6, 0.239404
1597.09, 0.240389
1597.58, 0.240019
1598.08, 0.239588
1598.57, 0.239527
1599.06, 0.240450
1599.55, 0.240450
1600.05, 0.240512
1600.54, 0.240512
1601.04, 0.241005
1601.53, 0.241251
1602.03, 0.241990
1602.52, 0.241928
1603.02, 0.242051
1603.51, 0.241805
1604.01, 0.241867
1604.5, 0.242359
1605.0, 0.243037
1605.5, 0.243037
1606.0, 0.243344
1606.49, 0.242852
1606.99, 0.243468
1607.49, 0.243899
1607.99, 0.243529
1608.49, 0.243221
1608.99, 0.243591
1609.49, 0.243714
1609.99, 0.244145
1610.49, 0.244206
1610.99, 0.244576
1611.49, 0.244884
1611.99, 0.245069
1612.49, 0.245130
1612.99, 0.245069
1613.49, 0.244884
1614.0, 0.245376
1614.5, 0.245376
1615.0, 0.246362
1615.51, 0.246177
1616.01, 0.245931
1616.51, 0.246362
1617.02, 0.246485
1617.52, 0.246423
1618.03, 0.246916
1618.53, 0.246916
1619.04, 0.247224
1619.54, 0.247162
1620.05, 0.247285
1620.55, 0.247224
1621.06, 0.247593
1621.57, 0.247963
1622.08, 0.248763
1622.58, 0.248578
1623.09, 0.248394
1623.6, 0.248455
1624.11, 0.249071
1624.62, 0.249317
1625.13, 0.249317
1625.64, 0.249132
1626.15, 0.249871
1626.66, 0.250179
1627.17, 0.250302
1627.68, 0.250118
1628.19, 0.250179
1628.7, 0.250302
1629.21, 0.250672
1629.72, 0.250857
1630.24, 0.250980
1630.75, 0.250857
1631.26, 0.251349
1631.78, 0.251595
1632.29, 0.252026
1632.8, 0.251965
1633.32, 0.251903
1633.83, 0.251657
1634.35, 0.252026
1634.86, 0.251903
1635.38, 0.252211
1635.9, 0.252581
1636.41, 0.252765
1636.93, 0.252642
1637.45, 0.253135
1637.96, 0.253258
1638.48, 0.253566
1639.0, 0.253443
1639.52, 0.253196
1640.04, 0.253258
1640.56, 0.253504
1641.08, 0.253443
1641.59, 0.253935
1642.11, 0.253689
1642.63, 0.253874
1643.16, 0.254243
1643.68, 0.254797
1644.2, 0.255105
1644.72, 0.255352
1645.24, 0.255290
1645.76, 0.255228
1646.29, 0.255352
1646.81, 0.255906
1647.33, 0.255598
1647.86, 0.255783
1648.38, 0.255844
1648.9, 0.255906
1649.43, 0.255475
1649.95, 0.255598
1650.48, 0.255906
1651.0, 0.256398
1651.53, 0.256398
1652.06, 0.256829
1652.58, 0.256891
1653.11, 0.257322
1653.64, 0.257691
1654.17, 0.258246
1654.69, 0.257815
1655.22, 0.257938
1655.75, 0.258369
1656.28, 0.258677
1656.81, 0.258430
1657.34, 0.258307
1657.87, 0.258369
1658.4, 0.258861
1658.93, 0.258738
1659.46, 0.259108
1659.99, 0.259662
1660.52, 0.259847
1661.05, 0.259415
1661.59, 0.259847
1662.12, 0.259662
1662.65, 0.259662
1663.19, 0.260339
1663.72, 0.261140
1664.26, 0.260462
1664.79, 0.260093
1665.32, 0.260216
1665.86, 0.260709
1666.39, 0.260893
1666.93, 0.261263
1667.47, 0.261447
1668.0, 0.261694
1668.54, 0.261324
1669.08, 0.261201
1669.61, 0.261694
1670.15, 0.262125
1670.69, 0.262433
1671.23, 0.262617
1671.77, 0.262186
1672.31, 0.262125
1672.85, 0.262679
1673.39, 0.263295
1673.93, 0.263356
1674.47, 0.263356
1675.01, 0.263356
1675.55, 0.263603
1676.09, 0.263603
1676.64, 0.263664
1677.18, 0.263479
1677.72, 0.264095
1678.26, 0.264341
1678.81, 0.264526
1679.35, 0.264649
1679.89, 0.264588
1680.44, 0.264465
1680.98, 0.264896
1681.53, 0.265142
1682.07, 0.265450
1682.62, 0.265142
1683.17, 0.265327
1683.71, 0.265204
1684.26, 0.265511
1684.81, 0.265511
1685.36, 0.265388
1685.9, 0.265696
1686.45, 0.266620
1687.0, 0.266928
1687.55, 0.267051
1688.1, 0.266804
1688.65, 0.266804
1689.2, 0.266928
1689.75, 0.267051
1690.3, 0.267359
1690.85, 0.267851
1691.41, 0.267605
1691.96, 0.267605
1692.51, 0.267790
1693.06, 0.268036
1693.61, 0.267851
1694.17, 0.268036
1694.72, 0.268344
1695.28, 0.268713
1695.83, 0.268590
1696.39, 0.268836
1696.94, 0.268713
1697.5, 0.268898
1698.05, 0.269329
1698.61, 0.269206
1699.17, 0.268898
1699.72, 0.269021
1700.28, 0.269267
1700.84, 0.269637
1701.4, 0.269699
1701.95, 0.270006
1702.51, 0.270068
1703.07, 0.270068
1703.63, 0.269699
1704.19, 0.270191
1704.75, 0.270561
1705.31, 0.270561
1705.88, 0.270253
1706.44, 0.270561
1707.0, 0.270561
1707.56, 0.270745
1708.12, 0.270807
1708.69, 0.270930
1709.25, 0.270807
1709.81, 0.270868
1710.38, 0.270807
1710.94, 0.270992
1711.51, 0.270992
1712.07, 0.271053
1712.64, 0.271115
1713.2, 0.271361
1713.77, 0.271423
1714.34, 0.271792
1714.9, 0.271607
1715.47, 0.271977
1716.04, 0.271977
1716.61, 0.271915
1717.18, 0.272038
1717.74, 0.272223
1718.31, 0.272038
1718.88, 0.272285
1719.45, 0.272346
1720.02, 0.272162
1720.59, 0.272162
1721.17, 0.272593
1721.74, 0.272654
1722.31, 0.272777
1722.88, 0.272593
1723.45, 0.272593
1724.03, 0.272839
1724.6, 0.273270
1725.18, 0.273455
1725.75, 0.273455
1726.33, 0.273455
1726.9, 0.274070
1727.48, 0.273886
1728.05, 0.273762
1728.63, 0.273824
1729.2, 0.274132
1729.78, 0.274440
1730.36, 0.274625
1730.94, 0.274440
1731.51, 0.274378
1732.09, 0.274193
1732.67, 0.274378
1733.25, 0.274440
1733.83, 0.274932
1734.41, 0.274871
1734.99, 0.274932
1735.57, 0.274994
1736.15, 0.275117
1736.73, 0.274932
1737.32, 0.275302
1737.9, 0.275733
1738.48, 0.275671
1739.07, 0.275240
1739.65, 0.275425
1740.23, 0.275671
1740.82, 0.275918
1741.4, 0.275671
1741.99, 0.275794
1742.57, 0.275979
1743.16, 0.276102
1743.74, 0.276287
1744.33, 0.276657
1744.92, 0.276533
1745.51, 0.276780
1746.09, 0.276841
1746.68, 0.277211
1747.27, 0.277334
1747.86, 0.277519
1748.45, 0.277395
1749.04, 0.277519
1749.63, 0.277211
1750.22, 0.277272
1750.81, 0.277395
1751.4, 0.277395
1751.99, 0.277457
1752.59, 0.277642
1753.18, 0.277703
1753.77, 0.278011
1754.37, 0.278011
1754.96, 0.277950
1755.56, 0.278073
1756.15, 0.278011
1756.74, 0.277826
1757.34, 0.278134
1757.94, 0.278442
1758.53, 0.278750
1759.13, 0.278504
1759.73, 0.278257
1760.32, 0.278319
1760.92, 0.278873
1761.52, 0.278812
1762.12, 0.279058
1762.72, 0.279119
1763.32, 0.279489
1763.92, 0.279674
1764.52, 0.279674
1765.12, 0.279489
1765.72, 0.279489
1766.32, 0.279243
1766.92, 0.279304
1767.53, 0.279366
1768.13, 0.279920
1768.73, 0.279797
1769.34, 0.279858
1769.94, 0.279920
1770.55, 0.280105
1771.15, 0.280105
1771.76, 0.280166
1772.36, 0.279982
1772.97, 0.280105
1773.57, 0.280289
1774.18, 0.280289
1774.79, 0.280289
1775.4, 0.280413
1776.0, 0.280351
1776.61, 0.280536
1777.22, 0.280536
1777.83, 0.280720
1778.44, 0.280720
1779.05, 0.280905
1779.66, 0.280782
1780.27, 0.280905
1780.88, 0.280967
1781.5, 0.281090
1782.11, 0.280720
1782.72, 0.280782
1783.33, 0.280720
1783.95, 0.281090
1784.56, 0.281213
1785.18, 0.281090
1785.79, 0.280905
1786.41, 0.281090
1787.02, 0.281151
1787.64, 0.281090
1788.26, 0.281028
1788.87, 0.281275
1789.49, 0.281275
1790.11, 0.281336
1790.73, 0.281090
1791.35, 0.281336
1791.96, 0.281644
1792.58, 0.281829
1793.21, 0.281767
1793.83, 0.281706
1794.45, 0.281644
1795.07, 0.281459
1795.69, 0.281275
1796.31, 0.281398
1796.93, 0.281336
1797.56, 0.281644
1798.18, 0.281583
1798.8, 0.281583
1799.43, 0.281521
1800.05, 0.281706
1800.68, 0.281829
1801.3, 0.281952
1801.93, 0.281644
1802.56, 0.281706
1803.18, 0.281644
1803.81, 0.281706
1804.44, 0.281829
1805.07, 0.282075
1805.7, 0.282075
1806.33, 0.282383
1806.95, 0.282321
1807.58, 0.282137
1808.22, 0.282198
1808.85, 0.282445
1809.48, 0.282075
1810.11, 0.282383
1810.74, 0.282629
1811.38, 0.282629
1812.01, 0.282321
1812.64, 0.282445
1813.28, 0.282445
1813.91, 0.282506
1814.55, 0.282568
1815.18, 0.282876
1815.82, 0.282876
1816.45, 0.282937
1817.09, 0.282876
1817.73, 0.282876
1818.36, 0.282814
1819.0, 0.282937
1819.64, 0.282814
1820.28, 0.282752
1820.92, 0.282752
1821.56, 0.282999
1822.2, 0.282937
1822.84, 0.282691
1823.48, 0.282568
1824.12, 0.282937
1824.76, 0.283183
1825.41, 0.282999
1826.05, 0.283060
1826.69, 0.283368
1827.34, 0.283307
1827.98, 0.283368
1828.63, 0.283368
1829.27, 0.283491
1829.92, 0.283430
1830.56, 0.283491
1831.21, 0.283307
1831.86, 0.283245
1832.5, 0.283245
1833.15, 0.283553
1833.8, 0.283614
1834.45, 0.283614
1835.1, 0.283676
1835.75, 0.283861
1836.4, 0.283861
1837.05, 0.284045
1837.7, 0.284045
1838.35, 0.283984
1839.01, 0.283799
1839.66, 0.283676
1840.31, 0.283738
1840.96, 0.284169
1841.62, 0.284169
1842.27, 0.284353
1842.93, 0.284538
1843.58, 0.284600
1844.24, 0.284292
1844.9, 0.284477
1845.55, 0.284477
1846.21, 0.284292
1846.87, 0.284045
1847.53, 0.284292
1848.18, 0.284415
1848.84, 0.284415
1849.5, 0.284353
1850.16, 0.284353
1850.82, 0.284169
1851.48, 0.284292
1852.14, 0.284230
1852.81, 0.284600
1853.47, 0.284723
1854.13, 0.284415
1854.8, 0.284292
1855.46, 0.284784
1856.12, 0.284784
1856.79, 0.284477
1857.45, 0.284415
1858.12, 0.284538
1858.79, 0.284415
1859.45, 0.284600
1860.12, 0.284661
1860.79, 0.284538
1861.46, 0.284353
1862.12, 0.284477
1862.79, 0.284477
1863.46, 0.284538
1864.13, 0.284661
1864.8, 0.284969
1865.48, 0.284784
1866.15, 0.284784
1866.82, 0.284661
1867.49, 0.284661
1868.16, 0.284415
1868.84, 0.284415
1869.51, 0.284353
1870.19, 0.284353
1870.86, 0.284353
1871.54, 0.284415
1872.21, 0.284107
1872.89, 0.284169
1873.56, 0.284415
1874.24, 0.284538
1874.92, 0.284169
1875.6, 0.284353
1876.28, 0.284538
1876.96, 0.284538
1877.64, 0.284230
1878.32, 0.283984
1879.0, 0.283984
1879.68, 0.284107
1880.36, 0.284045
1881.04, 0.283984
1881.73, 0.283799
1882.41, 0.283922
1883.09, 0.283861
1883.78, 0.283861
1884.46, 0.283861
1885.15, 0.283614
1885.83, 0.283491
1886.52, 0.283553
1887.21, 0.283676
1887.89, 0.283799
1888.58, 0.283553
1889.27, 0.283368
1889.96, 0.283183
1890.65, 0.283245
1891.34, 0.283122
1892.03, 0.282999
1892.72, 0.282937
1893.41, 0.283060
1894.1, 0.283060
1894.79, 0.282999
1895.49, 0.282814
1896.18, 0.282691
1896.87, 0.282568
1897.57, 0.282691
1898.26, 0.282629
1898.96, 0.282506
1899.65, 0.282137
1900.35, 0.282321
1901.05, 0.282506
1901.74, 0.282568
1902.44, 0.282260
1903.14, 0.282075
1903.84, 0.282075
1904.54, 0.281890
1905.24, 0.281829
1905.94, 0.282260
1906.64, 0.282198
1907.34, 0.282198
1908.04, 0.282075
1908.75, 0.282075
1909.45, 0.281890
1910.15, 0.281767
1910.86, 0.281583
1911.56, 0.281706
1912.27, 0.281829
1912.97, 0.281952
1913.68, 0.281890
1914.39, 0.281829
1915.09, 0.281706
1915.8, 0.281829
1916.51, 0.281829
1917.22, 0.281890
1917.93, 0.281829
1918.64, 0.282014
1919.35, 0.281890
1920.06, 0.281767
1920.77, 0.281644
1921.48, 0.281644
1922.19, 0.281767
1922.91, 0.281829
1923.62, 0.281767
1924.33, 0.281890
1925.05, 0.281706
1925.76, 0.281767
1926.48, 0.281890
1927.19, 0.282075
1927.91, 0.281890
1928.63, 0.281890
1929.35, 0.281890
1930.07, 0.281952
1930.78, 0.282014
1931.5, 0.282321
1932.22, 0.282137
1932.94, 0.282075
1933.66, 0.281890
1934.39, 0.281829
1935.11, 0.281952
1935.83, 0.282075
1936.55, 0.281890
1937.28, 0.281706
1938.0, 0.281706
1938.73, 0.281829
1939.45, 0.281829
1940.18, 0.282075
1940.9, 0.282137
1941.63, 0.282014
1942.36, 0.281829
1943.09, 0.281829
1943.81, 0.281952
1944.54, 0.282198
1945.27, 0.282014
1946.0, 0.282014
1946.73, 0.282014
1947.47, 0.282014
1948.2, 0.281829
1948.93, 0.281952
1949.66, 0.281890
1950.4, 0.281890
1951.13, 0.281890
1951.86, 0.282014
1952.6, 0.281952
1953.34, 0.281829
1954.07, 0.281829
1954.81, 0.281952
1955.55, 0.281706
1956.29, 0.281952
1957.02, 0.281829
1957.76, 0.281767
1958.5, 0.281829
1959.24, 0.281706
1959.98, 0.281398
1960.72, 0.281583
1961.47, 0.281583
1962.21, 0.281459
1962.95, 0.281398
1963.7, 0.281583
1964.44, 0.281706
1965.18, 0.281767
1965.93, 0.281644
1966.67, 0.281583
1967.42, 0.281459
1968.17, 0.281459
1968.92, 0.281459
1969.66, 0.281644
1970.41, 0.281521
1971.16, 0.281398
1971.91, 0.281213
1972.66, 0.281151
1973.41, 0.281028
1974.16, 0.281151
1974.92, 0.280844
1975.67, 0.280782
1976.42, 0.280967
1977.18, 0.281151
1977.93, 0.281151
1978.69, 0.281213
1979.44, 0.281090
1980.2, 0.280905
1980.95, 0.280720
1981.71, 0.280720
1982.47, 0.280597
1983.23, 0.280413
1983.99, 0.280228
1984.74, 0.280474
1985.51, 0.280659
1986.27, 0.280720
1987.03, 0.280659
1987.79, 0.280720
1988.55, 0.280536
1989.32, 0.280536
1990.08, 0.280474
1990.84, 0.280536
1991.61, 0.280413
1992.37, 0.280597
1993.14, 0.280536
1993.9, 0.280413
1994.67, 0.280228
1995.44, 0.280289
1996.21, 0.280228
1996.98, 0.280105
1997.75, 0.279982
1998.52, 0.280043
1999.29, 0.280105
2000.06, 0.280105
2000.83, 0.279920
2001.6, 0.280043
2002.38, 0.279982
2003.15, 0.279858
2003.93, 0.279735
2004.7, 0.280043
2005.48, 0.280166
2006.25, 0.280166
2007.03, 0.280166
2007.81, 0.280351
2008.58, 0.280228
2009.36, 0.280228
2010.14, 0.280105
2010.92, 0.280043
2011.7, 0.279797
2012.48, 0.279858
2013.26, 0.279858
2014.05, 0.279858
2014.83, 0.279920
2015.61, 0.279982
2016.4, 0.279858
2017.18, 0.279920
2017.97, 0.279920
2018.75, 0.280105
2019.54, 0.279920
2020.32, 0.279982
2021.11, 0.280043
2021.9, 0.280043
2022.69, 0.279920
2023.48, 0.280166
2024.27, 0.280289
2025.06, 0.280166
2025.85, 0.280043
2026.64, 0.280043
2027.44, 0.280043
2028.23, 0.280228
2029.02, 0.280105
2029.82, 0.280228
2030.61, 0.280289
2031.41, 0.280536
2032.2, 0.280413
2033.0, 0.280351
2033.8, 0.280351
2034.6, 0.280474
2035.4, 0.280228
2036.2, 0.280289
2037.0, 0.280474
2037.8, 0.280597
2038.6, 0.280597
2039.4, 0.280597
2040.2, 0.280413
2041.01, 0.280474
2041.81, 0.280597
2042.61, 0.280720
2043.42, 0.280597
2044.22, 0.280536
2045.03, 0.280536
2045.84, 0.280659
2046.65, 0.280597
2047.46, 0.280474
2048.26, 0.280474
2049.07, 0.280720
2049.88, 0.280659
2050.69, 0.280844
2051.51, 0.280844
2052.32, 0.280844
2053.13, 0.280597
2053.94, 0.280782
2054.76, 0.280905
2055.57, 0.280905
2056.39, 0.280720
2057.2, 0.280905
2058.02, 0.280967
2058.84, 0.281028
2059.66, 0.280720
2060.48, 0.280720
2061.29, 0.280720
2062.11, 0.280720
2062.94, 0.280659
2063.76, 0.280782
2064.58, 0.280720
2065.4, 0.280782
2066.22, 0.280905
2067.05, 0.280905
2067.87, 0.280844
2068.7, 0.280905
2069.52, 0.280782
2070.35, 0.280720
2071.18, 0.280597
2072.0, 0.280720
2072.83, 0.280782
2073.66, 0.280720
2074.49, 0.280536
2075.32, 0.280166
2076.15, 0.279982
2076.98, 0.280413
2077.82, 0.280597
2078.65, 0.280536
2079.48, 0.280351
2080.32, 0.280351
2081.15, 0.280351
2081.99, 0.280659
2082.83, 0.280720
2083.66, 0.280536
2084.5, 0.280289
2085.34, 0.280351
2086.18, 0.280413
2087.02, 0.280474
2087.86, 0.280289
2088.7, 0.280289
2089.54, 0.280105
2090.39, 0.280043
2091.23, 0.280166
2092.07, 0.280289
2092.92, 0.280228
2093.76, 0.280228
2094.61, 0.280105
2095.45, 0.280105
2096.3, 0.280166
2097.15, 0.280289
2098.0, 0.280166
2098.85, 0.280105
2099.7, 0.280166
2100.55, 0.280228
2101.4, 0.279982
2102.25, 0.279982
2103.1, 0.279858
2103.96, 0.279920
2104.81, 0.279797
2105.67, 0.279797
2106.52, 0.279674
2107.38, 0.279674
2108.24, 0.279674
2109.09, 0.279797
2109.95, 0.279612
2110.81, 0.279427
2111.67, 0.279304
2112.53, 0.279612
2113.39, 0.279735
2114.25, 0.279427
2115.12, 0.279181
2115.98, 0.279243
2116.84, 0.279058
2117.71, 0.279181
2118.58, 0.279181
2119.44, 0.279119
2120.31, 0.279119
2121.18, 0.279058
2122.04, 0.278996
2122.91, 0.279181
2123.78, 0.279366
2124.65, 0.279243
2125.52, 0.278996
2126.4, 0.279119
2127.27, 0.279058
2128.14, 0.278873
2129.02, 0.279181
2129.89, 0.279181
2130.77, 0.279058
2131.64, 0.279119
2132.52, 0.278996
2133.4, 0.279058
2134.27, 0.279181
2135.15, 0.279119
2136.03, 0.278935
2136.91, 0.279058
2137.79, 0.278996
2138.68, 0.279058
2139.56, 0.279119
2140.44, 0.279181
2141.33, 0.278996
2142.21, 0.279058
2143.1, 0.279058
2143.99, 0.279058
2144.87, 0.279119
2145.76, 0.279366
2146.65, 0.279304
2147.54, 0.279181
2148.43, 0.279119
2149.32, 0.279181
2150.21, 0.279181
2151.1, 0.279119
2151.99, 0.279181
2152.89, 0.279366
2153.78, 0.279304
2154.68, 0.279304
2155.57, 0.279058
2156.47, 0.279119
2157.37, 0.279243
2158.27, 0.279243
2159.16, 0.279119
2160.06, 0.279366
2160.96, 0.279366
2161.86, 0.279304
2162.77, 0.279181
2163.67, 0.279181
2164.57, 0.279181
2165.48, 0.279243
2166.38, 0.279119
2167.29, 0.279304
2168.2, 0.279366
2169.1, 0.279489
2170.01, 0.279304
2170.92, 0.279243
2171.83, 0.279304
2172.74, 0.279366
2173.65, 0.279304
2174.56, 0.279366
2175.47, 0.279181
2176.39, 0.279181
2177.3, 0.278935
2178.22, 0.279058
2179.13, 0.279181
2180.05, 0.279181
2180.96, 0.279119
2181.88, 0.279058
2182.8, 0.278750
2183.72, 0.278812
2184.64, 0.278935
2185.56, 0.279119
2186.48, 0.278996
2187.41, 0.278873
2188.33, 0.278935
2189.25, 0.279058
2190.18, 0.278935
2191.1, 0.278873
2192.03, 0.278750
2192.96, 0.278688
2193.89, 0.278504
2194.82, 0.278627
2195.74, 0.278627
2196.68, 0.278688
2197.61, 0.278627
2198.54, 0.278688
2199.47, 0.278504
2200.4, 0.278565
2201.34, 0.278442
2202.28, 0.278442
2203.21, 0.278381
2204.15, 0.278442
2205.08, 0.278196
2206.02, 0.278196
2206.96, 0.278134
2207.9, 0.278073
2208.84, 0.278073
2209.78, 0.278257
2210.73, 0.278257
2211.67, 0.278134
2212.61, 0.278196
2213.56, 0.278319
2214.5, 0.278073
2215.45, 0.278073
2216.4, 0.278073
2217.35, 0.278134
2218.3, 0.278134
2219.24, 0.278196
2220.2, 0.278073
2221.15, 0.278196
2222.1, 0.278073
2223.05, 0.277888
2224.0, 0.277580
2224.96, 0.277703
2225.91, 0.277765
2226.87, 0.278011
2227.83, 0.277888
2228.79, 0.277888
2229.74, 0.277642
2230.7, 0.277765
2231.66, 0.277580
2232.63, 0.277580
2233.59, 0.277642
2234.55, 0.277642
2235.51, 0.277334
2236.48, 0.277272
2237.44, 0.277457
2238.41, 0.277395
2239.38, 0.276903
2240.34, 0.276718
2241.31, 0.276780
2242.28, 0.277088
2243.25, 0.276964
2244.22, 0.276903
2245.19, 0.277088
2246.17, 0.277334
2247.14, 0.277211
2248.12, 0.276964
2249.09, 0.277014
2250.07, 0.276365
2251.04, 0.276115
2252.02, 0.276465
2253.0, 0.276315
2253.98, 0.275965
2254.96, 0.275615
2255.94, 0.275615
2256.92, 0.275915
2257.91, 0.276165
2258.89, 0.276115
2259.88, 0.275865
2260.86, 0.275316
2261.85, 0.275066
2262.83, 0.275066
2263.82, 0.275316
2264.81, 0.275416
2265.8, 0.275266
2266.79, 0.274966
2267.78, 0.274516
2268.78, 0.274267
2269.77, 0.274666
2270.76, 0.274866
2271.76, 0.274816
2272.75, 0.274417
2273.75, 0.274367
2274.75, 0.273967
2275.75, 0.273767
2276.75, 0.274267
2277.75, 0.274117
2278.75, 0.273567
2279.75, 0.273218
2280.75, 0.273018
2281.76, 0.272668
2282.76, 0.272368
2283.77, 0.272668
2284.77, 0.272818
2285.78, 0.272818
2286.79, 0.272518
2287.8, 0.272069
2288.81, 0.271519
2289.82, 0.271319
2290.83, 0.271469
2291.84, 0.271169
2292.86, 0.271169
2293.87, 0.271219
2294.89, 0.270720
2295.91, 0.270570
2296.92, 0.270370
2297.94, 0.270270
2298.96, 0.270120
2299.98, 0.269720
2301.0, 0.269171
2302.02, 0.268971
2303.04, 0.268821
2304.07, 0.268821
2305.09, 0.268571
2306.12, 0.268571
2307.15, 0.268621
2308.17, 0.268372
2309.2, 0.267922
2310.23, 0.267672
2311.26, 0.267622
2312.29, 0.267472
2313.32, 0.267273
2314.35, 0.266773
2315.39, 0.266773
2316.42, 0.267073
2317.46, 0.266773
2318.5, 0.266373
2319.53, 0.266074
2320.57, 0.265774
2321.61, 0.265674
2322.65, 0.265674
2323.69, 0.265524
2324.73, 0.265474
2325.78, 0.265074
2326.82, 0.264575
2327.86, 0.264525
2328.91, 0.264625
2329.96, 0.264325
2331.01, 0.264225
2332.05, 0.264175
2333.1, 0.264325
2334.15, 0.264125
2335.21, 0.263526
2336.26, 0.263126
2337.31, 0.263126
2338.36, 0.263226
2339.42, 0.263176
2340.48, 0.263076
2341.53, 0.262826
2342.59, 0.262527
2343.65, 0.262427
2344.71, 0.262027
2345.77, 0.261827
2346.83, 0.261677
2347.9, 0.261827
2348.96, 0.261727
2350.02, 0.261278
2351.09, 0.261128
2352.16, 0.261478
2353.23, 0.261627
2354.29, 0.261228
2355.36, 0.261078
2356.43, 0.261178
2357.51, 0.260978
2358.58, 0.260928
2359.65, 0.261028
2360.73, 0.261128
2361.8, 0.261078
2362.88, 0.261278
2363.96, 0.261527
2365.03, 0.261527
2366.11, 0.261328
2367.19, 0.261378
2368.27, 0.261677
2369.36, 0.262277
2370.44, 0.262377
2371.53, 0.262227
2372.61, 0.262577
2373.7, 0.262926
2374.78, 0.263276
2375.87, 0.263626
2376.96, 0.263975
2378.05, 0.264375
2379.14, 0.264675
2380.24, 0.264975
2381.33, 0.265224
2382.42, 0.265574
2383.52, 0.265774
2384.61, 0.265924
2385.71, 0.266024
2386.81, 0.266423
2387.91, 0.266823
2389.01, 0.266623
2390.11, 0.266573
2391.22, 0.266823
2392.32, 0.266973
2393.42, 0.267173
2394.53, 0.267472
2395.64, 0.267722
2396.74, 0.267522
2397.85, 0.267323
2398.96, 0.267372
2400.07, 0.267622
2401.18, 0.267772
2402.3, 0.267722
2403.41, 0.267722
2404.52, 0.267822
2405.64, 0.267672
2406.76, 0.267522
2407.88, 0.267472
2408.99, 0.267822
2410.11, 0.267872
2411.23, 0.267922
2412.36, 0.267672
2413.48, 0.267772
2414.6, 0.267672
2415.73, 0.267372
2416.85, 0.267323
2417.98, 0.267273
2419.11, 0.267173
2420.24, 0.267273
2421.37, 0.267123
2422.5, 0.267173
2423.64, 0.267223
2424.77, 0.267173
2425.9, 0.267073
2427.04, 0.267123
2428.18, 0.267273
2429.31, 0.267223
2430.45, 0.267073
2431.59, 0.267223
2432.73, 0.267173
2433.88, 0.267123
2435.02, 0.267223
2436.16, 0.267223
2437.31, 0.267173
2438.45, 0.267023
2439.6, 0.266623
2440.75, 0.266773
2441.9, 0.266723
2443.05, 0.266623
2444.2, 0.266623
2445.35, 0.266573
2446.51, 0.266473
2447.67, 0.266523
2448.82, 0.266323
2449.98, 0.266273
2451.14, 0.266174
2452.3, 0.266573
2453.46, 0.266473
2454.62, 0.266124
2455.78, 0.266074
2456.94, 0.265924
2458.11, 0.265524
2459.28, 0.265474
2460.44, 0.265524
2461.61, 0.265324
2462.78, 0.265025
2463.95, 0.265074
2465.12, 0.265224
2466.3, 0.264875
2467.47, 0.264475
2468.65, 0.264475
2469.82, 0.264425
2471.0, 0.264325
2472.18, 0.264075
2473.36, 0.263925
2474.54, 0.263875
2475.72, 0.263676
2476.9, 0.263126
2478.08, 0.262876
2479.27, 0.262726
2480.46, 0.262527
2481.64, 0.262427
2482.83, 0.262377
2484.02, 0.262177
2485.21, 0.261927
2486.4, 0.261777
2487.6, 0.261627
2488.79, 0.261527
2489.99, 0.261228
2491.18, 0.260828
2492.38, 0.260928
2493.58, 0.260978
2494.78, 0.260828
2495.98, 0.260628
2497.18, 0.260628
2498.39, 0.260329
2499.59, 0.260029
2500.8, 0.259829
2502.01, 0.259879
2503.21, 0.259879
2504.42, 0.259779
2505.63, 0.259429
2506.84, 0.259629
2508.06, 0.259679
2509.27, 0.259429
2510.49, 0.259179
2511.7, 0.259130
2512.92, 0.259479
2514.14, 0.259579
2515.36, 0.259179
2516.58, 0.258980
2517.8, 0.259279
2519.03, 0.259629
2520.25, 0.259629
2521.48, 0.259629
2522.7, 0.259529
2523.93, 0.259479
2525.16, 0.259579
2526.39, 0.259929
2527.62, 0.259929
2528.86, 0.259829
2530.09, 0.259929
2531.33, 0.260079
2532.56, 0.260029
2533.8, 0.260029
2535.04, 0.259829
2536.28, 0.259879
2537.52, 0.260129
2538.76, 0.260179
2540.01, 0.260129
2541.25, 0.259979
2542.5, 0.259529
2543.75, 0.259779
2544.99, 0.260279
2546.24, 0.260279
2547.49, 0.259979
2548.75, 0.260229
2550.0, 0.260229
2551.26, 0.259879
2552.51, 0.259679
2553.77, 0.260079
2555.03, 0.260478
2556.29, 0.260678
2557.55, 0.260878
2558.81, 0.260878
2560.08, 0.259929
2561.34, 0.259379
2562.61, 0.259379
2563.88, 0.259479
2565.14, 0.260478
2566.41, 0.261777
2567.68, 0.261977
2568.96, 0.261428
2570.23, 0.261577
2571.51, 0.262127
2572.78, 0.261378
2574.06, 0.261827
2575.34, 0.262577
2576.62, 0.262527
2577.9, 0.263076
2579.18, 0.263576
2580.47, 0.263326
2581.75, 0.263226
2583.04, 0.262077
2584.32, 0.262277
2585.61, 0.263226
2586.9, 0.263126
2588.2, 0.263426
2589.49, 0.263925
2590.78, 0.264325
2592.08, 0.263925
2593.37, 0.261278
2594.67, 0.259080
2595.97, 0.261228
2597.27, 0.263626
2598.57, 0.264525
2599.88, 0.264625
2601.18, 0.263925
2602.49, 0.263326
2603.79, 0.262577
2605.1, 0.261777
2606.41, 0.262377
2607.72, 0.263226
2609.03, 0.263526
2610.35, 0.263726
2611.66, 0.263826
2612.98, 0.263676
2614.3, 0.263776
2615.62, 0.262577
2616.94, 0.261877
2618.26, 0.262627
2619.58, 0.261877
2620.91, 0.262377
2622.23, 0.263875
2623.56, 0.264225
2624.89, 0.263526
2626.22, 0.262327
2627.55, 0.262876
2628.88, 0.262427
2630.21, 0.261428
2631.55, 0.262726
2632.89, 0.263276
2634.22, 0.263326
2635.56, 0.264025
2636.9, 0.264125
2638.25, 0.264025
2639.59, 0.263975
2640.93, 0.263826
2642.28, 0.263676
2643.63, 0.263626
2644.98, 0.263176
2646.33, 0.263176
2647.68, 0.263626
2649.03, 0.263576
2650.39, 0.263026
2651.74, 0.262277
2653.1, 0.262377
2654.46, 0.262477
2655.82, 0.262277
2657.18, 0.262377
2658.54, 0.261777
2659.9, 0.261078
2661.27, 0.260828
2662.64, 0.260578
2664.01, 0.258830
2665.38, 0.257081
2666.74, 0.256831
2668.12, 0.257381
2669.49, 0.255133
2670.87, 0.254434
2672.24, 0.256382
2673.62, 0.256382
2675.0, 0.254633
2676.38, 0.252735
2677.76, 0.252685
2679.15, 0.252635
2680.54, 0.252985
2681.92, 0.252385
2683.31, 0.251336
2684.7, 0.250387
2686.09, 0.249338
2687.48, 0.248539
2688.88, 0.247989
2690.27, 0.247340
2691.67, 0.245891
2693.07, 0.243243
2694.47, 0.241644
2695.87, 0.240995
2697.27, 0.240246
2698.67, 0.238547
2700.08, 0.236249
2701.49, 0.234101
2702.9, 0.232402
2704.31, 0.229904
2705.72, 0.226957
2707.13, 0.223460
2708.54, 0.219363
2709.96, 0.215017
2711.38, 0.211970
2712.8, 0.209472
2714.22, 0.205725
2715.64, 0.201229
2717.06, 0.196233
2718.49, 0.190138
2719.91, 0.183044
2721.34, 0.177249
2722.77, 0.170805
2724.2, 0.163161
2725.63, 0.157916
2727.07, 0.154069
2728.5, 0.149573
2729.94, 0.143728
2731.38, 0.137033
2732.82, 0.129989
2734.26, 0.123345
2735.7, 0.118050
2737.15, 0.113503
2738.59, 0.108458
2740.04, 0.103812
2741.49, 0.100365
2742.94, 0.0976670
2744.39, 0.0947690
2745.84, 0.0920720
2747.3, 0.0896740
2748.76, 0.0878750
2750.21, 0.0865260
2751.67, 0.0852270
2753.14, 0.0838790
2754.6, 0.0823300
2756.06, 0.0817300
2757.53, 0.0816800
2759.0, 0.0812310
2760.46, 0.0806810
2761.94, 0.0798820
2763.41, 0.0798320
2764.88, 0.0799320
2766.36, 0.0799320
2767.83, 0.0799320
2769.31, 0.0798320
2770.79, 0.0797320
2772.27, 0.0800820
2773.76, 0.0803320
2775.24, 0.0803820
2776.73, 0.0804320
2778.22, 0.0806310
2779.71, 0.0807810
2781.2, 0.0808810
2782.69, 0.0811310
2784.18, 0.0813810
2785.68, 0.0813810
2787.18, 0.0815810
2788.68, 0.0820300
2790.18, 0.0826800
2791.68, 0.0831290
2793.19, 0.0835290
2794.69, 0.0841280
2796.2, 0.0846280
2797.71, 0.0849780
2799.22, 0.0854270
2800.73, 0.0859270
2802.24, 0.0863270
2803.76, 0.0867760
2805.28, 0.0874760
2806.8, 0.0880750
2808.32, 0.0885750
2809.84, 0.0891240
2811.36, 0.0900230
2812.89, 0.0906230
2814.42, 0.0911220
2815.94, 0.0917720
2817.48, 0.0924710
2819.01, 0.0931210
2820.54, 0.0938200
2822.08, 0.0946690
2823.61, 0.0953690
2825.15, 0.0959180
2826.69, 0.0966680
2828.23, 0.0972170
2829.78, 0.0980670
2831.32, 0.0990660
2832.87, 0.0997650
2834.42, 0.100315
2835.97, 0.100864
2837.52, 0.101314
2839.08, 0.101963
2840.63, 0.102563
2842.19, 0.103312
2843.75, 0.104012
2845.31, 0.104461
2846.87, 0.104861
2848.44, 0.105360
2850.0, 0.105760
2851.57, 0.106260
2853.14, 0.106759
2854.71, 0.106909
2856.28, 0.107059
2857.86, 0.107359
2859.43, 0.107858
2861.01, 0.108158
2862.59, 0.108258
2864.17, 0.108658
2865.76, 0.108907
2867.34, 0.109107
2868.93, 0.109407
2870.52, 0.109657
2872.11, 0.109707
2873.7, 0.109757
2875.29, 0.110056
2876.89, 0.110506
2878.49, 0.110706
2880.08, 0.111006
2881.69, 0.111205
2883.29, 0.111355
2884.89, 0.111455
2886.5, 0.111655
2888.11, 0.111805
2889.72, 0.112005
2891.33, 0.112254
2892.94, 0.112554
2894.56, 0.112704
2896.17, 0.112854
2897.79, 0.113054
2899.42, 0.113154
2901.04, 0.113354
2902.66, 0.113753
2904.29, 0.113903
2905.92, 0.114153
2907.55, 0.114353
2909.18, 0.114652
2910.81, 0.114852
2912.45, 0.114902
2914.08, 0.114902
2915.72, 0.115152
2917.36, 0.115402
2919.01, 0.115602
2920.65, 0.115752
2922.3, 0.115901
2923.94, 0.116051
2925.59, 0.116301
2927.25, 0.116551
2928.9, 0.116751
2930.56, 0.116751
2932.21, 0.117000
2933.87, 0.117200
2935.53, 0.117450
2937.2, 0.117550
2938.86, 0.117850
2940.53, 0.118199
2942.2, 0.118399
2943.87, 0.118349
2945.54, 0.118599
2947.22, 0.118949
2948.89, 0.119199
2950.57, 0.119448
2952.25, 0.119798
2953.93, 0.120148
2955.62, 0.120497
2957.3, 0.120697
2958.99, 0.120997
2960.68, 0.121447
2962.37, 0.121696
2964.07, 0.121746
2965.76, 0.122096
2967.46, 0.122496
2969.16, 0.122696
2970.86, 0.122995
2972.56, 0.123445
2974.27, 0.123695
2975.98, 0.124094
2977.69, 0.124444
2979.4, 0.124844
2981.11, 0.125193
2982.83, 0.125543
2984.54, 0.125743
2986.26, 0.125943
2987.98, 0.126243
2989.71, 0.126892
2991.43, 0.127442
2993.16, 0.127891
2994.89, 0.127991
2996.62, 0.128241
2998.35, 0.128641
3000.09, 0.128990
3001.83, 0.129240
3003.57, 0.129590
3005.31, 0.129939
3007.05, 0.130239
3008.79, 0.130539
3010.54, 0.130939
3012.29, 0.131388
3014.04, 0.131938
3015.8, 0.132287
3017.55, 0.132437
3019.31, 0.132637
3021.07, 0.132987
3022.83, 0.133387
3024.59, 0.133836
3026.36, 0.134336
3028.13, 0.134635
3029.9, 0.134935
3031.67, 0.135285
3033.44, 0.135535
3035.22, 0.135884
3037.0, 0.136234
3038.78, 0.136634
3040.56, 0.136933
3042.34, 0.137283
3044.13, 0.137583
3045.92, 0.137833
3047.71, 0.137933
3049.5, 0.138182
3051.3, 0.138582
3053.09, 0.138932
3054.89, 0.139132
3056.69, 0.139531
3058.5, 0.139881
3060.3, 0.140181
3062.11, 0.140331
3063.92, 0.140580
3065.73, 0.140930
3067.55, 0.141380
3069.36, 0.141630
3071.18, 0.141779
3073.0, 0.142029
3074.82, 0.142329
3076.65, 0.142629
3078.48, 0.143028
3080.31, 0.143228
3082.14, 0.143428
3083.97, 0.143728
3085.8, 0.144127
3087.64, 0.144327
3089.48, 0.144477
3091.33, 0.144777
3093.17, 0.145127
3095.02, 0.145426
3096.87, 0.145726
3098.72, 0.146076
3100.57, 0.146425
3102.43, 0.146725
3104.28, 0.147075
3106.14, 0.147475
3108.01, 0.147724
3109.87, 0.148124
3111.74, 0.148424
3113.61, 0.148674
3115.48, 0.149023
3117.35, 0.149373
3119.23, 0.149723
3121.1, 0.150122
3122.98, 0.150672
3124.87, 0.150972
3126.75, 0.151321
3128.64, 0.151821
3130.53, 0.152320
3132.42, 0.152820
3134.31, 0.153320
3136.21, 0.153619
3138.11, 0.153919
3140.01, 0.154369
3141.91, 0.154768
3143.82, 0.155218
3145.73, 0.155718
3147.64, 0.156167
3149.55, 0.156567
3151.46, 0.156867
3153.38, 0.157316
3155.3, 0.157666
3157.22, 0.158016
3159.14, 0.158415
3161.07, 0.158915
3163.0, 0.159364
3164.93, 0.159614
3166.86, 0.160114
3168.8, 0.160613
3170.74, 0.160913
3172.68, 0.161363
3174.62, 0.161662
3176.56, 0.162012
3178.51, 0.162362
3180.46, 0.162712
3182.42, 0.163111
3184.37, 0.163611
3186.33, 0.164060
3188.29, 0.164410
3190.25, 0.164660
3192.21, 0.165110
3194.18, 0.165459
3196.15, 0.165759
3198.12, 0.166308
3200.09, 0.166808
3202.07, 0.167158
3204.05, 0.167507
3206.03, 0.168007
3208.02, 0.168457
3210.0, 0.168756
3211.99, 0.169156
3213.98, 0.169556
3215.98, 0.170005
3217.97, 0.170405
3219.97, 0.170705
3221.97, 0.170905
3223.98, 0.171204
3225.98, 0.171604
3227.99, 0.172004
3230.0, 0.172353
3232.02, 0.172653
3234.03, 0.172903
3236.05, 0.173402
3238.07, 0.173702
3240.1, 0.173902
3242.12, 0.174152
3244.15, 0.174551
3246.18, 0.174851
3248.22, 0.175051
3250.25, 0.175251
3252.29, 0.175551
3254.33, 0.175800
3256.38, 0.176050
3258.43, 0.176250
3260.47, 0.176500
3262.53, 0.176850
3264.58, 0.177299
3266.64, 0.177499
3268.7, 0.177649
3270.76, 0.177849
3272.82, 0.178049
3274.89, 0.178348
3276.96, 0.178648
3279.04, 0.178798
3281.11, 0.179048
3283.19, 0.179347
3285.27, 0.179497
3287.35, 0.179597
3289.44, 0.179747
3291.53, 0.179897
3293.62, 0.180147
3295.71, 0.180297
3297.81, 0.180396
3299.91, 0.180496
3302.01, 0.180796
3304.11, 0.180846
3306.22, 0.180846
3308.33, 0.180896
3310.44, 0.180846
3312.56, 0.180696
3314.68, 0.180546
3316.8, 0.180446
3318.92, 0.180396
3321.05, 0.180347
3323.18, 0.180197
3325.31, 0.179847
3327.44, 0.179547
3329.58, 0.179098
3331.72, 0.178548
3333.86, 0.177749
3336.01, 0.176650
3338.16, 0.175351
3340.31, 0.173902
3342.46, 0.172453
3344.61, 0.171304
3346.77, 0.170255
3348.94, 0.169606
3351.1, 0.169206
3353.27, 0.168956
3355.44, 0.168756
3357.61, 0.168806
3359.79, 0.168956
3361.97, 0.169106
3364.15, 0.169406
3366.33, 0.169656
3368.52, 0.169955
3370.71, 0.170305
3372.9, 0.170555
3375.1, 0.170755
3377.3, 0.171004
3379.5, 0.171254
3381.71, 0.171454
3383.91, 0.171604
3386.12, 0.171854
3388.34, 0.171954
3390.55, 0.172054
3392.77, 0.172154
3394.99, 0.172253
3397.22, 0.172403
3399.45, 0.172553
3401.68, 0.172603
3403.91, 0.172653
3406.15, 0.172753
3408.39, 0.172803
3410.63, 0.172953
3412.87, 0.173203
3415.12, 0.173502
3417.37, 0.173702
3419.63, 0.173902
3421.88, 0.174152
3424.14, 0.174502
3426.41, 0.174801
3428.67, 0.175051
3430.94, 0.175251
3433.21, 0.175351
3435.49, 0.175501
3437.77, 0.175651
3440.05, 0.175750
3442.33, 0.175950
3444.62, 0.176050
3446.91, 0.176100
3449.2, 0.176150
3451.5, 0.176250
3453.8, 0.176250
3456.1, 0.176150
3458.41, 0.176100
3460.72, 0.176200
3463.03, 0.176100
3465.34, 0.175950
3467.66, 0.175900
3469.98, 0.175701
3472.31, 0.175451
3474.63, 0.175351
3476.96, 0.175201
3479.3, 0.175051
3481.64, 0.174801
3483.97, 0.174502
3486.32, 0.174052
3488.66, 0.173652
3491.01, 0.173153
3493.36, 0.172653
3495.72, 0.171954
3498.08, 0.171404
3500.44, 0.170905
3502.81, 0.170455
3505.18, 0.170055
3507.55, 0.169905
3509.92, 0.169905
3512.3, 0.170105
3514.68, 0.170405
3517.06, 0.170805
3519.45, 0.171154
3521.84, 0.171704
3524.24, 0.172303
3526.64, 0.173003
3529.04, 0.173652
3531.44, 0.174402
3533.85, 0.175051
3536.26, 0.175850
3538.67, 0.176600
3541.09, 0.177349
3543.51, 0.178148
3545.93, 0.179048
3548.36, 0.179897
3550.79, 0.180746
3553.22, 0.181695
3555.66, 0.182844
3558.1, 0.184093
3560.54, 0.185492
3562.99, 0.187041
3565.44, 0.188739
3567.9, 0.190438
3570.35, 0.192087
3572.81, 0.193685
3575.28, 0.195134
3577.75, 0.196383
3580.22, 0.197582
3582.69, 0.198631
3585.17, 0.199430
3587.65, 0.200080
3590.14, 0.200729
3592.62, 0.201129
3595.11, 0.201429
3597.61, 0.201479
3600.11, 0.201578
3602.61, 0.201828
3605.11, 0.202128
3607.62, 0.202378
3610.14, 0.202678
3612.65, 0.203027
3615.17, 0.203477
3617.69, 0.203827
3620.22, 0.204126
3622.75, 0.204426
3625.28, 0.204826
3627.82, 0.205026
3630.36, 0.205076
3632.9, 0.205275
3635.45, 0.205525
3638.0, 0.205525
3640.56, 0.205575
3643.12, 0.205675
3645.68, 0.205825
3648.24, 0.205825
3650.81, 0.205925
3653.39, 0.205975
3655.96, 0.206075
3658.54, 0.206075
3661.13, 0.206075
3663.71, 0.206125
3666.3, 0.206125
3668.9, 0.206175
3671.5, 0.206225
3674.1, 0.206175
3676.7, 0.206225
3679.31, 0.206274
3681.93, 0.206324
3684.54, 0.206324
3687.17, 0.206225
3689.79, 0.206175
3692.42, 0.206274
3695.05, 0.206274
3697.69, 0.206374
3700.32, 0.206374
3702.97, 0.206374
3705.61, 0.206324
3708.27, 0.206374
3710.92, 0.206374
3713.58, 0.206374
3716.24, 0.206324
3718.91, 0.206225
3721.58, 0.206125
3724.25, 0.206125
3726.93, 0.206125
3729.61, 0.206075
3732.29, 0.205925
3734.98, 0.205775
3737.67, 0.205675
3740.37, 0.205725
3743.07, 0.205625
3745.78, 0.205425
3748.49, 0.205375
3751.2, 0.205375
3753.91, 0.205325
3756.63, 0.205275
3759.36, 0.205225
3762.09, 0.205076
3764.82, 0.204976
3767.55, 0.205026
3770.29, 0.204826
3773.04, 0.204476
3775.78, 0.204026
3778.54, 0.203577
3781.29, 0.203027
3784.05, 0.202378
3786.82, 0.201578
3789.59, 0.200629
3792.36, 0.199530
3795.13, 0.198381
3797.92, 0.197232
3800.7, 0.196233
3803.49, 0.195134
3806.28, 0.194135
3809.08, 0.193136
3811.88, 0.192236
3814.68, 0.191287
3817.49, 0.190338
3820.31, 0.189339
3823.12, 0.188390
3825.94, 0.187490
3828.77, 0.186591
3831.6, 0.185692
3834.43, 0.184893
3837.27, 0.183943
3840.11, 0.183094
3842.96, 0.182345
3845.81, 0.181745
3848.67, 0.181246
3851.53, 0.180896
3854.39, 0.180546
3857.26, 0.180097
3860.13, 0.179747
3863.01, 0.179547
3865.89, 0.179347
3868.77, 0.179198
3871.66, 0.179048
3874.55, 0.178948
3877.45, 0.178898
3880.35, 0.178848
3883.26, 0.178798
3886.17, 0.178598
3889.09, 0.178398
3892.01, 0.178298
3894.93, 0.178148
3897.86, 0.177999
3900.79, 0.177749
3903.73, 0.177599
3906.67, 0.177399
3909.62, 0.177249
3912.57, 0.177049
3915.52, 0.176949
3918.48, 0.176750
3921.45, 0.176400
3924.42, 0.176050
3927.39, 0.175701
3930.37, 0.175351
3933.35, 0.175051
3936.34, 0.174651
3939.33, 0.174302
3942.32, 0.173902
3945.32, 0.173452
3948.33, 0.172903
3951.34, 0.172253
3954.35, 0.171304
3957.37, 0.170305
3960.39, 0.169206
3963.42, 0.168107
3966.45, 0.167008
3969.49, 0.165909
3972.53, 0.164760
3975.58, 0.163761
3978.63, 0.162861
3981.68, 0.161912
3984.75, 0.161063
3987.81, 0.160364
3990.88, 0.159714
3993.95, 0.159065
3997.03, 0.158465
4000.12, 0.157966
4003.21, 0.157316
4006.3, 0.156767
4009.4, 0.156317
4012.5, 0.156117
4015.61, 0.156017
4018.72, 0.156367
4021.84, 0.157116
4024.96, 0.158365
4028.09, 0.160314
4031.22, 0.162811
4034.36, 0.165559
4037.5, 0.168457
4040.65, 0.171254
4043.8, 0.173852
4046.96, 0.176050
4050.12, 0.177999
4053.29, 0.179747
4056.46, 0.181446
4059.64, 0.182894
4062.82, 0.184293
4066.0, 0.185592
4069.19, 0.186791
4072.39, 0.187890
4075.59, 0.188839
4078.8, 0.189739
4082.01, 0.190538
4085.23, 0.191187
4088.45, 0.191787
4091.68, 0.192286
4094.91, 0.192686
4098.15, 0.192986
4101.39, 0.193435
4104.63, 0.193785
4107.89, 0.194135
4111.14, 0.194485
4114.41, 0.194884
4117.67, 0.195234
4120.95, 0.195634
4124.23, 0.195883
4127.51, 0.196183
4130.8, 0.196433
4134.09, 0.196733
4137.39, 0.196982
4140.7, 0.197182
4144.01, 0.197282
4147.32, 0.197432
4150.64, 0.197582
4153.97, 0.197632
4157.3, 0.197582
4160.64, 0.197682
4163.98, 0.197732
4167.33, 0.197782
4170.68, 0.197682
4174.04, 0.197732
4177.4, 0.197582
4180.77, 0.197482
4184.14, 0.197432
4187.52, 0.197432
4190.91, 0.197332
4194.3, 0.197282
4197.69, 0.197232
4201.1, 0.197182
4204.5, 0.197132
4207.92, 0.197132
4211.34, 0.197082
4214.76, 0.197182
4218.19, 0.197182
4221.62, 0.197332
4225.06, 0.197382
4228.51, 0.197332
4231.96, 0.197282
4235.42, 0.197282
4238.88, 0.197082
4242.35, 0.196982
4245.83, 0.196733
4249.31, 0.196333
4252.79, 0.195933
4256.28, 0.195733
4259.78, 0.195733
4263.29, 0.195833
4266.79, 0.195833
4270.31, 0.195783
4273.83, 0.195684
4277.35, 0.195634
4280.89, 0.195534
4284.42, 0.195384
4287.97, 0.195234
4291.52, 0.195084
4295.07, 0.194884
4298.63, 0.194634
4302.2, 0.194435
4305.78, 0.194285
4309.35, 0.194085
4312.94, 0.193985
4316.53, 0.193785
4320.13, 0.193535
4323.73, 0.193186
4327.34, 0.193036
4330.96, 0.192886
4334.58, 0.192786
4338.21, 0.192636
4341.84, 0.192486
4345.48, 0.192286
4349.12, 0.192087
4352.77, 0.191887
4356.43, 0.191687
4360.1, 0.191537
4363.76, 0.191387
4367.44, 0.191187
4371.12, 0.190987
4374.81, 0.190788
4378.51, 0.190688
4382.21, 0.190538
4385.92, 0.190388
4389.63, 0.190188
4393.35, 0.190038
4397.08, 0.189888
4400.81, 0.189938
4404.55, 0.189838
4408.29, 0.189689
4412.04, 0.189539
4415.8, 0.189489
4419.57, 0.189339
4423.34, 0.189139
4427.12, 0.188939
4430.9, 0.188839
4434.69, 0.188689
4438.49, 0.188390
4442.29, 0.188090
4446.1, 0.187940
4449.92, 0.187590
4453.74, 0.187341
4457.57, 0.187091
4461.41, 0.186791
4465.25, 0.186441
4469.1, 0.186192
4472.95, 0.185942
4476.82, 0.185692
4480.69, 0.185492
4484.56, 0.185292
4488.44, 0.184993
4492.33, 0.184643
4496.23, 0.184393
4500.13, 0.184293
4504.04, 0.184043
4507.96, 0.183794
4511.88, 0.183544
4515.81, 0.183344
4519.75, 0.183144
4523.69, 0.182894
4527.65, 0.182645
4531.6, 0.182395
4535.57, 0.182045
4539.54, 0.181845
4543.52, 0.181595
4547.5, 0.181346
4551.5, 0.181096
4555.5, 0.180796
4559.5, 0.180496
4563.52, 0.180197
4567.54, 0.179947
4571.56, 0.179697
4575.6, 0.179347
4579.64, 0.179098
4583.69, 0.178798
4587.75, 0.178398
4591.81, 0.177999
4595.88, 0.177599
4599.96, 0.176999
4604.04, 0.176500
4608.14, 0.176100
4612.24, 0.175601
4616.34, 0.175051
4620.46, 0.174502
4624.58, 0.173902
4628.71, 0.173352
4632.84, 0.172803
4636.99, 0.172154
4641.14, 0.171454
4645.3, 0.170705
4649.47, 0.169955
4653.64, 0.169256
4657.82, 0.168507
4662.01, 0.167907
4666.21, 0.167208
4670.41, 0.166608
4674.62, 0.165959
4678.84, 0.165359
4683.07, 0.164860
4687.3, 0.164360
4691.54, 0.163861
4695.79, 0.163361
4700.05, 0.162861
4704.31, 0.162462
4708.59, 0.162262
4712.87, 0.162062
4717.15, 0.161962
4721.45, 0.161862
4725.76, 0.161962
4730.07, 0.162112
4734.39, 0.162162
4738.72, 0.162062
4743.05, 0.162012
4747.39, 0.161812
4751.75, 0.161513
4756.1, 0.161263
4760.47, 0.160863
4764.85, 0.160463
4769.23, 0.159914
4773.62, 0.159514
4778.02, 0.159015
4782.43, 0.158565
4786.85, 0.158066
4791.27, 0.157566
4795.7, 0.157066
4800.14, 0.156667
4804.59, 0.156217
4809.05, 0.155767
4813.51, 0.155418
4817.99, 0.155168
4822.47, 0.155018
4826.96, 0.154818
4831.46, 0.154519
4835.96, 0.154269
4840.48, 0.153919
4845.0, 0.153669
4849.54, 0.153320
4854.08, 0.152870
4858.63, 0.152370
4863.18, 0.151971
4867.75, 0.151421
4872.33, 0.150872
4876.91, 0.150422
4881.5, 0.150072
4886.1, 0.149673
4890.71, 0.149123
4895.33, 0.148524
4899.96, 0.148024
4904.59, 0.147475
4909.24, 0.146975
4913.89, 0.146425
4918.55, 0.145776
4923.22, 0.145077
4927.9, 0.144427
4932.59, 0.143778
4937.29, 0.143128
4942.0, 0.142429
4946.71, 0.141630
4951.44, 0.140680
4956.17, 0.139831
4960.91, 0.139032
4965.67, 0.138232
4970.43, 0.137383
4975.2, 0.136534
4979.98, 0.135735
4984.76, 0.135035
4989.56, 0.134336
4994.37, 0.133586
4999.18, 0.132687
5004.01, 0.131788
5008.84, 0.130939
5013.69, 0.130089
5018.54, 0.129190
5023.4, 0.128491
5028.28, 0.127841
5033.16, 0.127142
5038.05, 0.126193
5042.95, 0.125094
5047.86, 0.123845
5052.78, 0.122496
5057.71, 0.120997
5062.65, 0.119398
5067.6, 0.117650
5072.56, 0.115951
5077.53, 0.114103
5082.5, 0.112254
5087.49, 0.110456
5092.49, 0.108757
5097.5, 0.107009
5102.51, 0.105310
5107.54, 0.103612
5112.58, 0.101963
5117.62, 0.100465
5122.68, 0.0992160
5127.75, 0.0979670
5132.82, 0.0968680
5137.91, 0.0961680
5143.01, 0.0956190
5148.12, 0.0952190
5153.23, 0.0949690
5158.36, 0.0946190
5163.5, 0.0943700
5168.65, 0.0941700
5173.81, 0.0940200
5178.98, 0.0939200
5184.15, 0.0938200
5189.34, 0.0936200
5194.54, 0.0934210
5199.75, 0.0932710
5204.98, 0.0931710
5210.21, 0.0927710
5215.45, 0.0925210
5220.7, 0.0924210
5225.96, 0.0922220
5231.23, 0.0917720
5236.52, 0.0913220
5241.81, 0.0909230
5247.12, 0.0905730
5252.44, 0.0900230
5257.76, 0.0894240
5263.1, 0.0889240
5268.45, 0.0883250
5273.81, 0.0876750
5279.18, 0.0871260
5284.56, 0.0864760
5289.95, 0.0857770
5295.36, 0.0852270
5300.77, 0.0847280
5306.2, 0.0842780
5311.63, 0.0838290
5317.08, 0.0834290
5322.54, 0.0829790
5328.01, 0.0825800
5333.49, 0.0821800
5338.98, 0.0816800
5344.49, 0.0808810
5350.0, 0.0801320
5355.53, 0.0795820
5361.07, 0.0790330
5366.62, 0.0784330
5372.18, 0.0777840
5377.75, 0.0771340
5383.34, 0.0765850
5388.93, 0.0761350
5394.54, 0.0756860
5400.16, 0.0752860
5405.79, 0.0749860
5411.44, 0.0747860
5417.09, 0.0742870
5422.76, 0.0739370
5428.43, 0.0740870
5434.12, 0.0740870
5439.83, 0.0738370
5445.54, 0.0734380
5451.26, 0.0730880
5457.0, 0.0725880
5462.75, 0.0719390
5468.52, 0.0714890
5474.29, 0.0707900
5480.08, 0.0699400
5485.88, 0.0692410
5491.69, 0.0682420
5497.51, 0.0670430
5503.35, 0.0657940
5509.2, 0.0644950
5515.06, 0.0630960
5520.93, 0.0617470
5526.82, 0.0606980
5532.71, 0.0598490
5538.63, 0.0590500
5544.55, 0.0583500
5550.49, 0.0576510
5556.44, 0.0570510
5562.4, 0.0565520
5568.37, 0.0561520
5574.36, 0.0557030
5580.36, 0.0557030
5586.37, 0.0561020
5592.4, 0.0563020
5598.44, 0.0562520
5604.49, 0.0563020
5610.56, 0.0562520
5616.63, 0.0562020
5622.73, 0.0561520
5628.83, 0.0559520
5634.95, 0.0555530
5641.08, 0.0551530
5647.23, 0.0551530
5653.39, 0.0550030
5659.56, 0.0548530
5665.74, 0.0546040
5671.94, 0.0539040
5678.15, 0.0534050
5684.38, 0.0530550
5690.62, 0.0524050
5696.87, 0.0518060
5703.14, 0.0511070
5709.42, 0.0504070
5715.72, 0.0500070
5722.03, 0.0498080
5728.35, 0.0496080
5734.69, 0.0493580
5741.03, 0.0491580
5747.4, 0.0490580
5753.78, 0.0493080
5760.17, 0.0492080
5766.58, 0.0493580
5773.0, 0.0502070
5779.44, 0.0509070
5785.88, 0.0517060
5792.35, 0.0526050
5798.83, 0.0533550
5805.32, 0.0543040
5811.83, 0.0550530
5818.35, 0.0555030
5824.89, 0.0564520
5831.45, 0.0578510
5838.01, 0.0590000
5844.59, 0.0599990
5851.19, 0.0607980
5857.8, 0.0614480
5864.43, 0.0621470
5871.07, 0.0626970
5877.73, 0.0623970
5884.4, 0.0630460
5891.09, 0.0634960
5897.79, 0.0636960
5904.5, 0.0644950
5911.23, 0.0647450
5917.98, 0.0648450
5924.75, 0.0648950
5931.53, 0.0643450
5938.32, 0.0642950
5945.13, 0.0649450
5951.96, 0.0649450
5958.8, 0.0647450
5965.65, 0.0641450
5972.53, 0.0639960
5979.42, 0.0638460
5986.32, 0.0634460
5993.24, 0.0634960
6000.18, 0.0639460
6007.13, 0.0640460
6014.1, 0.0642450
6021.08, 0.0648450
6028.09, 0.0654440
6035.1, 0.0655940
6042.14, 0.0647950
6049.19, 0.0642450
6056.25, 0.0650450
6063.34, 0.0647450
6070.44, 0.0634460
6077.55, 0.0625470
6084.69, 0.0617970
6091.84, 0.0607480
6099.0, 0.0596490
6106.19, 0.0584500
6113.39, 0.0574510
6120.61, 0.0575510
6127.84, 0.0580510
6135.09, 0.0584000
6142.36, 0.0591500
6149.65, 0.0604490
6156.95, 0.0621470
6164.27, 0.0644450
6171.61, 0.0668430
6178.97, 0.0687420
6186.34, 0.0708900
6193.73, 0.0736870
6201.14, 0.0759350
6208.57, 0.0778340
6216.01, 0.0794820
6223.47, 0.0810310
6230.95, 0.0824800
6238.45, 0.0837790
6245.97, 0.0848780
6253.5, 0.0857770
6261.06, 0.0864760
6268.63, 0.0872260
6276.21, 0.0878750
6283.82, 0.0884750
6291.45, 0.0890240
6299.1, 0.0896240
6306.76, 0.0903730
6314.44, 0.0911220
6322.14, 0.0918220
6329.86, 0.0925710
6337.6, 0.0926710
6345.35, 0.0933210
6353.13, 0.0951190
6360.92, 0.0964180
6368.74, 0.0973670
6376.57, 0.0989160
6384.43, 0.100315
6392.3, 0.101464
6400.19, 0.101963
6408.1, 0.101164
6416.03, 0.101763
6423.98, 0.103762
6431.95, 0.104411
6439.94, 0.104761
6447.95, 0.104661
6455.98, 0.104311
6464.03, 0.103762
6472.1, 0.102813
6480.19, 0.101713
6488.31, 0.100265
6496.44, 0.0998150
6504.59, 0.100465
6512.76, 0.0998650
6520.95, 0.0988660
6529.16, 0.0985160
6537.4, 0.0977170
6545.65, 0.0965680
6553.92, 0.0954690
6562.22, 0.0944200
6570.54, 0.0928710
6578.88, 0.0923210
6587.23, 0.0917720
6595.61, 0.0910730
6604.02, 0.0904730
6612.44, 0.0895740
6620.89, 0.0885250
6629.35, 0.0868760
6637.84, 0.0855770
6646.35, 0.0856270
6654.88, 0.0853770
6663.44, 0.0843280
6672.01, 0.0830290
6680.61, 0.0818800
6689.23, 0.0813310
6697.88, 0.0804820
6706.54, 0.0791330
6715.23, 0.0781340
6723.94, 0.0774340
6732.67, 0.0767850
6741.42, 0.0759850
6750.2, 0.0750860
6759.0, 0.0742370
6767.82, 0.0733880
6776.67, 0.0724880
6785.54, 0.0714890
6794.44, 0.0709900
6803.35, 0.0708900
6812.29, 0.0704900
6821.26, 0.0698410
6830.24, 0.0694410
6839.25, 0.0691910
6848.29, 0.0685420
6857.35, 0.0675430
6866.43, 0.0670430
6875.54, 0.0673430
6884.67, 0.0672430
6893.82, 0.0669930
6903.0, 0.0665930
6912.2, 0.0663940
6921.43, 0.0661940
6930.69, 0.0660440
6939.96, 0.0658440
6949.27, 0.0653940
6958.59, 0.0648450
6967.95, 0.0650450
6977.33, 0.0650950
6986.73, 0.0649450
6996.16, 0.0648450
7005.61, 0.0649950
7015.09, 0.0650950
7024.6, 0.0651450
7034.13, 0.0650450
7043.69, 0.0648450
7053.27, 0.0652440
7062.88, 0.0657940
7072.52, 0.0661940
7082.18, 0.0665930
7091.87, 0.0670430
7101.58, 0.0674430
7111.32, 0.0677420
7121.09, 0.0681920
7130.88, 0.0686420
7140.71, 0.0685920
7150.56, 0.0683920
7160.43, 0.0679420
7170.33, 0.0669430
7180.27, 0.0659440
7190.23, 0.0648450
7200.21, 0.0638460
7210.23, 0.0630960
7220.27, 0.0628960
7230.34, 0.0625970
7240.44, 0.0623470
7250.56, 0.0621970
7260.72, 0.0621970
7270.9, 0.0620970
7281.12, 0.0621470
7291.36, 0.0621970
7301.63, 0.0621970
7311.93, 0.0621970
7322.25, 0.0621470
7332.61, 0.0618970
7343.0, 0.0617970
7353.41, 0.0617970
7363.86, 0.0617970
7374.33, 0.0616480
7384.83, 0.0615980
7395.37, 0.0615480
7405.93, 0.0612980
7416.53, 0.0609980
7427.15, 0.0607980
7437.81, 0.0606480
7448.5, 0.0603990
7459.22, 0.0598990
7469.96, 0.0596490
7480.74, 0.0595990
7491.55, 0.0595490
7502.39, 0.0594990
7513.27, 0.0593990
7524.17, 0.0592500
7535.11, 0.0591500
7546.08, 0.0589000
7557.08, 0.0586500
7568.11, 0.0582500
7579.17, 0.0578010
7590.27, 0.0574010
7601.4, 0.0568520
7612.56, 0.0562520
7623.76, 0.0557030
7634.98, 0.0552030
7646.24, 0.0546530
7657.54, 0.0540540
7668.87, 0.0535540
7680.23, 0.0530050
7691.62, 0.0525050
7703.05, 0.0519560
7714.51, 0.0514060
7726.01, 0.0509070
7737.54, 0.0504070
7749.11, 0.0499080
7760.71, 0.0494080
7772.35, 0.0488580
7784.02, 0.0483590
7795.72, 0.0478590
7807.46, 0.0473600
7819.23, 0.0469600
7831.04, 0.0467600
7842.89, 0.0465100
7854.77, 0.0463110
7866.69, 0.0461110
7878.65, 0.0460610
7890.64, 0.0460110
7902.67, 0.0460610
7914.74, 0.0461110
7926.84, 0.0461110
7938.98, 0.0461610
7951.16, 0.0462610
7963.37, 0.0462610
7975.62, 0.0462110
7987.91, 0.0461610
8000.24, 0.0462610
8012.6, 0.0463110
8025.01, 0.0462610
8037.45, 0.0461610
8049.93, 0.0460110
8062.45, 0.0458610
8075.01, 0.0456110
8087.61, 0.0453610
8100.24, 0.0452120
8112.91, 0.0450620
8125.63, 0.0449120
8138.39, 0.0449120
8151.18, 0.0449620
8164.02, 0.0449120
8176.9, 0.0448620
8189.81, 0.0449120
8202.77, 0.0449120
8215.77, 0.0449620
8228.82, 0.0450120
8241.9, 0.0448620
8255.02, 0.0446120
8268.19, 0.0442620
8281.39, 0.0439630
8294.65, 0.0436130
8307.94, 0.0432130
8321.28, 0.0426640
8334.66, 0.0421140
8348.08, 0.0416150
8361.54, 0.0409650
8375.05, 0.0403160
8388.6, 0.0399160
8402.2, 0.0395660
8415.84, 0.0391670
8429.52, 0.0387170
8443.25, 0.0384670
8457.02, 0.0382170
8470.84, 0.0379680
8484.7, 0.0375680
8498.61, 0.0372180
8512.57, 0.0368190
8526.57, 0.0364690
8540.62, 0.0361190
8554.71, 0.0358200
8568.85, 0.0356200
8583.04, 0.0354200
8597.27, 0.0351200
8611.55, 0.0348700
8625.88, 0.0346210
8640.26, 0.0343710
8654.68, 0.0341710
8669.16, 0.0342710
8683.68, 0.0343710
8698.25, 0.0344710
8712.87, 0.0345710
8727.53, 0.0347200
8742.25, 0.0349700
8757.02, 0.0352700
8771.83, 0.0356200
8786.7, 0.0360190
8801.62, 0.0363190
8816.59, 0.0366190
8831.61, 0.0369190
8846.68, 0.0372180
8861.8, 0.0375680
8876.97, 0.0379680
8892.2, 0.0382670
8907.48, 0.0385670
8922.81, 0.0388670
8938.2, 0.0392170
8953.63, 0.0395160
8969.13, 0.0398660
8984.67, 0.0402660
9000.27, 0.0407150
9015.92, 0.0409150
9031.63, 0.0410150
9047.39, 0.0412150
9063.21, 0.0412150
9079.08, 0.0410150
9095.01, 0.0406650
9111.0, 0.0402660
9127.04, 0.0399160
9143.13, 0.0394160
9159.28, 0.0391170
9175.49, 0.0388170
9191.76, 0.0385170
9208.09, 0.0383170
9224.47, 0.0382670
9240.92, 0.0381680
9257.42, 0.0381180
9273.98, 0.0379180
9290.6, 0.0377680
9307.28, 0.0376680
9324.02, 0.0376180
9340.82, 0.0376680
9357.68, 0.0377180
9374.6, 0.0377680
9391.58, 0.0380180
9408.62, 0.0383670
9425.73, 0.0389670
9442.9, 0.0395160
9460.13, 0.0401660
9477.42, 0.0409650
9494.78, 0.0419640
9512.2, 0.0430630
9529.69, 0.0442120
9547.24, 0.0455610
9564.86, 0.0473100
9582.54, 0.0491580
9600.28, 0.0511070
9618.1, 0.0533550
9635.97, 0.0560020
9653.92, 0.0591500
9671.93, 0.0630460
9690.01, 0.0674430
9708.16, 0.0720390
9726.37, 0.0761850
9744.65, 0.0796320
9763.0, 0.0822800
9781.43, 0.0841280
9799.92, 0.0852770
9818.48, 0.0860770
9837.1, 0.0867760
9855.8, 0.0873260
9874.58, 0.0875750
9893.42, 0.0875260
9912.34, 0.0873260
9931.33, 0.0869760
9950.39, 0.0865260
9969.52, 0.0860770
9988.74, 0.0853770
10008.0, 0.0846780
10027.4, 0.0840780
10046.8, 0.0832790
10066.3, 0.0826300
10085.9, 0.0820300
10105.6, 0.0812810
10125.3, 0.0805810
10145.1, 0.0799820
10165.0, 0.0792830
10185.0, 0.0785330
10205.0, 0.0779840
10225.2, 0.0776840
10245.4, 0.0775340
10265.7, 0.0773340
10286.0, 0.0772340
10306.5, 0.0775340
10327.0, 0.0781830
10347.6, 0.0792830
10368.3, 0.0805810
10389.1, 0.0821800
10409.9, 0.0837790
10430.9, 0.0853770
10451.9, 0.0872260
10473.0, 0.0895740
10494.2, 0.0924210
10515.5, 0.0953690
10536.9, 0.0976170
10558.4, 0.0987660
10579.9, 0.0985660
10601.5, 0.0973170
10623.3, 0.0951690
10645.1, 0.0923710
10667.0, 0.0895240
10689.0, 0.0868260
10711.1, 0.0841780
10733.2, 0.0816800
10755.5, 0.0790830
10777.9, 0.0762850
10800.3, 0.0734380
10822.9, 0.0710900
10845.5, 0.0712390
10868.2, 0.0751860
10891.1, 0.0818800
10914.0, 0.0890240
10937.0, 0.0952690
10960.2, 0.100015
10983.4, 0.103562
11006.7, 0.106310
11030.1, 0.108308
11053.6, 0.109557
11077.3, 0.110506
11101.0, 0.111205
11124.8, 0.111505
11148.7, 0.111705
11172.7, 0.111755
11196.9, 0.111655
11221.1, 0.111455
11245.4, 0.111105
11269.9, 0.110456
11294.4, 0.109707
11319.1, 0.109207
11343.9, 0.108608
11368.8, 0.107359
11393.7, 0.105460
11418.8, 0.103262
11444.0, 0.101164
11469.4, 0.0992660
11494.8, 0.0979170
11520.3, 0.0967180
11546.0, 0.0958180
11571.8, 0.0952690
11597.7, 0.0942700
11623.7, 0.0925210
11649.8, 0.0902230
11676.0, 0.0872760
11702.4, 0.0838790
11728.9, 0.0802820
11755.5, 0.0766850
11782.2, 0.0733880
11809.0, 0.0705400
11836.0, 0.0678420
11863.0, 0.0652940
11890.3, 0.0630960
11917.6, 0.0612480
11945.0, 0.0593990
11972.6, 0.0576510
12000.4, 0.0556030
12028.2, 0.0533050
12056.2, 0.0513560
12084.3, 0.0510070
12112.5, 0.0538040
12140.9, 0.0580010
12169.4, 0.0603490
12198.0, 0.0602490
12226.8, 0.0590500
12255.7, 0.0578510
12284.7, 0.0567520
12313.9, 0.0556530
12343.2, 0.0547030
12372.7, 0.0539540
12402.3, 0.0532550
12432.0, 0.0524050
12461.9, 0.0517060
12491.9, 0.0511560
12522.1, 0.0505070
12552.4, 0.0498580
12582.9, 0.0493580
12613.5, 0.0488080
12644.3, 0.0484090
12675.2, 0.0480090
12706.3, 0.0475100
12737.5, 0.0471100
12768.9, 0.0468600
12800.4, 0.0463610
12832.1, 0.0460110
12863.9, 0.0456610
12895.9, 0.0452610
12928.1, 0.0448120
12960.4, 0.0443120
12992.9, 0.0441620
13025.5, 0.0440130
13058.3, 0.0435630
13091.3, 0.0431130
13124.4, 0.0427640
13157.8, 0.0424140
13191.2, 0.0420140
13224.9, 0.0416150
13258.7, 0.0411150
13292.7, 0.0408650
13326.9, 0.0406650
13361.2, 0.0400660
13395.7, 0.0397160
13430.4, 0.0395160
13465.3, 0.0390170
13500.4, 0.0384670
13535.7, 0.0378680
13571.1, 0.0374180
13606.7, 0.0371180
13642.5, 0.0369190
13678.5, 0.0369190
13714.7, 0.0372180
13751.1, 0.0374680
13787.6, 0.0375680
13824.4, 0.0373680
13861.4, 0.0372680
13898.5, 0.0371180
13935.9, 0.0370190
13973.5, 0.0368690
14011.2, 0.0366190
14049.2, 0.0362690
14087.4, 0.0360690
14125.8, 0.0360690
14164.3, 0.0360190
14203.2, 0.0357200
14242.2, 0.0355700
14281.4, 0.0353200
14320.9, 0.0350700
14360.5, 0.0347700
14400.4, 0.0343210
14440.5, 0.0339210
14480.9, 0.0338210
14521.4, 0.0337210
14562.2, 0.0333220
14603.3, 0.0329720
14644.5, 0.0328220
14686.0, 0.0326220
14727.7, 0.0326220
14769.7, 0.0325720
14811.9, 0.0322730
14854.3, 0.0318730
14897.0, 0.0316230
14939.9, 0.0314230
14983.1, 0.0311730
15026.5, 0.0310240
15070.2, 0.0309240
15114.2, 0.0308240
15158.3, 0.0306240
15202.8, 0.0305240
15247.5, 0.0305240
15292.5, 0.0300740
15337.7, 0.0295750
15383.2, 0.0292250
15429.0, 0.0289750
15475.1, 0.0288250
15521.4, 0.0285760
15568.0, 0.0282260
15614.9, 0.0280760
15662.1, 0.0280760
15709.6, 0.0279260
15757.3, 0.0277260
15805.4, 0.0275770
15853.7, 0.0275270
15902.3, 0.0277260
15951.2, 0.0275770
16000.5, 0.0269270
16050.0, 0.0267270
16099.8, 0.0267770
16150.0, 0.0268770
16200.5, 0.0269770
16251.3, 0.0270770
16302.4, 0.0277760
16353.8, 0.0285260
16405.5, 0.0295250
16457.6, 0.0313730
16510.0, 0.0340210
16562.8, 0.0369190
16615.9, 0.0400160
16669.3, 0.0434130
16723.1, 0.0468100
16777.2, 0.0497080
16831.7, 0.0521060
16886.5, 0.0541040
16941.7, 0.0557030
16997.2, 0.0571510
17053.1, 0.0584500
17109.4, 0.0592000
17166.1, 0.0595990
17223.1, 0.0596490
17280.5, 0.0593500
17338.3, 0.0589000
17396.5, 0.0584500
17455.1, 0.0580510
17514.0, 0.0570020
17573.4, 0.0559020
17633.2, 0.0548530
17693.4, 0.0538040
17754.0, 0.0522560
17815.0, 0.0507070
17876.4, 0.0489580
17938.3, 0.0470100
18000.5, 0.0446120
18063.3, 0.0426640
18126.4, 0.0412150
18190.0, 0.0399660
18254.1, 0.0399160
18318.6, 0.0410650
18383.5, 0.0426140
18449.0, 0.0445120
18514.9, 0.0471100
18581.2, 0.0501570
18648.0, 0.0538540
18715.4, 0.0575010
18783.2, 0.0621970
18851.5, 0.0676420
18920.3, 0.0721890
18989.6, 0.0765850
19059.4, 0.0811310
19129.7, 0.0846780
19200.6, 0.0873260
19272.0, 0.0890240
19343.9, 0.0904230
19416.3, 0.0919220
19489.3, 0.0929210
19562.8, 0.0941200
19637.0, 0.0951190
19711.6, 0.0954690
19786.8, 0.0947190
19862.6, 0.0939200
19939.0, 0.0938780
20016.0, 0.0939710
20093.6, 0.0932240
20171.8, 0.0920720
20250.6, 0.0905370
20330.0, 0.0894680
20410.0, 0.0872790
20490.7, 0.0847680
20572.0, 0.0842600
20654.0, 0.0833150
20736.6, 0.0811050
20819.9, 0.0789780
20903.8, 0.0776920
20988.5, 0.0769140
21073.8, 0.0774950
21159.8, 0.0787090
21246.5, 0.0772460
21334.0, 0.0735520
21422.1, 0.0707510
21511.0, 0.0700240
21600.7, 0.0675960
21691.0, 0.0646390
21782.1, 0.0617760
21874.0, 0.0592030
21966.7, 0.0598770
22060.2, 0.0594930
22154.5, 0.0589950
22249.6, 0.0590570
22345.5, 0.0592860
22442.2, 0.0581030
22539.8, 0.0557480
22638.2, 0.0549800
22737.5, 0.0541390
22837.7, 0.0534650
22938.7, 0.0539940
23040.7, 0.0518880
23143.5, 0.0491280
23247.3, 0.0471980
23352.1, 0.0455480
23457.7, 0.0434840
23564.4, 0.0413050
23672.0, 0.0392920
23780.5, 0.0381400
23890.1, 0.0368230
24000.7, 0.0359620
24112.3, 0.0355780
24225.0, 0.0354840
24338.7, 0.0353490
24453.5, 0.0349760
24569.4, 0.0346130
24686.4, 0.0343740
24804.5, 0.0341980
24923.8, 0.0342500
25044.2, 0.0332740
25165.8, 0.0334090
25288.6, 0.0335130
25412.5, 0.0340730
25537.7, 0.0346020
25664.1, 0.0350480
25791.8, 0.0362730
25920.8, 0.0386180
26051.1, 0.0422280
26182.6, 0.0449780
26315.5, 0.0476440
26449.8, 0.0504460
26585.4, 0.0532570
26722.5, 0.0564640
26860.9, 0.0600950
27000.8, 0.0634980
27142.1, 0.0673470
27285.0, 0.0717260
27429.4, 0.0746730
27575.3, 0.0772460
27722.7, 0.0797670
27871.8, 0.0818420
28022.4, 0.0833360
28174.7, 0.0846230
28328.7, 0.0853390
28484.4, 0.0850900
28641.7, 0.0857950
28800.9, 0.0854630
28961.8, 0.0830660
29124.5, 0.0812920
29289.0, 0.0796010
29455.4, 0.0775260
29623.8, 0.0770070
29794.0, 0.0774010
29966.3, 0.0792790
30140.5, 0.0822880
30316.7, 0.0843010
30495.1, 0.0855460
30675.5, 0.0880150
30858.1, 0.0906400
31042.8, 0.0942300
31229.8, 0.0987750
31419.1, 0.103340
31610.7, 0.108102
31804.6, 0.113000
32000.9, 0.117389
32199.7, 0.119993
32400.9, 0.122462
32604.8, 0.125098
32811.1, 0.126353
33020.1, 0.126851
33231.8, 0.130327
33446.2, 0.132931
33663.4, 0.135359
33883.4, 0.136168
34106.3, 0.135836
34332.1, 0.133937
34561.0, 0.131883
34792.9, 0.131883
35028.0, 0.131219
35266.3, 0.128335
35507.8, 0.124205
35752.7, 0.120895
36001.0, 0.118333
36252.8, 0.117098
36508.1, 0.114732
36767.0, 0.110209
37029.7, 0.107293
37296.1, 0.105208
37566.3, 0.102261
37840.5, 0.0993870
38118.8, 0.0966170
38401.2, 0.0949980
38687.8, 0.0930370
38978.6, 0.0908270
39273.9, 0.0885030
39573.7, 0.0884410
39878.1, 0.0895610
40187.3, 0.0883270
40501.2, 0.0882020
40820.0, 0.0904230
41144.0, 0.0934520
41473.2, 0.0940640
41807.6, 0.0932550
42147.5, 0.0913560
42493.0, 0.0890010
42844.2, 0.0858260
43201.2, 0.0830250
43564.3, 0.0806180
43933.5, 0.0766650
44309.0, 0.0750050
44691.0, 0.0739770
45079.6, 0.0716330
45475.0, 0.0702320
45877.5, 0.0692570
46287.1, 0.0686030
46704.2, 0.0668810
47128.7, 0.0681360
47561.1, 0.0701900
48001.5, 0.0716640
48450.1, 0.0741230
48907.2, 0.0754200
49373.0, 0.0788230
49847.7, 0.0853800
50331.5, 0.0883890
50825.0, 0.0890320
51328.2, 0.0898210
51841.5, 0.0890320
52365.1, 0.0866560
52899.4, 0.0853700
53444.8, 0.0878080
54001.5, 0.0910550
54570.1, 0.0944900
55150.6, 0.0978720
55743.6, 0.0985980
56349.5, 0.0968550
56968.7, 0.0945210
57601.7, 0.0923940
58248.9, 0.0899350
58910.9, 0.0884820
59588.1, 0.0902770
60281.0, 0.0920000
60990.2, 0.0922070
61716.3, 0.0912730
62459.8, 0.0905570
63221.6, 0.0908480
64002.1, 0.0912320
64802.1, 0.0885550
65622.1, 0.0840100
66463.4, 0.0881810
67326.6, 0.0907440
68212.4, 0.0917090
69121.9, 0.0957660
70056.0, 0.0987230
71015.7, 0.0982660
72002.0, 0.0952990
73016.3, 0.0957140
74059.4, 0.0930480
75132.7, 0.0907130
76237.6, 0.0905570
77375.5, 0.0909720
78547.9, 0.0881920
79756.3, 0.0848720
81002.5, 0.0831180
82288.5, 0.0838860
83615.7, 0.0833570
84986.5, 0.0840930
86402.9, 0.0852240
87867.4, 0.0926220
89382.4, 0.0948010
90950.5, 0.0902880
92574.6, 0.0899760
94257.2, 0.0869680
96002.7, 0.0887520
97814.1, 0.0911070
99695.1, 0.0878810
101650.0, 0.0853280
103683.0, 0.0862520
105799.0, 0.0889600
108003.0, 0.0959010
110301.0, 0.101161
112699.0, 0.101638
115204.0, 0.102375
117822.0, 0.104813
120562.0, 0.106401
123433.0, 0.103838
126443.0, 0.108632
129604.0, 0.113000
132926.0, 0.108289
136424.0, 0.104108
140111.0, 0.114587
144003.0, 0.123323
148118.0, 0.125876
152474.0, 0.136054
157095.0, 0.132879
162004.0, 0.125170
167231.0, 0.134384
172805.0, 0.144894
178764.0, 0.161132
185148.0, 0.161495
192005.0, 0.179839
199390.0, 0.201140
207366.0, 0.224204
216006.0, 0.231187
