Database of Origin, USGS Spectral Database
Sample Description, See USGS database for additional info
Date Added,2016-08-10 05:31:05.083291

Data ID,USGS_pyr19          
Sample ID, pyrrhotite_hs269.19010
Mineral Name, pyrrhotite
Material Class,Sulfide

Wavelength
242.1, 0.0141960
248.1, 0.0170930
253.6, 0.0187390
258.6, 0.0185090
263.6, 0.0197580
268.6, 0.0210010
273.1, 0.0212520
277.1, 0.0219760
281.1, 0.0231080
285.1, 0.0237160
289.1, 0.0244810
293.1, 0.0256050
297.1, 0.0250390
301.1, 0.0257850
305.1, 0.0264020
309.1, 0.0273390
313.1, 0.0274240
317.1, 0.0278520
321.1, 0.0283740
325.1, 0.0278250
329.1, 0.0277970
333.1, 0.0282600
337.1, 0.0283020
341.1, 0.0266670
345.1, 0.0276530
349.1, 0.0280820
353.1, 0.0282510
357.1, 0.0282350
360.6, 0.0284670
363.6, 0.0288240
366.6, 0.0291160
369.6, 0.0285880
372.6, 0.0291120
375.6, 0.0289410
378.6, 0.0292480
381.1, 0.0292300
383.1, 0.0292160
385.1, 0.0290120
387.1, 0.0301770
389.1, 0.0288240
391.1, 0.0290480
393.1, 0.0295550
395.1, 0.0290080
397.1, 0.0296450
399.1, 0.0295770
401.1, 0.0294520
403.1, 0.0293760
405.1, 0.0300180
407.1, 0.0297910
409.1, 0.0298810
411.1, 0.0300430
412.8, 0.0297910
415.8, 0.0300350
418.8, 0.0302590
421.8, 0.0307090
424.8, 0.0304350
427.8, 0.0311990
430.8, 0.0314200
433.8, 0.0318630
436.8, 0.0321550
439.8, 0.0325830
442.8, 0.0329120
445.8, 0.0334180
448.8, 0.0339650
451.3, 0.0342760
453.3, 0.0345070
455.3, 0.0343210
457.3, 0.0341990
459.3, 0.0335030
461.3, 0.0339240
463.3, 0.0348160
465.3, 0.0341060
467.3, 0.0347310
469.3, 0.0345010
471.3, 0.0345750
473.3, 0.0350210
475.3, 0.0344310
477.3, 0.0344590
479.3, 0.0348290
481.3, 0.0351950
483.3, 0.0351610
485.3, 0.0352730
487.3, 0.0354490
489.3, 0.0360370
491.3, 0.0363350
493.3, 0.0368670
495.3, 0.0371880
497.3, 0.0374640
499.3, 0.0383970
501.3, 0.0386160
503.3, 0.0393820
505.3, 0.0397640
507.3, 0.0405420
509.3, 0.0405380
511.3, 0.0414040
513.3, 0.0424350
515.3, 0.0434340
517.3, 0.0438580
519.3, 0.0443570
521.3, 0.0454220
523.3, 0.0461040
525.3, 0.0469460
527.3, 0.0484460
529.3, 0.0487960
531.3, 0.0502000
533.3, 0.0512500
535.3, 0.0522490
537.3, 0.0527280
539.3, 0.0538550
541.3, 0.0551820
543.3, 0.0561210
545.3, 0.0566190
547.3, 0.0579080
549.3, 0.0584140
551.3, 0.0599320
553.3, 0.0601040
555.3, 0.0611950
557.3, 0.0621110
559.3, 0.0628060
561.3, 0.0635490
563.3, 0.0642330
565.3, 0.0647390
567.3, 0.0652570
569.3, 0.0662690
571.3, 0.0666370
573.3, 0.0672210
575.3, 0.0673710
577.3, 0.0676970
579.3, 0.0687620
581.3, 0.0683600
583.3, 0.0684470
585.3, 0.0695080
587.3, 0.0700750
589.3, 0.0696080
591.3, 0.0705610
593.3, 0.0701070
595.3, 0.0703470
597.3, 0.0707010
599.3, 0.0709120
601.1, 0.0714140
602.7, 0.0707090
604.3, 0.0711810
605.9, 0.0710990
607.5, 0.0711980
609.1, 0.0717240
610.7, 0.0711860
612.3, 0.0712780
613.9, 0.0718720
615.5, 0.0712980
617.1, 0.0715650
618.7, 0.0722070
620.3, 0.0713750
621.9, 0.0716830
623.5, 0.0720120
625.1, 0.0717880
626.7, 0.0717180
628.3, 0.0722710
629.9, 0.0716760
631.7, 0.0722140
633.7, 0.0721520
635.7, 0.0720110
637.7, 0.0722910
639.7, 0.0721930
641.7, 0.0724320
643.7, 0.0724770
645.7, 0.0723190
647.7, 0.0723740
649.7, 0.0727840
651.7, 0.0729680
653.7, 0.0728050
655.7, 0.0728140
657.7, 0.0731290
659.7, 0.0732160
661.7, 0.0732460
663.7, 0.0734500
665.7, 0.0732360
667.7, 0.0735680
670.2, 0.0732750
673.2, 0.0738360
676.2, 0.0735080
679.2, 0.0740250
682.2, 0.0747610
685.2, 0.0740730
688.2, 0.0748940
691.2, 0.0744790
694.2, 0.0752660
697.2, 0.0748850
700.2, 0.0749810
702.0, 0.0754290
704.0, 0.0757740
706.0, 0.0761070
708.0, 0.0756240
710.0, 0.0757530
712.0, 0.0754060
714.0, 0.0761240
716.0, 0.0763070
718.0, 0.0764880
720.0, 0.0764630
722.0, 0.0767090
724.0, 0.0767400
726.0, 0.0771060
728.0, 0.0773980
730.0, 0.0772270
732.0, 0.0770490
734.0, 0.0772730
736.0, 0.0772100
738.0, 0.0775220
740.0, 0.0777050
742.0, 0.0777030
744.0, 0.0779330
746.0, 0.0781330
748.0, 0.0782020
750.5, 0.0777660
753.5, 0.0779220
756.5, 0.0782730
759.5, 0.0783780
762.5, 0.0783660
765.5, 0.0781900
768.5, 0.0784380
771.5, 0.0783830
774.5, 0.0789870
777.5, 0.0786040
781.0, 0.0788250
785.0, 0.0785250
789.0, 0.0784920
793.0, 0.0785660
797.0, 0.0786780
801.5, 0.0784190
806.5, 0.0785600
811.5, 0.0788100
816.5, 0.0780440
822.0, 0.0780250
828.0, 0.0781190
835.0, 0.0780300
843.0, 0.0770620
851.0, 0.0799810
859.0, 0.0788710
871.0, 0.0801710
883.0, 0.0782800
894.0, 0.0796910
904.0, 0.0788550
914.0, 0.0775410
924.0, 0.0777570
933.0, 0.0779800
941.0, 0.0780770
949.0, 0.0773960
957.0, 0.0770470
964.0, 0.0772380
970.0, 0.0762070
976.0, 0.0789660
982.0, 0.0780020
988.0, 0.0764970
994.0, 0.0790020
1000.0, 0.0777890
1006.0, 0.0790230
1012.0, 0.0768280
1018.0, 0.0776640
1023.5, 0.0785290
1028.5, 0.0784050
1033.5, 0.0798480
1038.5, 0.0787490
1043.5, 0.0796150
1048.5, 0.0794070
1053.5, 0.0791210
1058.5, 0.0806410
1063.5, 0.0802670
1068.5, 0.0810550
1073.5, 0.0800900
1078.5, 0.0800590
1083.5, 0.0806230
1088.5, 0.0824610
1093.5, 0.0811160
1098.5, 0.0812910
1103.5, 0.0817130
1108.5, 0.0826630
1113.5, 0.0831150
1118.5, 0.0832340
1123.5, 0.0834160
1128.5, 0.0848440
1133.5, 0.0834950
1138.5, 0.0855450
1143.5, 0.0850670
1148.5, 0.0850940
1153.5, 0.0858810
1158.5, 0.0854260
1163.5, 0.0862650
1168.5, 0.0860070
1173.5, 0.0860870
1178.5, 0.0885340
1183.5, 0.0875980
1188.5, 0.0879970
1193.5, 0.0884700
1198.5, 0.0883820
1203.5, 0.0882480
1208.5, 0.0889790
1213.5, 0.0891140
1218.5, 0.0892850
1223.5, 0.0895230
1228.5, 0.0894890
1233.5, 0.0904780
1238.5, 0.0897980
1243.5, 0.0913070
1248.5, 0.0900760
1253.5, 0.0910510
1258.5, 0.0910000
1263.5, 0.0909160
1268.5, 0.0919720
1273.5, 0.0912810
1278.5, 0.0913120
1283.5, 0.0910630
1288.5, 0.0923630
1293.5, 0.0925140
1298.5, 0.0926460
1303.5, 0.0927690
1308.5, 0.0929240
1313.5, 0.0926240
1318.5, 0.0927090
1323.5, 0.0925540
1328.5, 0.0928440
1333.5, 0.0938180
1338.5, 0.0937760
1343.5, 0.0921720
1348.5, 0.0935770
1353.5, 0.0922300
1358.5, 0.0939450
1363.5, 0.0949880
1368.5, 0.0936910
1373.5, 0.0939810
1378.5, 0.0947950
1383.5, 0.0946860
1388.5, 0.0953850
1393.5, 0.0932520
1398.5, 0.0947540
1403.5, 0.0941360
1408.5, 0.0947280
1413.5, 0.0955230
1418.5, 0.0956140
1423.5, 0.0948130
1428.5, 0.0947470
1433.5, 0.0962950
1438.5, 0.0955430
1443.5, 0.0954420
1448.5, 0.0955980
1453.5, 0.0963760
1458.5, 0.0961590
1463.5, 0.0961280
1468.5, 0.0962260
1473.5, 0.0953700
1478.5, 0.0972170
1483.5, 0.0954200
1488.5, 0.0970980
1493.5, 0.0963150
1498.5, 0.0969010
1503.5, 0.0974190
1508.5, 0.0991360
1513.5, 0.0963820
1518.5, 0.0964190
1523.5, 0.0972510
1528.5, 0.0976660
1534.0, 0.0970730
1540.0, 0.0983240
1546.0, 0.0980260
1552.0, 0.0966650
1558.0, 0.0998620
1564.0, 0.0989470
1570.5, 0.0989540
1577.5, 0.0984030
1584.5, 0.0995230
1591.5, 0.0986550
1598.5, 0.0993810
1605.5, 0.0989490
1612.5, 0.0991710
1619.5, 0.0982730
1626.5, 0.0996490
1633.5, 0.0984970
1640.5, 0.0990240
1647.5, 0.0984310
1654.5, 0.100211
1661.5, 0.0993690
1668.5, 0.0996410
1676.0, 0.0993950
1684.0, 0.0993090
1692.0, 0.100527
1700.0, 0.100660
1708.0, 0.100050
1716.0, 0.100321
1724.0, 0.100630
1732.0, 0.101804
1740.0, 0.0994920
1748.0, 0.100114
1756.0, 0.101065
1764.0, 0.100792
1772.0, 0.0991480
1780.0, 0.101252
1788.0, 0.101879
1796.0, 0.101733
1805.0, 0.100143
1815.0, 0.100473
1825.0, 0.0999860
1835.0, 0.100440
1845.0, 0.100836
1855.0, 0.101692
1865.0, 0.101906
1875.0, 0.101696
1885.0, 0.0999580
1895.0, 0.0994770
1905.0, 0.100574
1915.0, 0.0988760
1925.0, 0.100025
1935.0, 0.0990970
1945.0, 0.0992340
1955.0, 0.0980650
1965.0, 0.0998970
1975.0, 0.0999510
1985.0, 0.0996060
1995.0, 0.101159
2005.0, 0.0994610
2015.0, 0.101178
2025.0, 0.101254
2035.0, 0.101274
2045.0, 0.100774
2055.0, 0.100589
2065.0, 0.100838
2075.0, 0.101833
2085.0, 0.102641
2095.0, 0.101835
2105.0, 0.103007
2115.0, 0.102217
2125.0, 0.102905
2135.0, 0.102626
2145.0, 0.102677
2155.0, 0.103259
2165.0, 0.104127
2175.0, 0.103289
2185.0, 0.103019
2195.0, 0.104139
2205.0, 0.102498
2215.0, 0.102340
2225.0, 0.102077
2235.0, 0.101076
2245.0, 0.102146
2255.0, 0.102186
2265.0, 0.102698
2275.0, 0.103164
2285.0, 0.102065
2295.0, 0.101905
2305.0, 0.101605
2315.0, 0.101472
2325.0, 0.101684
2335.0, 0.102343
2345.0, 0.100824
2355.0, 0.100940
2365.0, 0.102076
2375.0, 0.102224
2386.0, 0.101538
2400.0, 0.101559
2418.0, 0.102223
2440.0, 0.101622
2466.0, 0.101811
2496.0, 0.102147
2528.0, 0.102232
2560.0, 0.101149
2592.0, 0.101740
2624.0, 0.0997590
2656.0, 0.100136
2688.0, 0.0931600
2720.0, 0.0892260
2752.0, 0.0783440
2784.0, 0.0791780
2816.0, 0.0603250
2848.0, 0.0489830
2880.0, 0.0525150
2912.0, 0.0432930
2944.0, 0.0376750
2976.0, 0.0444010
