Database of Origin, USGS Spectral Database
Sample Description, See USGS database for additional info
Date Added,2016-08-10 02:49:51.515588

Data ID,USGS_goe04          
Sample ID, goethite_hs36.8308
Mineral Name, goethite
Material Class,Hydroxide

Wavelength
1582.95, 0.0780670
1583.43, 0.0782000
1583.92, 0.0782670
1584.4, 0.0786000
1584.88, 0.0787340
1585.37, 0.0785340
1585.85, 0.0785340
1586.34, 0.0787340
1586.82, 0.0788670
1587.31, 0.0786000
1587.8, 0.0786670
1588.28, 0.0790670
1588.77, 0.0793340
1589.26, 0.0794010
1589.74, 0.0791340
1590.23, 0.0791340
1590.72, 0.0792010
1591.21, 0.0792010
1591.7, 0.0791340
1592.19, 0.0791340
1592.67, 0.0794010
1593.16, 0.0796680
1593.65, 0.0798010
1594.14, 0.0798680
1594.63, 0.0798010
1595.12, 0.0796680
1595.61, 0.0796680
1596.11, 0.0800020
1596.6, 0.0804020
1597.09, 0.0805350
1597.58, 0.0803350
1598.08, 0.0803350
1598.57, 0.0806020
1599.06, 0.0804690
1599.55, 0.0804020
1600.05, 0.0806020
1600.54, 0.0806690
1601.04, 0.0808690
1601.53, 0.0810020
1602.03, 0.0812030
1602.52, 0.0812030
1603.02, 0.0810020
1603.51, 0.0804690
1604.01, 0.0804020
1604.5, 0.0806020
1605.0, 0.0809360
1605.5, 0.0810690
1606.0, 0.0811360
1606.49, 0.0813360
1606.99, 0.0814690
1607.49, 0.0814690
1607.99, 0.0814690
1608.49, 0.0816700
1608.99, 0.0817360
1609.49, 0.0814030
1609.99, 0.0816030
1610.49, 0.0818030
1610.99, 0.0817360
1611.49, 0.0816700
1611.99, 0.0816030
1612.49, 0.0816030
1612.99, 0.0818030
1613.49, 0.0820700
1614.0, 0.0820030
1614.5, 0.0820700
1615.0, 0.0821370
1615.51, 0.0822030
1616.01, 0.0823370
1616.51, 0.0826700
1617.02, 0.0828710
1617.52, 0.0828040
1618.03, 0.0822700
1618.53, 0.0825370
1619.04, 0.0830040
1619.54, 0.0832040
1620.05, 0.0832040
1620.55, 0.0826700
1621.06, 0.0824040
1621.57, 0.0829370
1622.08, 0.0831380
1622.58, 0.0832040
1623.09, 0.0833380
1623.6, 0.0833380
1624.11, 0.0832040
1624.62, 0.0828040
1625.13, 0.0828040
1625.64, 0.0830040
1626.15, 0.0832710
1626.66, 0.0834710
1627.17, 0.0837380
1627.68, 0.0837380
1628.19, 0.0838050
1628.7, 0.0838050
1629.21, 0.0836710
1629.72, 0.0836710
1630.24, 0.0840720
1630.75, 0.0838050
1631.26, 0.0834710
1631.78, 0.0837380
1632.29, 0.0838050
1632.8, 0.0839380
1633.32, 0.0842050
1633.83, 0.0846050
1634.35, 0.0844720
1634.86, 0.0838710
1635.38, 0.0838050
1635.9, 0.0842720
1636.41, 0.0844720
1636.93, 0.0843390
1637.45, 0.0844720
1637.96, 0.0845390
1638.48, 0.0847390
1639.0, 0.0845390
1639.52, 0.0847390
1640.04, 0.0851390
1640.56, 0.0849390
1641.08, 0.0846720
1641.59, 0.0846720
1642.11, 0.0848720
1642.63, 0.0851390
1643.16, 0.0853390
1643.68, 0.0851390
1644.2, 0.0849390
1644.72, 0.0850730
1645.24, 0.0852730
1645.76, 0.0851390
1646.29, 0.0852060
1646.81, 0.0854730
1647.33, 0.0854730
1647.86, 0.0854060
1648.38, 0.0858730
1648.9, 0.0866070
1649.43, 0.0863400
1649.95, 0.0858060
1650.48, 0.0857400
1651.0, 0.0860730
1651.53, 0.0862740
1652.06, 0.0862740
1652.58, 0.0860730
1653.11, 0.0858060
1653.64, 0.0859400
1654.17, 0.0858730
1654.69, 0.0858060
1655.22, 0.0860070
1655.75, 0.0863400
1656.28, 0.0866070
1656.81, 0.0865400
1657.34, 0.0862740
1657.87, 0.0862740
1658.4, 0.0864740
1658.93, 0.0865400
1659.46, 0.0865400
1659.99, 0.0864740
1660.52, 0.0866070
1661.05, 0.0867410
1661.59, 0.0868740
1662.12, 0.0868740
1662.65, 0.0869410
1663.19, 0.0869410
1663.72, 0.0867410
1664.26, 0.0868070
1664.79, 0.0868740
1665.32, 0.0866070
1665.86, 0.0865400
1666.39, 0.0868070
1666.93, 0.0871410
1667.47, 0.0871410
1668.0, 0.0870740
1668.54, 0.0874080
1669.08, 0.0874750
1669.61, 0.0875410
1670.15, 0.0877410
1670.69, 0.0877410
1671.23, 0.0874080
1671.77, 0.0874080
1672.31, 0.0874750
1672.85, 0.0874750
1673.39, 0.0876750
1673.93, 0.0878750
1674.47, 0.0881420
1675.01, 0.0881420
1675.55, 0.0878080
1676.09, 0.0878750
1676.64, 0.0880750
1677.18, 0.0881420
1677.72, 0.0880080
1678.26, 0.0881420
1678.81, 0.0884750
1679.35, 0.0890090
1679.89, 0.0889420
1680.44, 0.0883420
1680.98, 0.0882750
1681.53, 0.0886090
1682.07, 0.0885420
1682.62, 0.0885420
1683.17, 0.0888090
1683.71, 0.0887420
1684.26, 0.0884090
1684.81, 0.0888090
1685.36, 0.0891430
1685.9, 0.0889420
1686.45, 0.0892760
1687.0, 0.0894760
1687.55, 0.0893430
1688.1, 0.0892760
1688.65, 0.0890760
1689.2, 0.0890760
1689.75, 0.0893430
1690.3, 0.0896760
1690.85, 0.0896760
1691.41, 0.0892090
1691.96, 0.0890090
1692.51, 0.0891430
1693.06, 0.0892760
1693.61, 0.0895430
1694.17, 0.0897430
1694.72, 0.0898770
1695.28, 0.0896760
1695.83, 0.0897430
1696.39, 0.0900100
1696.94, 0.0900770
1697.5, 0.0901430
1698.05, 0.0900100
1698.61, 0.0898100
1699.17, 0.0902100
1699.72, 0.0905440
1700.28, 0.0903440
1700.84, 0.0904100
1701.4, 0.0902770
1701.95, 0.0899430
1702.51, 0.0899430
1703.07, 0.0901430
1703.63, 0.0904100
1704.19, 0.0904100
1704.75, 0.0902770
1705.31, 0.0904770
1705.88, 0.0907440
1706.44, 0.0908110
1707.0, 0.0908110
1707.56, 0.0908110
1708.12, 0.0909440
1708.69, 0.0908770
1709.25, 0.0908110
1709.81, 0.0908110
1710.38, 0.0906770
1710.94, 0.0910110
1711.51, 0.0911440
1712.07, 0.0910780
1712.64, 0.0908770
1713.2, 0.0907440
1713.77, 0.0910110
1714.34, 0.0914780
1714.9, 0.0917450
1715.47, 0.0916110
1716.04, 0.0914780
1716.61, 0.0913450
1717.18, 0.0910780
1717.74, 0.0912110
1718.31, 0.0915450
1718.88, 0.0914780
1719.45, 0.0915450
1720.02, 0.0916780
1720.59, 0.0916780
1721.17, 0.0914780
1721.74, 0.0914110
1722.31, 0.0914110
1722.88, 0.0915450
1723.45, 0.0917450
1724.03, 0.0920120
1724.6, 0.0921450
1725.18, 0.0922120
1725.75, 0.0920780
1726.33, 0.0919450
1726.9, 0.0920120
1727.48, 0.0920780
1728.05, 0.0922790
1728.63, 0.0924120
1729.2, 0.0923450
1729.78, 0.0922120
1730.36, 0.0922120
1730.94, 0.0922790
1731.51, 0.0924790
1732.09, 0.0925460
1732.67, 0.0926120
1733.25, 0.0925460
1733.83, 0.0924120
1734.41, 0.0924120
1734.99, 0.0927460
1735.57, 0.0929460
1736.15, 0.0926120
1736.73, 0.0924790
1737.32, 0.0925460
1737.9, 0.0926120
1738.48, 0.0928120
1739.07, 0.0930130
1739.65, 0.0928120
1740.23, 0.0927460
1740.82, 0.0930790
1741.4, 0.0931460
1741.99, 0.0930790
1742.57, 0.0930790
1743.16, 0.0931460
1743.74, 0.0930130
1744.33, 0.0928790
1744.92, 0.0929460
1745.51, 0.0933460
1746.09, 0.0934130
1746.68, 0.0932130
1747.27, 0.0932790
1747.86, 0.0934130
1748.45, 0.0934130
1749.04, 0.0934800
1749.63, 0.0934800
1750.22, 0.0935460
1750.81, 0.0936800
1751.4, 0.0937470
1751.99, 0.0936800
1752.59, 0.0939470
1753.18, 0.0942140
1753.77, 0.0940130
1754.37, 0.0936800
1754.96, 0.0939470
1755.56, 0.0943470
1756.15, 0.0943470
1756.74, 0.0940800
1757.34, 0.0940130
1757.94, 0.0940800
1758.53, 0.0941470
1759.13, 0.0942800
1759.73, 0.0944140
1760.32, 0.0942800
1760.92, 0.0942800
1761.52, 0.0945470
1762.12, 0.0946810
1762.72, 0.0947470
1763.32, 0.0946810
1763.92, 0.0948140
1764.52, 0.0950140
1765.12, 0.0949480
1765.72, 0.0946810
1766.32, 0.0946810
1766.92, 0.0948140
1767.53, 0.0949480
1768.13, 0.0950140
1768.73, 0.0950810
1769.34, 0.0950810
1769.94, 0.0950140
1770.55, 0.0951480
1771.15, 0.0952810
1771.76, 0.0954150
1772.36, 0.0953480
1772.97, 0.0952140
1773.57, 0.0952140
1774.18, 0.0953480
1774.79, 0.0954150
1775.4, 0.0952140
1776.0, 0.0952810
1776.61, 0.0954810
1777.22, 0.0956150
1777.83, 0.0956150
1778.44, 0.0958150
1779.05, 0.0958820
1779.66, 0.0958820
1780.27, 0.0958820
1780.88, 0.0958820
1781.5, 0.0958820
1782.11, 0.0958820
1782.72, 0.0958150
1783.33, 0.0958150
1783.95, 0.0961490
1784.56, 0.0961490
1785.18, 0.0959480
1785.79, 0.0960150
1786.41, 0.0963490
1787.02, 0.0964820
1787.64, 0.0962820
1788.26, 0.0960820
1788.87, 0.0962150
1789.49, 0.0965490
1790.11, 0.0967490
1790.73, 0.0965490
1791.35, 0.0964150
1791.96, 0.0964820
1792.58, 0.0964150
1793.21, 0.0962150
1793.83, 0.0963490
1794.45, 0.0965490
1795.07, 0.0967490
1795.69, 0.0969490
1796.31, 0.0969490
1796.93, 0.0969490
1797.56, 0.0969490
1798.18, 0.0968830
1798.8, 0.0969490
1799.43, 0.0970160
1800.05, 0.0970160
1800.68, 0.0969490
1801.3, 0.0968160
1801.93, 0.0969490
1802.56, 0.0971490
1803.18, 0.0974160
1803.81, 0.0974160
1804.44, 0.0972830
1805.07, 0.0972830
1805.7, 0.0972160
1806.33, 0.0970160
1806.95, 0.0972160
1807.58, 0.0973500
1808.22, 0.0972830
1808.85, 0.0970830
1809.48, 0.0972160
1810.11, 0.0974830
1810.74, 0.0976830
1811.38, 0.0979500
1812.01, 0.0979500
1812.64, 0.0977500
1813.28, 0.0974160
1813.91, 0.0975500
1814.55, 0.0978830
1815.18, 0.0980170
1815.82, 0.0977500
1816.45, 0.0979500
1817.09, 0.0983500
1817.73, 0.0983500
1818.36, 0.0980170
1819.0, 0.0979500
1819.64, 0.0981500
1820.28, 0.0981500
1820.92, 0.0979500
1821.56, 0.0979500
1822.2, 0.0981500
1822.84, 0.0978830
1823.48, 0.0980170
1824.12, 0.0982840
1824.76, 0.0983500
1825.41, 0.0983500
1826.05, 0.0982170
1826.69, 0.0983500
1827.34, 0.0987510
1827.98, 0.0987510
1828.63, 0.0986170
1829.27, 0.0986840
1829.92, 0.0989510
1830.56, 0.0988180
1831.21, 0.0986840
1831.86, 0.0988840
1832.5, 0.0989510
1833.15, 0.0989510
1833.8, 0.0989510
1834.45, 0.0990840
1835.1, 0.0989510
1835.75, 0.0988840
1836.4, 0.0990840
1837.05, 0.0990840
1837.7, 0.0990180
1838.35, 0.0991510
1839.01, 0.0992180
1839.66, 0.0988840
1840.31, 0.0989510
1840.96, 0.0992850
1841.62, 0.0994180
1842.27, 0.0994850
1842.93, 0.0994180
1843.58, 0.0994850
1844.24, 0.0996180
1844.9, 0.0998850
1845.55, 0.100085
1846.21, 0.0997520
1846.87, 0.0992180
1847.53, 0.0992850
1848.18, 0.0996850
1848.84, 0.0999520
1849.5, 0.100019
1850.16, 0.100085
1850.82, 0.100619
1851.48, 0.100753
1852.14, 0.100686
1852.81, 0.100419
1853.47, 0.100019
1854.13, 0.0999520
1854.8, 0.100152
1855.46, 0.100219
1856.12, 0.100285
1856.79, 0.100352
1857.45, 0.100619
1858.12, 0.100686
1858.79, 0.100753
1859.45, 0.100619
1860.12, 0.100753
1860.79, 0.100953
1861.46, 0.100886
1862.12, 0.101153
1862.79, 0.101420
1863.46, 0.101220
1864.13, 0.101086
1864.8, 0.101019
1865.48, 0.101153
1866.15, 0.101353
1866.82, 0.101286
1867.49, 0.100886
1868.16, 0.101019
1868.84, 0.101353
1869.51, 0.101353
1870.19, 0.101153
1870.86, 0.101019
1871.54, 0.101420
1872.21, 0.101353
1872.89, 0.100753
1873.56, 0.100953
1874.24, 0.101553
1874.92, 0.101620
1875.6, 0.101620
1876.28, 0.101420
1876.96, 0.101153
1877.64, 0.101286
1878.32, 0.101687
1879.0, 0.101620
1879.68, 0.101687
1880.36, 0.101887
1881.04, 0.102020
1881.73, 0.102154
1882.41, 0.102020
1883.09, 0.101887
1883.78, 0.101753
1884.46, 0.101954
1885.15, 0.102154
1885.83, 0.102220
1886.52, 0.102220
1887.21, 0.102220
1887.89, 0.102220
1888.58, 0.102087
1889.27, 0.101820
1889.96, 0.101820
1890.65, 0.102020
1891.34, 0.102354
1892.03, 0.102287
1892.72, 0.102220
1893.41, 0.102154
1894.1, 0.102154
1894.79, 0.102287
1895.49, 0.102621
1896.18, 0.102554
1896.87, 0.102287
1897.57, 0.102287
1898.26, 0.102354
1898.96, 0.102220
1899.65, 0.102020
1900.35, 0.102087
1901.05, 0.102287
1901.74, 0.102287
1902.44, 0.102154
1903.14, 0.102220
1903.84, 0.102487
1904.54, 0.102354
1905.24, 0.102087
1905.94, 0.102087
1906.64, 0.102154
1907.34, 0.102354
1908.04, 0.102487
1908.75, 0.102554
1909.45, 0.102487
1910.15, 0.102554
1910.86, 0.102688
1911.56, 0.102688
1912.27, 0.102754
1912.97, 0.102354
1913.68, 0.102287
1914.39, 0.102554
1915.09, 0.102688
1915.8, 0.102621
1916.51, 0.102754
1917.22, 0.102954
1917.93, 0.103088
1918.64, 0.103021
1919.35, 0.102821
1920.06, 0.102688
1920.77, 0.102754
1921.48, 0.102888
1922.19, 0.102888
1922.91, 0.103155
1923.62, 0.103155
1924.33, 0.103088
1925.05, 0.103221
1925.76, 0.103355
1926.48, 0.103288
1927.19, 0.103288
1927.91, 0.103288
1928.63, 0.103088
1929.35, 0.103155
1930.07, 0.103355
1930.78, 0.103355
1931.5, 0.103355
1932.22, 0.103622
1932.94, 0.103822
1933.66, 0.103822
1934.39, 0.103755
1935.11, 0.103688
1935.83, 0.103688
1936.55, 0.103755
1937.28, 0.104022
1938.0, 0.104155
1938.73, 0.104089
1939.45, 0.103955
1940.18, 0.104022
1940.9, 0.104089
1941.63, 0.104222
1942.36, 0.104356
1943.09, 0.104289
1943.81, 0.104222
1944.54, 0.104289
1945.27, 0.104556
1946.0, 0.104689
1946.73, 0.104689
1947.47, 0.104556
1948.2, 0.104489
1948.93, 0.104556
1949.66, 0.104556
1950.4, 0.104689
1951.13, 0.104756
1951.86, 0.104756
1952.6, 0.104823
1953.34, 0.105023
1954.07, 0.104889
1954.81, 0.104689
1955.55, 0.104889
1956.29, 0.105223
1957.02, 0.105290
1957.76, 0.105290
1958.5, 0.105423
1959.24, 0.105423
1959.98, 0.105490
1960.72, 0.105490
1961.47, 0.105356
1962.21, 0.105356
1962.95, 0.105423
1963.7, 0.105557
1964.44, 0.105890
1965.18, 0.106024
1965.93, 0.105824
1966.67, 0.105690
1967.42, 0.105757
1968.17, 0.105890
1968.92, 0.105957
1969.66, 0.106024
1970.41, 0.105957
1971.16, 0.106157
1971.91, 0.106357
1972.66, 0.106224
1973.41, 0.106090
1974.16, 0.106090
1974.92, 0.106291
1975.67, 0.106357
1976.42, 0.106357
1977.18, 0.106357
1977.93, 0.106357
1978.69, 0.106491
1979.44, 0.106491
1980.2, 0.106624
1980.95, 0.106557
1981.71, 0.106624
1982.47, 0.106824
1983.23, 0.106824
1983.99, 0.106758
1984.74, 0.106824
1985.51, 0.106891
1986.27, 0.106691
1987.03, 0.106824
1987.79, 0.107025
1988.55, 0.106891
1989.32, 0.106891
1990.08, 0.107091
1990.84, 0.107358
1991.61, 0.107425
1992.37, 0.107358
1993.14, 0.107225
1993.9, 0.107291
1994.67, 0.107358
1995.44, 0.107425
1996.21, 0.107492
1996.98, 0.107558
1997.75, 0.107492
1998.52, 0.107425
1999.29, 0.107625
2000.06, 0.107625
2000.83, 0.107558
2001.6, 0.107758
2002.38, 0.107825
2003.15, 0.107692
2003.93, 0.107758
2004.7, 0.107758
2005.48, 0.107892
2006.25, 0.108025
2007.03, 0.108092
2007.81, 0.108226
2008.58, 0.108292
2009.36, 0.108359
2010.14, 0.108492
2010.92, 0.108426
2011.7, 0.108426
2012.48, 0.108426
2013.26, 0.108626
2014.05, 0.108759
2014.83, 0.108693
2015.61, 0.108693
2016.4, 0.108960
2017.18, 0.108826
2017.97, 0.108759
2018.75, 0.108960
2019.54, 0.109093
2020.32, 0.109026
2021.11, 0.108960
2021.9, 0.109160
2022.69, 0.109160
2023.48, 0.109293
2024.27, 0.109360
2025.06, 0.109226
2025.85, 0.109293
2026.64, 0.109560
2027.44, 0.109827
2028.23, 0.109894
2029.02, 0.109960
2029.82, 0.109827
2030.61, 0.109827
2031.41, 0.109894
2032.2, 0.110027
2033.0, 0.110161
2033.8, 0.110227
2034.6, 0.110427
2035.4, 0.110494
2036.2, 0.110294
2037.0, 0.110294
2037.8, 0.110427
2038.6, 0.110494
2039.4, 0.110694
2040.2, 0.110828
2041.01, 0.110828
2041.81, 0.110828
2042.61, 0.110895
2043.42, 0.111161
2044.22, 0.111095
2045.03, 0.111095
2045.84, 0.111228
2046.65, 0.111428
2047.46, 0.111562
2048.26, 0.111562
2049.07, 0.111428
2049.88, 0.111428
2050.69, 0.111628
2051.51, 0.111762
2052.32, 0.111829
2053.13, 0.112029
2053.94, 0.112296
2054.76, 0.112296
2055.57, 0.112096
2056.39, 0.112029
2057.2, 0.111895
2058.02, 0.112029
2058.84, 0.112296
2059.66, 0.112629
2060.48, 0.112763
2061.29, 0.112829
2062.11, 0.112829
2062.94, 0.112696
2063.76, 0.112763
2064.58, 0.112696
2065.4, 0.112563
2066.22, 0.112563
2067.05, 0.112696
2067.87, 0.113030
2068.7, 0.113297
2069.52, 0.113297
2070.35, 0.113030
2071.18, 0.113230
2072.0, 0.113430
2072.83, 0.113697
2073.66, 0.113697
2074.49, 0.113563
2075.32, 0.113563
2076.15, 0.113630
2076.98, 0.113697
2077.82, 0.113697
2078.65, 0.113630
2079.48, 0.113563
2080.32, 0.113630
2081.15, 0.113764
2081.99, 0.113897
2082.83, 0.113897
2083.66, 0.113964
2084.5, 0.113964
2085.34, 0.114097
2086.18, 0.114097
2087.02, 0.114097
2087.86, 0.114164
2088.7, 0.114097
2089.54, 0.114097
2090.39, 0.114164
2091.23, 0.114364
2092.07, 0.114431
2092.92, 0.114431
2093.76, 0.114431
2094.61, 0.114498
2095.45, 0.114498
2096.3, 0.114498
2097.15, 0.114564
2098.0, 0.114698
2098.85, 0.114831
2099.7, 0.114831
2100.55, 0.114898
2101.4, 0.115031
2102.25, 0.115031
2103.1, 0.115098
2103.96, 0.115098
2104.81, 0.115165
2105.67, 0.115098
2106.52, 0.115031
2107.38, 0.115165
2108.24, 0.115098
2109.09, 0.115098
2109.95, 0.115232
2110.81, 0.115298
2111.67, 0.115298
2112.53, 0.115365
2113.39, 0.115432
2114.25, 0.115632
2115.12, 0.115632
2115.98, 0.115565
2116.84, 0.115765
2117.71, 0.115899
2118.58, 0.115832
2119.44, 0.115699
2120.31, 0.115632
2121.18, 0.115699
2122.04, 0.115832
2122.91, 0.116099
2123.78, 0.116366
2124.65, 0.116433
2125.52, 0.116366
2126.4, 0.116166
2127.27, 0.116166
2128.14, 0.116366
2129.02, 0.116499
2129.89, 0.116566
2130.77, 0.116499
2131.64, 0.116566
2132.52, 0.116633
2133.4, 0.116833
2134.27, 0.116633
2135.15, 0.116566
2136.03, 0.116766
2136.91, 0.117033
2137.79, 0.117100
2138.68, 0.117167
2139.56, 0.117233
2140.44, 0.117300
2141.33, 0.117300
2142.21, 0.117233
2143.1, 0.117300
2143.99, 0.117367
2144.87, 0.117433
2145.76, 0.117433
2146.65, 0.117500
2147.54, 0.117500
2148.43, 0.117567
2149.32, 0.117767
2150.21, 0.117700
2151.1, 0.117834
2151.99, 0.117900
2152.89, 0.117900
2153.78, 0.117900
2154.68, 0.117900
2155.57, 0.118034
2156.47, 0.118368
2157.37, 0.118434
2158.27, 0.118568
2159.16, 0.118434
2160.06, 0.118434
2160.96, 0.118501
2161.86, 0.118568
2162.77, 0.118634
2163.67, 0.118568
2164.57, 0.118701
2165.48, 0.118768
2166.38, 0.118768
2167.29, 0.118768
2168.2, 0.118768
2169.1, 0.118768
2170.01, 0.119035
2170.92, 0.119102
2171.83, 0.119035
2172.74, 0.119102
2173.65, 0.119168
2174.56, 0.119168
2175.47, 0.119168
2176.39, 0.119235
2177.3, 0.119368
2178.22, 0.119302
2179.13, 0.119235
2180.05, 0.119302
2180.96, 0.119368
2181.88, 0.119302
2182.8, 0.119502
2183.72, 0.119769
2184.64, 0.119702
2185.56, 0.119702
2186.48, 0.119702
2187.41, 0.119702
2188.33, 0.119835
2189.25, 0.119902
2190.18, 0.119835
2191.1, 0.119835
2192.03, 0.119969
2192.96, 0.119902
2193.89, 0.119902
2194.82, 0.119902
2195.74, 0.120036
2196.68, 0.120236
2197.61, 0.120169
2198.54, 0.120169
2199.47, 0.120102
2200.4, 0.120036
2201.34, 0.120169
2202.28, 0.120236
2203.21, 0.120236
2204.15, 0.120369
2205.08, 0.120236
2206.02, 0.120036
2206.96, 0.120169
2207.9, 0.120369
2208.84, 0.120503
2209.78, 0.120503
2210.73, 0.120503
2211.67, 0.120503
2212.61, 0.120503
2213.56, 0.120503
2214.5, 0.120569
2215.45, 0.120569
2216.4, 0.120436
2217.35, 0.120436
2218.3, 0.120436
2219.24, 0.120503
2220.2, 0.120503
2221.15, 0.120436
2222.1, 0.120369
2223.05, 0.120569
2224.0, 0.120703
2224.96, 0.120703
2225.91, 0.120770
2226.87, 0.120636
2227.83, 0.120569
2228.79, 0.120503
2229.74, 0.120503
2230.7, 0.120636
2231.66, 0.120836
2232.63, 0.120836
2233.59, 0.120770
2234.55, 0.120770
2235.51, 0.120836
2236.48, 0.120770
2237.44, 0.120636
2238.41, 0.120569
2239.38, 0.120770
2240.34, 0.120903
2241.31, 0.120903
2242.28, 0.120836
2243.25, 0.120903
2244.22, 0.120903
2245.19, 0.120770
2246.17, 0.120836
2247.14, 0.120970
2248.12, 0.121103
2249.09, 0.120970
2250.07, 0.120836
2251.04, 0.120836
2252.02, 0.120770
2253.0, 0.120836
2253.98, 0.120836
2254.96, 0.120836
2255.94, 0.120903
2256.92, 0.121036
2257.91, 0.121237
2258.89, 0.121170
2259.88, 0.121103
2260.86, 0.121036
2261.85, 0.121036
2262.83, 0.121103
2263.82, 0.121237
2264.81, 0.121170
2265.8, 0.121103
2266.79, 0.121237
2267.78, 0.121370
2268.78, 0.121504
2269.77, 0.121570
2270.76, 0.121437
2271.76, 0.121437
2272.75, 0.121504
2273.75, 0.121570
2274.75, 0.121437
2275.75, 0.121370
2276.75, 0.121370
2277.75, 0.121437
2278.75, 0.121570
2279.75, 0.121504
2280.75, 0.121370
2281.76, 0.121437
2282.76, 0.121437
2283.77, 0.121437
2284.77, 0.121504
2285.78, 0.121570
2286.79, 0.121704
2287.8, 0.121868
2288.81, 0.121758
2289.82, 0.121704
2290.83, 0.121649
2291.84, 0.121649
2292.86, 0.121758
2293.87, 0.121704
2294.89, 0.121430
2295.91, 0.121485
2296.92, 0.121594
2297.94, 0.121594
2298.96, 0.121704
2299.98, 0.121813
2301.0, 0.121868
2302.02, 0.121922
2303.04, 0.121813
2304.07, 0.121594
2305.09, 0.121649
2306.12, 0.121704
2307.15, 0.121594
2308.17, 0.121813
2309.2, 0.121977
2310.23, 0.121704
2311.26, 0.121594
2312.29, 0.121540
2313.32, 0.121266
2314.35, 0.121376
2315.39, 0.121485
2316.42, 0.121430
2317.46, 0.121430
2318.5, 0.121376
2319.53, 0.121376
2320.57, 0.121649
2321.61, 0.121540
2322.65, 0.121430
2323.69, 0.121376
2324.73, 0.121103
2325.78, 0.121430
2326.82, 0.121540
2327.86, 0.121266
2328.91, 0.121376
2329.96, 0.121212
2331.01, 0.120993
2332.05, 0.121103
2333.1, 0.121157
2334.15, 0.121103
2335.21, 0.121103
2336.26, 0.121103
2337.31, 0.121157
2338.36, 0.121266
2339.42, 0.120884
2340.48, 0.120775
2341.53, 0.121212
2342.59, 0.121376
2343.65, 0.120939
2344.71, 0.120775
2345.77, 0.120939
2346.83, 0.120993
2347.9, 0.121048
2348.96, 0.120993
2350.02, 0.120775
2351.09, 0.120829
2352.16, 0.121048
2353.23, 0.121212
2354.29, 0.120993
2355.36, 0.120720
2356.43, 0.120665
2357.51, 0.120665
2358.58, 0.120775
2359.65, 0.120775
2360.73, 0.120611
2361.8, 0.120447
2362.88, 0.120337
2363.96, 0.120392
2365.03, 0.120337
2366.11, 0.120283
2367.19, 0.120337
2368.27, 0.120228
2369.36, 0.120174
2370.44, 0.119955
2371.53, 0.119627
2372.61, 0.119627
2373.7, 0.119791
2374.78, 0.119955
2375.87, 0.119955
2376.96, 0.119736
2378.05, 0.119736
2379.14, 0.119682
2380.24, 0.119408
2381.33, 0.119299
2382.42, 0.119572
2383.52, 0.119354
2384.61, 0.118971
2385.71, 0.119081
2386.81, 0.119081
2387.91, 0.118698
2389.01, 0.118425
2390.11, 0.118315
2391.22, 0.118206
2392.32, 0.118370
2393.42, 0.118589
2394.53, 0.118589
2395.64, 0.118425
2396.74, 0.118589
2397.85, 0.118152
2398.96, 0.117933
2400.07, 0.117769
2401.18, 0.117660
2402.3, 0.117714
2403.41, 0.117714
2404.52, 0.117824
2405.64, 0.117933
2406.76, 0.118042
2407.88, 0.118152
2408.99, 0.117933
2410.11, 0.117605
2411.23, 0.117714
2412.36, 0.118097
2413.48, 0.117988
2414.6, 0.117550
2415.73, 0.117496
2416.85, 0.117660
2417.98, 0.117878
2419.11, 0.117988
2420.24, 0.117988
2421.37, 0.118097
2422.5, 0.118042
2423.64, 0.117933
2424.77, 0.118097
2425.9, 0.118042
2427.04, 0.117933
2428.18, 0.118042
2429.31, 0.118206
2430.45, 0.118315
2431.59, 0.118206
2432.73, 0.118097
2433.88, 0.118097
2435.02, 0.118152
2436.16, 0.117878
2437.31, 0.117714
2438.45, 0.117660
2439.6, 0.117769
2440.75, 0.117988
2441.9, 0.118152
2443.05, 0.118370
2444.2, 0.118315
2445.35, 0.118370
2446.51, 0.118206
2447.67, 0.117933
2448.82, 0.118042
2449.98, 0.117933
2451.14, 0.117878
2452.3, 0.118152
2453.46, 0.118206
2454.62, 0.118152
2455.78, 0.118152
2456.94, 0.117988
2458.11, 0.117660
2459.28, 0.117824
2460.44, 0.117988
2461.61, 0.117878
2462.78, 0.117878
2463.95, 0.117769
2465.12, 0.117660
2466.3, 0.117988
2467.47, 0.118152
2468.65, 0.117878
2469.82, 0.117824
2471.0, 0.117769
2472.18, 0.117605
2473.36, 0.117714
2474.54, 0.117714
2475.72, 0.117550
2476.9, 0.117441
2478.08, 0.117605
2479.27, 0.117769
2480.46, 0.117660
2481.64, 0.117441
2482.83, 0.117496
2484.02, 0.117550
2485.21, 0.117605
2486.4, 0.117714
2487.6, 0.117878
2488.79, 0.117878
2489.99, 0.117878
2491.18, 0.117878
2492.38, 0.117769
2493.58, 0.117714
2494.78, 0.117769
2495.98, 0.117605
2497.18, 0.117660
2498.39, 0.117988
2499.59, 0.118042
2500.8, 0.117933
2502.01, 0.118042
2503.21, 0.118206
2504.42, 0.118261
2505.63, 0.118206
2506.84, 0.118479
2508.06, 0.118479
2509.27, 0.118425
2510.49, 0.118479
2511.7, 0.118479
2512.92, 0.118370
2514.14, 0.118315
2515.36, 0.118425
2516.58, 0.118643
2517.8, 0.118753
2519.03, 0.119135
2520.25, 0.119190
2521.48, 0.118971
2522.7, 0.119135
2523.93, 0.119299
2525.16, 0.119354
2526.39, 0.119408
2527.62, 0.119572
2528.86, 0.119463
2530.09, 0.119190
2531.33, 0.119408
2532.56, 0.119846
2533.8, 0.120010
2535.04, 0.120010
2536.28, 0.119955
2537.52, 0.120064
2538.76, 0.119955
2540.01, 0.119955
2541.25, 0.120064
2542.5, 0.119900
2543.75, 0.120064
2544.99, 0.120501
2546.24, 0.120720
2547.49, 0.120720
2548.75, 0.120829
2550.0, 0.120720
2551.26, 0.120337
2552.51, 0.120337
2553.77, 0.120939
2555.03, 0.121376
2556.29, 0.121485
2557.55, 0.121321
2558.81, 0.120939
2560.08, 0.119846
2561.34, 0.119135
2562.61, 0.119244
2563.88, 0.119463
2565.14, 0.120556
2566.41, 0.121649
2567.68, 0.121485
2568.96, 0.120501
2570.23, 0.120501
2571.51, 0.120884
2572.78, 0.119572
2574.06, 0.119900
2575.34, 0.120775
2576.62, 0.120174
2577.9, 0.120556
2579.18, 0.121212
2580.47, 0.120665
2581.75, 0.120337
2583.04, 0.119190
2584.32, 0.119026
2585.61, 0.120119
2586.9, 0.119408
2588.2, 0.119572
2589.49, 0.120556
2590.78, 0.121430
2592.08, 0.120775
2593.37, 0.117386
2594.67, 0.114326
2595.97, 0.117004
2597.27, 0.120064
2598.57, 0.120993
2599.88, 0.120829
2601.18, 0.120228
2602.49, 0.119736
2603.79, 0.118807
2605.1, 0.117168
2606.41, 0.117769
2607.72, 0.118971
2609.03, 0.119244
2610.35, 0.119572
2611.66, 0.119791
2612.98, 0.119572
2614.3, 0.119682
2615.62, 0.118042
2616.94, 0.116895
2618.26, 0.118152
2619.58, 0.117222
2620.91, 0.117113
2622.23, 0.118917
2623.56, 0.119244
2624.89, 0.118425
2626.22, 0.116785
2627.55, 0.117222
2628.88, 0.116949
2630.21, 0.115310
2631.55, 0.116567
2632.89, 0.117496
2634.22, 0.117332
2635.56, 0.117878
2636.9, 0.118261
2638.25, 0.118261
2639.59, 0.117988
2640.93, 0.117605
2642.28, 0.117168
2643.63, 0.116949
2644.98, 0.116403
2646.33, 0.116457
2647.68, 0.116731
2649.03, 0.116785
2650.39, 0.116403
2651.74, 0.115310
2653.1, 0.114818
2654.46, 0.114927
2655.82, 0.114763
2657.18, 0.115036
2658.54, 0.114162
2659.9, 0.113616
2661.27, 0.113561
2662.64, 0.113506
2664.01, 0.111320
2665.38, 0.109189
2666.74, 0.109080
2668.12, 0.110446
2669.49, 0.108424
2670.87, 0.107550
2672.24, 0.110555
2673.62, 0.110992
2675.0, 0.109517
2676.38, 0.107987
2677.76, 0.107987
2679.15, 0.108096
2680.54, 0.109189
2681.92, 0.109244
2683.31, 0.108533
2684.7, 0.108205
2686.09, 0.107768
2687.48, 0.107440
2688.88, 0.107167
2690.27, 0.106894
2691.67, 0.105855
2693.07, 0.103779
2694.47, 0.103178
2695.87, 0.103615
2697.27, 0.103669
2698.67, 0.103232
2700.08, 0.101866
2701.49, 0.100828
2702.9, 0.100828
2704.31, 0.100336
2705.72, 0.0996800
2707.13, 0.0989150
2708.54, 0.0974940
2709.96, 0.0955810
2711.38, 0.0953630
2712.8, 0.0968380
2714.22, 0.0970570
2715.64, 0.0964010
2717.06, 0.0953080
2718.49, 0.0937780
2719.91, 0.0912090
2721.34, 0.0912640
2722.77, 0.0913730
2724.2, 0.0897340
2725.63, 0.0898980
2727.07, 0.0903350
2728.5, 0.0898980
2729.94, 0.0894060
2731.38, 0.0888050
2732.82, 0.0876030
2734.26, 0.0857990
2735.7, 0.0852530
2737.15, 0.0848160
2738.59, 0.0825750
2740.04, 0.0808260
2741.49, 0.0810990
2742.94, 0.0818640
2744.39, 0.0817010
2745.84, 0.0810990
2747.3, 0.0803890
2748.76, 0.0797880
2750.21, 0.0791320
2751.67, 0.0781480
2753.14, 0.0768910
2754.6, 0.0747600
2756.06, 0.0739400
2757.53, 0.0745410
2759.0, 0.0742140
2760.46, 0.0732300
2761.94, 0.0718090
2763.41, 0.0712080
2764.88, 0.0712630
2766.36, 0.0707160
2767.83, 0.0698420
2769.31, 0.0692400
2770.79, 0.0684210
2772.27, 0.0682570
2773.76, 0.0680930
2775.24, 0.0674370
2776.73, 0.0666720
2778.22, 0.0660710
2779.71, 0.0653060
2781.2, 0.0645950
2782.69, 0.0641580
2784.18, 0.0637760
2785.68, 0.0628470
2787.18, 0.0619720
2788.68, 0.0618080
2790.18, 0.0615350
2791.68, 0.0609340
2793.19, 0.0603870
2794.69, 0.0598950
2796.2, 0.0594040
2797.71, 0.0588570
2799.22, 0.0584750
2800.73, 0.0579280
2802.24, 0.0571080
2803.76, 0.0566710
2805.28, 0.0565620
2806.8, 0.0563430
2808.32, 0.0559610
2809.84, 0.0554690
2811.36, 0.0550860
2812.89, 0.0547040
2814.42, 0.0542120
2815.94, 0.0537750
2817.48, 0.0533920
2819.01, 0.0529000
2820.54, 0.0527360
2822.08, 0.0524090
2823.61, 0.0520260
2825.15, 0.0518620
2826.69, 0.0514800
2828.23, 0.0509880
2829.78, 0.0508780
2831.32, 0.0506600
2832.87, 0.0502770
2834.42, 0.0498400
2835.97, 0.0496210
2837.52, 0.0494030
2839.08, 0.0490750
2840.63, 0.0489110
2842.19, 0.0488020
2843.75, 0.0486380
2845.31, 0.0484740
2846.87, 0.0480910
2848.44, 0.0478180
2850.0, 0.0475990
2851.57, 0.0473260
2853.14, 0.0470530
2854.71, 0.0466700
2856.28, 0.0465060
2857.86, 0.0462330
2859.43, 0.0459600
2861.01, 0.0458510
2862.59, 0.0457410
2864.17, 0.0455230
2865.76, 0.0453040
2867.34, 0.0453040
2868.93, 0.0451400
2870.52, 0.0448120
2872.11, 0.0446480
2873.7, 0.0445390
2875.29, 0.0444840
2876.89, 0.0442110
2878.49, 0.0438830
2880.08, 0.0439930
2881.69, 0.0439380
2883.29, 0.0437740
2884.89, 0.0436100
2886.5, 0.0433910
2888.11, 0.0432270
2889.72, 0.0431730
2891.33, 0.0430640
2892.94, 0.0429540
2894.56, 0.0429000
2896.17, 0.0428450
2897.79, 0.0425720
2899.42, 0.0422980
2901.04, 0.0421350
2902.66, 0.0421350
2904.29, 0.0421350
2905.92, 0.0421350
2907.55, 0.0420800
2909.18, 0.0416970
2910.81, 0.0414240
2912.45, 0.0413150
2914.08, 0.0412050
2915.72, 0.0413150
2917.36, 0.0412600
2919.01, 0.0409870
2920.65, 0.0409320
2922.3, 0.0409320
2923.94, 0.0408780
2925.59, 0.0407140
2927.25, 0.0405500
2928.9, 0.0403310
2930.56, 0.0404400
2932.21, 0.0404950
2933.87, 0.0401670
2935.53, 0.0400030
2937.2, 0.0401120
2938.86, 0.0400580
2940.53, 0.0398940
2942.2, 0.0397300
2943.87, 0.0397300
2945.54, 0.0396750
2947.22, 0.0395660
2948.89, 0.0394020
2950.57, 0.0394020
2952.25, 0.0394570
2953.93, 0.0392930
2955.62, 0.0390740
2957.3, 0.0389100
2958.99, 0.0388010
2960.68, 0.0386920
2962.37, 0.0386370
2964.07, 0.0387460
2965.76, 0.0387460
2967.46, 0.0385280
2969.16, 0.0384180
2970.86, 0.0383640
2972.56, 0.0383090
2974.27, 0.0381450
2975.98, 0.0382000
2977.69, 0.0382000
2979.4, 0.0380360
2981.11, 0.0379810
2982.83, 0.0378720
2984.54, 0.0377080
2986.26, 0.0377080
2987.98, 0.0378170
2989.71, 0.0375990
2991.43, 0.0375990
2993.16, 0.0377080
2994.89, 0.0375440
2996.62, 0.0374890
2998.35, 0.0374890
3000.09, 0.0375440
3001.83, 0.0374890
3003.57, 0.0374350
3005.31, 0.0374890
3007.05, 0.0375440
3008.79, 0.0374350
3010.54, 0.0373250
3012.29, 0.0371610
3014.04, 0.0371610
3015.8, 0.0372160
3017.55, 0.0371070
3019.31, 0.0369430
3021.07, 0.0368340
3022.83, 0.0368340
3024.59, 0.0368880
3026.36, 0.0368880
3028.13, 0.0366700
3029.9, 0.0366150
3031.67, 0.0366150
3033.44, 0.0365060
3035.22, 0.0364510
3037.0, 0.0365060
3038.78, 0.0364510
3040.56, 0.0363420
3042.34, 0.0363420
3044.13, 0.0362320
3045.92, 0.0362320
3047.71, 0.0362320
3049.5, 0.0360680
3051.3, 0.0360140
3053.09, 0.0360140
3054.89, 0.0359590
3056.69, 0.0361230
3058.5, 0.0360680
3060.3, 0.0360140
3062.11, 0.0359050
3063.92, 0.0358500
3065.73, 0.0359050
3067.55, 0.0358500
3069.36, 0.0356860
3071.18, 0.0356310
3073.0, 0.0357410
3074.82, 0.0357950
3076.65, 0.0357950
3078.48, 0.0357410
3080.31, 0.0357950
3082.14, 0.0357410
3083.97, 0.0357410
3085.8, 0.0358500
3087.64, 0.0358500
3089.48, 0.0357410
3091.33, 0.0356860
3093.17, 0.0356860
3095.02, 0.0357410
3096.87, 0.0356860
3098.72, 0.0356860
3100.57, 0.0357410
3102.43, 0.0357410
3104.28, 0.0357410
3106.14, 0.0357950
3108.01, 0.0358500
3109.87, 0.0357950
3111.74, 0.0356310
3113.61, 0.0355770
3115.48, 0.0358500
3117.35, 0.0360140
3119.23, 0.0360140
3121.1, 0.0361230
3122.98, 0.0362320
3124.87, 0.0361780
3126.75, 0.0360680
3128.64, 0.0360140
3130.53, 0.0361230
3132.42, 0.0362870
3134.31, 0.0362870
3136.21, 0.0362320
3138.11, 0.0363420
3140.01, 0.0363960
3141.91, 0.0363420
3143.82, 0.0364510
3145.73, 0.0366700
3147.64, 0.0366150
3149.55, 0.0365600
3151.46, 0.0366700
3153.38, 0.0367240
3155.3, 0.0367240
3157.22, 0.0366150
3159.14, 0.0367240
3161.07, 0.0369430
3163.0, 0.0371070
3164.93, 0.0371610
3166.86, 0.0372160
3168.8, 0.0372160
3170.74, 0.0373250
3172.68, 0.0373800
3174.62, 0.0373800
3176.56, 0.0376530
3178.51, 0.0378720
3180.46, 0.0377630
3182.42, 0.0376530
3184.37, 0.0377630
3186.33, 0.0380360
3188.29, 0.0383090
3190.25, 0.0383640
3192.21, 0.0384730
3194.18, 0.0385280
3196.15, 0.0386370
3198.12, 0.0387460
3200.09, 0.0388010
3202.07, 0.0389100
3204.05, 0.0390740
3206.03, 0.0394020
3208.02, 0.0395110
3210.0, 0.0395110
3211.99, 0.0396210
3213.98, 0.0398940
3215.98, 0.0400030
3217.97, 0.0400580
3219.97, 0.0403860
3221.97, 0.0406040
3223.98, 0.0407140
3225.98, 0.0408230
3227.99, 0.0409320
3230.0, 0.0412050
3232.02, 0.0414790
3234.03, 0.0415880
3236.05, 0.0415330
3238.07, 0.0417520
3240.1, 0.0420800
3242.12, 0.0423530
3244.15, 0.0426260
3246.18, 0.0427360
3248.22, 0.0429000
3250.25, 0.0432270
3252.29, 0.0435010
3254.33, 0.0436650
3256.38, 0.0437190
3258.43, 0.0437740
3260.47, 0.0439930
3262.53, 0.0443200
3264.58, 0.0445390
3266.64, 0.0446480
3268.7, 0.0447580
3270.76, 0.0449220
3272.82, 0.0451400
3274.89, 0.0453590
3276.96, 0.0455230
3279.04, 0.0457410
3281.11, 0.0459600
3283.19, 0.0461790
3285.27, 0.0463970
3287.35, 0.0466160
3289.44, 0.0467800
3291.53, 0.0469440
3293.62, 0.0469980
3295.71, 0.0471080
3297.81, 0.0473260
3299.91, 0.0475450
3302.01, 0.0475990
3304.11, 0.0478180
3306.22, 0.0479820
3308.33, 0.0479820
3310.44, 0.0480910
3312.56, 0.0483650
3314.68, 0.0485830
3316.8, 0.0488020
3318.92, 0.0489110
3321.05, 0.0489110
3323.18, 0.0489110
3325.31, 0.0490750
3327.44, 0.0492390
3329.58, 0.0494030
3331.72, 0.0495120
3333.86, 0.0496210
3336.01, 0.0497850
3338.16, 0.0498400
3340.31, 0.0498950
3342.46, 0.0498950
3344.61, 0.0498400
3346.77, 0.0498400
3348.94, 0.0499490
3351.1, 0.0499490
3353.27, 0.0500590
3355.44, 0.0500590
3357.61, 0.0499490
3359.79, 0.0498400
3361.97, 0.0498400
3364.15, 0.0498400
3366.33, 0.0497850
3368.52, 0.0497310
3370.71, 0.0496760
3372.9, 0.0496760
3375.1, 0.0497850
3377.3, 0.0498950
3379.5, 0.0497850
3381.71, 0.0498950
3383.91, 0.0498950
3386.12, 0.0497850
3388.34, 0.0498400
3390.55, 0.0498400
3392.77, 0.0497850
3394.99, 0.0497310
3397.22, 0.0496210
3399.45, 0.0496210
3401.68, 0.0496210
3403.91, 0.0496760
3406.15, 0.0497310
3408.39, 0.0497850
3410.63, 0.0497850
3412.87, 0.0497310
3415.12, 0.0497850
3417.37, 0.0497850
3419.63, 0.0498400
3421.88, 0.0497310
3424.14, 0.0497310
3426.41, 0.0496210
3428.67, 0.0495670
3430.94, 0.0496760
3433.21, 0.0497850
3435.49, 0.0496760
3437.77, 0.0495670
3440.05, 0.0496210
3442.33, 0.0496210
3444.62, 0.0496760
3446.91, 0.0497850
3449.2, 0.0498950
3451.5, 0.0498400
3453.8, 0.0498400
3456.1, 0.0500040
3458.41, 0.0501130
3460.72, 0.0501680
3463.03, 0.0502770
3465.34, 0.0503870
3467.66, 0.0504960
3469.98, 0.0506600
3472.31, 0.0508240
3474.63, 0.0509330
3476.96, 0.0508780
3479.3, 0.0507690
3481.64, 0.0507690
3483.97, 0.0509880
3486.32, 0.0512610
3488.66, 0.0514250
3491.01, 0.0514800
3493.36, 0.0515340
3495.72, 0.0517530
3498.08, 0.0520260
3500.44, 0.0521900
3502.81, 0.0522990
3505.18, 0.0524630
3507.55, 0.0526270
3509.92, 0.0527910
3512.3, 0.0529550
3514.68, 0.0531190
3517.06, 0.0531740
3519.45, 0.0533380
3521.84, 0.0536650
3524.24, 0.0537750
3526.64, 0.0538840
3529.04, 0.0541030
3531.44, 0.0542120
3533.85, 0.0544310
3536.26, 0.0545400
3538.67, 0.0545950
3541.09, 0.0547580
3543.51, 0.0549220
3545.93, 0.0550320
3548.36, 0.0551960
3550.79, 0.0553600
3553.22, 0.0554690
3555.66, 0.0555780
3558.1, 0.0557420
3560.54, 0.0559060
3562.99, 0.0560150
3565.44, 0.0561790
3567.9, 0.0562890
3570.35, 0.0563430
3572.81, 0.0564530
3575.28, 0.0565620
3577.75, 0.0566710
3580.22, 0.0567260
3582.69, 0.0568350
3585.17, 0.0569990
3587.65, 0.0571630
3590.14, 0.0572720
3592.62, 0.0573270
3595.11, 0.0574360
3597.61, 0.0575460
3600.11, 0.0576550
3602.61, 0.0577100
3605.11, 0.0578730
3607.62, 0.0578730
3610.14, 0.0579280
3612.65, 0.0580920
3615.17, 0.0582560
3617.69, 0.0584200
3620.22, 0.0583650
3622.75, 0.0585290
3625.28, 0.0586390
3627.82, 0.0587480
3630.36, 0.0588570
3632.9, 0.0589120
3635.45, 0.0589660
3638.0, 0.0590760
3640.56, 0.0592400
3643.12, 0.0594040
3645.68, 0.0593490
3648.24, 0.0594040
3650.81, 0.0595130
3653.39, 0.0596220
3655.96, 0.0597320
3658.54, 0.0598950
3661.13, 0.0598950
3663.71, 0.0600050
3666.3, 0.0602780
3668.9, 0.0603870
3671.5, 0.0604970
3674.1, 0.0606610
3676.7, 0.0607700
3679.31, 0.0608790
3681.93, 0.0609880
3684.54, 0.0611520
3687.17, 0.0612620
3689.79, 0.0613160
3692.42, 0.0615350
3695.05, 0.0618080
3697.69, 0.0619180
3700.32, 0.0620270
3702.97, 0.0621910
3705.61, 0.0623000
3708.27, 0.0624090
3710.92, 0.0625730
3713.58, 0.0626830
3716.24, 0.0627370
3718.91, 0.0629560
3721.58, 0.0632290
3724.25, 0.0632840
3726.93, 0.0633380
3729.61, 0.0634480
3732.29, 0.0636660
3734.98, 0.0637760
3737.67, 0.0638850
3740.37, 0.0640490
3743.07, 0.0641030
3745.78, 0.0642670
3748.49, 0.0644310
3751.2, 0.0644860
3753.91, 0.0645950
3756.63, 0.0647590
3759.36, 0.0648690
3762.09, 0.0650330
3764.82, 0.0650870
3767.55, 0.0651420
3770.29, 0.0652510
3773.04, 0.0654150
3775.78, 0.0656340
3778.54, 0.0656340
3781.29, 0.0657430
3784.05, 0.0659620
3786.82, 0.0661250
3789.59, 0.0661250
3792.36, 0.0662350
3795.13, 0.0664530
3797.92, 0.0665630
3800.7, 0.0665630
3803.49, 0.0665630
3806.28, 0.0666170
3809.08, 0.0668910
3811.88, 0.0671090
3814.68, 0.0672730
3817.49, 0.0673280
3820.31, 0.0674370
3823.12, 0.0675460
3825.94, 0.0676560
3828.77, 0.0677650
3831.6, 0.0678200
3834.43, 0.0678740
3837.27, 0.0679290
3840.11, 0.0680930
3842.96, 0.0682570
3845.81, 0.0683660
3848.67, 0.0684210
3851.53, 0.0684750
3854.39, 0.0685300
3857.26, 0.0686390
3860.13, 0.0687490
3863.01, 0.0689130
3865.89, 0.0691310
3868.77, 0.0691860
3871.66, 0.0693500
3874.55, 0.0692950
3877.45, 0.0694040
3880.35, 0.0695140
3883.26, 0.0695680
3886.17, 0.0696780
3889.09, 0.0698420
3892.01, 0.0698960
3894.93, 0.0698960
3897.86, 0.0699510
3900.79, 0.0701700
3903.73, 0.0703330
3906.67, 0.0704430
3909.62, 0.0704430
3912.57, 0.0704970
3915.52, 0.0706070
3918.48, 0.0707160
3921.45, 0.0707160
3924.42, 0.0706610
3927.39, 0.0706610
3930.37, 0.0707710
3933.35, 0.0708800
3936.34, 0.0709890
3939.33, 0.0709890
3942.32, 0.0710440
3945.32, 0.0710990
3948.33, 0.0712080
3951.34, 0.0713170
3954.35, 0.0713720
3957.37, 0.0714260
3960.39, 0.0714810
3963.42, 0.0714810
3966.45, 0.0714810
3969.49, 0.0715360
3972.53, 0.0716450
3975.58, 0.0718090
3978.63, 0.0719180
3981.68, 0.0719180
3984.75, 0.0720280
3987.81, 0.0721920
3990.88, 0.0723550
3993.95, 0.0723550
3997.03, 0.0724650
4000.12, 0.0726290
4003.21, 0.0727380
4006.3, 0.0729570
4009.4, 0.0731210
4012.5, 0.0731210
4015.61, 0.0732850
4018.72, 0.0733940
4021.84, 0.0735030
4024.96, 0.0736670
4028.09, 0.0738310
4031.22, 0.0739950
4034.36, 0.0740500
4037.5, 0.0741040
4040.65, 0.0742140
4043.8, 0.0742680
4046.96, 0.0743780
4050.12, 0.0745410
4053.29, 0.0745410
4056.46, 0.0745960
4059.64, 0.0747050
4062.82, 0.0747600
4066.0, 0.0748150
4069.19, 0.0749240
4072.39, 0.0750330
4075.59, 0.0751430
4078.8, 0.0753070
4082.01, 0.0753610
4085.23, 0.0755250
4088.45, 0.0756890
4091.68, 0.0757440
4094.91, 0.0757440
4098.15, 0.0759080
4101.39, 0.0760170
4104.63, 0.0761260
4107.89, 0.0762360
4111.14, 0.0763450
4114.41, 0.0764540
4117.67, 0.0766730
4120.95, 0.0768910
4124.23, 0.0771100
4127.51, 0.0772190
4130.8, 0.0772190
4134.09, 0.0773290
4137.39, 0.0774380
4140.7, 0.0776020
4144.01, 0.0777110
4147.32, 0.0778200
4150.64, 0.0779300
4153.97, 0.0779300
4157.3, 0.0780940
4160.64, 0.0782580
4163.98, 0.0783120
4167.33, 0.0783120
4170.68, 0.0784760
4174.04, 0.0786400
4177.4, 0.0786950
4180.77, 0.0787490
4184.14, 0.0788590
4187.52, 0.0788590
4190.91, 0.0789680
4194.3, 0.0790230
4197.69, 0.0790770
4201.1, 0.0791870
4204.5, 0.0793510
4207.92, 0.0793510
4211.34, 0.0793510
4214.76, 0.0792960
4218.19, 0.0791320
4221.62, 0.0791320
4225.06, 0.0791870
4228.51, 0.0790770
4231.96, 0.0790230
4235.42, 0.0788590
4238.88, 0.0786950
4242.35, 0.0784760
4245.83, 0.0781480
4249.31, 0.0776560
4252.79, 0.0767820
4256.28, 0.0756890
4259.78, 0.0745410
4263.29, 0.0736120
4266.79, 0.0731210
4270.31, 0.0731750
4273.83, 0.0740500
4277.35, 0.0754160
4280.89, 0.0769460
4284.42, 0.0780940
4287.97, 0.0786950
4291.52, 0.0791320
4295.07, 0.0794600
4298.63, 0.0796780
4302.2, 0.0798970
4305.78, 0.0801160
4309.35, 0.0802800
4312.94, 0.0804980
4316.53, 0.0805530
4320.13, 0.0806620
4323.73, 0.0807170
4327.34, 0.0807710
4330.96, 0.0808260
4334.58, 0.0808810
4338.21, 0.0808810
4341.84, 0.0808810
4345.48, 0.0809900
4349.12, 0.0810450
4352.77, 0.0809900
4356.43, 0.0809900
4360.1, 0.0809900
4363.76, 0.0809350
4367.44, 0.0809350
4371.12, 0.0809900
4374.81, 0.0810450
4378.51, 0.0809350
4382.21, 0.0807710
4385.92, 0.0808260
4389.63, 0.0808810
4393.35, 0.0808810
4397.08, 0.0809900
4400.81, 0.0810450
4404.55, 0.0809350
4408.29, 0.0808260
4412.04, 0.0808260
4415.8, 0.0808260
4419.57, 0.0808260
4423.34, 0.0808260
4427.12, 0.0808260
4430.9, 0.0808260
4434.69, 0.0808260
4438.49, 0.0807710
4442.29, 0.0807170
4446.1, 0.0806620
4449.92, 0.0806620
4453.74, 0.0807710
4457.57, 0.0807710
4461.41, 0.0807710
4465.25, 0.0808810
4469.1, 0.0808260
4472.95, 0.0807170
4476.82, 0.0807170
4480.69, 0.0808260
4484.56, 0.0808260
4488.44, 0.0808260
4492.33, 0.0808810
4496.23, 0.0809900
4500.13, 0.0810450
4504.04, 0.0810990
4507.96, 0.0811540
4511.88, 0.0811540
4515.81, 0.0812090
4519.75, 0.0812090
4523.69, 0.0812090
4527.65, 0.0813180
4531.6, 0.0813730
4535.57, 0.0813180
4539.54, 0.0813180
4543.52, 0.0813180
4547.5, 0.0813730
4551.5, 0.0813730
4555.5, 0.0814270
4559.5, 0.0814270
4563.52, 0.0813730
4567.54, 0.0812630
4571.56, 0.0813180
4575.6, 0.0813180
4579.64, 0.0812090
4583.69, 0.0811540
4587.75, 0.0811540
4591.81, 0.0812090
4595.88, 0.0811540
4599.96, 0.0810990
4604.04, 0.0810450
4608.14, 0.0809350
4612.24, 0.0807710
4616.34, 0.0806620
4620.46, 0.0806620
4624.58, 0.0806080
4628.71, 0.0804440
4632.84, 0.0803890
4636.99, 0.0803890
4641.14, 0.0803340
4645.3, 0.0802250
4649.47, 0.0801700
4653.64, 0.0801160
4657.82, 0.0800610
4662.01, 0.0799520
4666.21, 0.0797880
4670.41, 0.0797330
4674.62, 0.0796780
4678.84, 0.0795690
4683.07, 0.0794600
4687.3, 0.0794600
4691.54, 0.0794050
4695.79, 0.0794050
4700.05, 0.0794050
4704.31, 0.0794050
4708.59, 0.0793510
4712.87, 0.0793510
4717.15, 0.0794050
4721.45, 0.0794050
4725.76, 0.0792960
4730.07, 0.0792410
4734.39, 0.0791870
4738.72, 0.0791870
4743.05, 0.0790770
4747.39, 0.0790230
4751.75, 0.0789130
4756.1, 0.0789130
4760.47, 0.0789130
4764.85, 0.0788590
4769.23, 0.0788040
4773.62, 0.0787490
4778.02, 0.0786950
4782.43, 0.0786400
4786.85, 0.0785850
4791.27, 0.0785310
4795.7, 0.0784220
4800.14, 0.0783120
4804.59, 0.0782030
4809.05, 0.0780940
4813.51, 0.0779840
4817.99, 0.0778750
4822.47, 0.0777660
4826.96, 0.0777110
4831.46, 0.0776020
4835.96, 0.0774930
4840.48, 0.0773290
4845.0, 0.0771650
4849.54, 0.0771100
4854.08, 0.0769460
4858.63, 0.0768370
4863.18, 0.0766180
4867.75, 0.0764000
4872.33, 0.0763450
4876.91, 0.0762360
4881.5, 0.0760720
4886.1, 0.0759080
4890.71, 0.0756890
4895.33, 0.0754700
4899.96, 0.0751970
4904.59, 0.0749240
4909.24, 0.0747600
4913.89, 0.0746510
4918.55, 0.0744870
4923.22, 0.0743230
4927.9, 0.0742140
4932.59, 0.0741040
4937.29, 0.0738860
4942.0, 0.0737220
4946.71, 0.0737220
4951.44, 0.0736120
4956.17, 0.0734480
4960.91, 0.0733390
4965.67, 0.0731750
4970.43, 0.0730660
4975.2, 0.0729020
4979.98, 0.0727380
4984.76, 0.0726290
4989.56, 0.0725190
4994.37, 0.0723010
4999.18, 0.0721920
5004.01, 0.0721370
5008.84, 0.0720820
5013.69, 0.0719180
5018.54, 0.0717000
5023.4, 0.0715900
5028.28, 0.0715900
5033.16, 0.0715900
5038.05, 0.0715900
5042.95, 0.0715360
5047.86, 0.0715360
5052.78, 0.0714810
5057.71, 0.0714260
5062.65, 0.0713170
5067.6, 0.0712630
5072.56, 0.0712630
5077.53, 0.0712080
5082.5, 0.0711530
5087.49, 0.0712080
5092.49, 0.0712080
5097.5, 0.0710990
5102.51, 0.0710440
5107.54, 0.0710440
5112.58, 0.0710440
5117.62, 0.0709890
5122.68, 0.0709890
5127.75, 0.0709890
5132.82, 0.0709350
5137.91, 0.0709350
5143.01, 0.0708250
5148.12, 0.0707160
5153.23, 0.0707710
5158.36, 0.0707710
5163.5, 0.0707710
5168.65, 0.0707710
5173.81, 0.0707160
5178.98, 0.0707160
5184.15, 0.0706610
5189.34, 0.0706070
5194.54, 0.0705520
5199.75, 0.0703880
5204.98, 0.0703880
5210.21, 0.0701700
5215.45, 0.0700060
5220.7, 0.0701150
5225.96, 0.0701700
5231.23, 0.0700060
5236.52, 0.0697320
5241.81, 0.0696230
5247.12, 0.0695140
5252.44, 0.0694590
5257.76, 0.0695140
5263.1, 0.0694590
5268.45, 0.0692400
5273.81, 0.0690220
5279.18, 0.0688580
5284.56, 0.0687490
5289.95, 0.0684750
5295.36, 0.0685300
5300.77, 0.0686940
5306.2, 0.0685850
5311.63, 0.0684750
5317.08, 0.0684210
5322.54, 0.0684210
5328.01, 0.0683110
5333.49, 0.0681480
5338.98, 0.0680380
5344.49, 0.0677650
5350.0, 0.0672730
5355.53, 0.0673820
5361.07, 0.0676560
5366.62, 0.0676560
5372.18, 0.0674920
5377.75, 0.0675460
5383.34, 0.0674920
5388.93, 0.0673280
5394.54, 0.0672180
5400.16, 0.0671640
5405.79, 0.0670000
5411.44, 0.0667270
5417.09, 0.0661800
5422.76, 0.0656880
5428.43, 0.0660710
5434.12, 0.0661250
5439.83, 0.0658520
5445.54, 0.0655790
5451.26, 0.0652510
5457.0, 0.0647050
5462.75, 0.0638850
5468.52, 0.0636120
5474.29, 0.0633930
5480.08, 0.0628470
5485.88, 0.0627370
5491.69, 0.0625730
5497.51, 0.0622450
5503.35, 0.0617540
5509.2, 0.0613710
5515.06, 0.0608790
5520.93, 0.0603870
5526.82, 0.0600050
5532.71, 0.0597320
5538.63, 0.0594040
5544.55, 0.0589660
5550.49, 0.0583650
5556.44, 0.0580370
5562.4, 0.0579280
5568.37, 0.0577100
5574.36, 0.0569990
5580.36, 0.0566170
5586.37, 0.0569990
5592.4, 0.0572720
5598.44, 0.0571080
5604.49, 0.0570540
5610.56, 0.0571080
5616.63, 0.0570540
5622.73, 0.0572180
5628.83, 0.0571630
5634.95, 0.0566170
5641.08, 0.0559060
5647.23, 0.0563980
5653.39, 0.0568900
5659.56, 0.0571080
5665.74, 0.0574910
5671.94, 0.0571630
5678.15, 0.0572180
5684.38, 0.0574910
5690.62, 0.0573270
5696.87, 0.0574360
5703.14, 0.0572720
5709.42, 0.0565620
5715.72, 0.0567800
5722.03, 0.0572180
5728.35, 0.0573820
5734.69, 0.0573270
5741.03, 0.0571080
5747.4, 0.0567800
5753.78, 0.0570540
5760.17, 0.0562890
5766.58, 0.0550860
5773.0, 0.0562340
5779.44, 0.0571080
5785.88, 0.0572180
5792.35, 0.0571630
5798.83, 0.0569990
5805.32, 0.0569440
5811.83, 0.0564530
5818.35, 0.0551410
5824.89, 0.0549220
5831.45, 0.0559060
5838.01, 0.0565070
5844.59, 0.0566710
5851.19, 0.0562890
5857.8, 0.0556880
5864.43, 0.0551960
5871.07, 0.0549770
5877.73, 0.0531190
5884.4, 0.0527910
5891.09, 0.0531190
5897.79, 0.0527910
5904.5, 0.0538840
5911.23, 0.0539930
5917.98, 0.0535560
5924.75, 0.0530100
5931.53, 0.0513700
5938.32, 0.0504410
5945.13, 0.0516430
5951.96, 0.0519170
5958.8, 0.0515890
5965.65, 0.0505500
5972.53, 0.0503320
5979.42, 0.0504960
5986.32, 0.0497310
5993.24, 0.0496210
6000.18, 0.0501680
6007.13, 0.0498950
6014.1, 0.0494030
6021.08, 0.0495670
6028.09, 0.0497310
6035.1, 0.0494570
6042.14, 0.0477630
6049.19, 0.0461790
6056.25, 0.0481460
6063.34, 0.0492940
6070.44, 0.0486380
6077.55, 0.0490200
6084.69, 0.0500590
6091.84, 0.0504410
6099.0, 0.0505500
6106.19, 0.0499490
6113.39, 0.0492390
6120.61, 0.0502230
6127.84, 0.0512060
6135.09, 0.0512610
6142.36, 0.0512060
6149.65, 0.0513700
6156.95, 0.0513160
6164.27, 0.0517530
6171.61, 0.0522990
6178.97, 0.0518070
6186.34, 0.0514800
6193.73, 0.0527360
6201.14, 0.0533380
6208.57, 0.0536110
6216.01, 0.0539930
6223.47, 0.0544850
6230.95, 0.0548130
6238.45, 0.0550860
6245.97, 0.0553600
6253.5, 0.0557420
6261.06, 0.0560700
6268.63, 0.0564530
6276.21, 0.0566710
6283.82, 0.0569990
6291.45, 0.0573820
6299.1, 0.0577640
6306.76, 0.0580920
6314.44, 0.0585290
6322.14, 0.0588030
6329.86, 0.0591300
6337.6, 0.0584200
6345.35, 0.0580370
6353.13, 0.0595680
6360.92, 0.0601140
6368.74, 0.0595680
6376.57, 0.0602780
6384.43, 0.0609340
6392.3, 0.0612070
6400.19, 0.0609340
6408.1, 0.0586390
6416.03, 0.0578730
6423.98, 0.0600590
6431.95, 0.0610430
6439.94, 0.0616440
6447.95, 0.0620270
6455.98, 0.0621910
6464.03, 0.0620810
6472.1, 0.0613160
6480.19, 0.0604420
6488.31, 0.0589660
6496.44, 0.0588570
6504.59, 0.0608790
6512.76, 0.0613160
6520.95, 0.0606060
6529.16, 0.0610980
6537.4, 0.0610980
6545.65, 0.0604970
6553.92, 0.0600050
6562.22, 0.0596770
6570.54, 0.0585290
6578.88, 0.0589660
6587.23, 0.0595130
6595.61, 0.0596220
6604.02, 0.0599500
6612.44, 0.0597860
6620.89, 0.0594580
6629.35, 0.0580920
6637.84, 0.0570540
6646.35, 0.0585840
6654.88, 0.0598410
6663.44, 0.0595680
6672.01, 0.0589120
6680.61, 0.0583110
6689.23, 0.0586930
6697.88, 0.0590210
6706.54, 0.0582560
6715.23, 0.0578190
6723.94, 0.0578730
6732.67, 0.0578730
6741.42, 0.0576550
6750.2, 0.0573270
6759.0, 0.0572180
6767.82, 0.0567260
6776.67, 0.0561250
6785.54, 0.0553050
6794.44, 0.0554140
6803.35, 0.0562890
6812.29, 0.0562890
6821.26, 0.0556330
6830.24, 0.0554140
6839.25, 0.0557420
6848.29, 0.0553050
6857.35, 0.0538840
6866.43, 0.0536110
6875.54, 0.0551410
6884.67, 0.0556880
6893.82, 0.0556880
6903.0, 0.0554140
6912.2, 0.0554140
6921.43, 0.0555240
6930.69, 0.0555240
6939.96, 0.0554690
6949.27, 0.0548680
6958.59, 0.0538840
6967.95, 0.0543210
6977.33, 0.0547580
6986.73, 0.0545400
6996.16, 0.0545950
7005.61, 0.0547580
7015.09, 0.0545950
7024.6, 0.0545950
7034.13, 0.0544310
7043.69, 0.0537750
7053.27, 0.0542670
7062.88, 0.0549770
7072.52, 0.0551960
7082.18, 0.0552500
7091.87, 0.0552500
7101.58, 0.0550860
7111.32, 0.0547040
7121.09, 0.0545400
7130.88, 0.0545950
7140.71, 0.0542670
7150.56, 0.0538840
7160.43, 0.0536110
7170.33, 0.0532280
7180.27, 0.0533380
7190.23, 0.0532830
7200.21, 0.0526820
7210.23, 0.0521900
7220.27, 0.0521900
7230.34, 0.0519170
7240.44, 0.0515890
7250.56, 0.0513160
7260.72, 0.0509880
7270.9, 0.0504960
7281.12, 0.0502770
7291.36, 0.0503320
7301.63, 0.0501130
7311.93, 0.0500040
7322.25, 0.0498950
7332.61, 0.0495120
7343.0, 0.0494030
7353.41, 0.0495670
7363.86, 0.0497310
7374.33, 0.0496760
7384.83, 0.0495670
7395.37, 0.0496210
7405.93, 0.0496760
7416.53, 0.0495670
7427.15, 0.0494030
7437.81, 0.0492390
7448.5, 0.0492390
7459.22, 0.0490750
7469.96, 0.0489110
7480.74, 0.0489660
7491.55, 0.0490750
7502.39, 0.0492390
7513.27, 0.0492390
7524.17, 0.0492940
7535.11, 0.0493480
7546.08, 0.0493480
7557.08, 0.0492390
7568.11, 0.0490750
7579.17, 0.0490200
7590.27, 0.0491840
7601.4, 0.0493480
7612.56, 0.0495120
7623.76, 0.0496760
7634.98, 0.0498400
7646.24, 0.0500040
7657.54, 0.0501680
7668.87, 0.0503870
7680.23, 0.0505500
7691.62, 0.0506600
7703.05, 0.0507140
7714.51, 0.0508240
7726.01, 0.0508780
7737.54, 0.0509330
7749.11, 0.0509880
7760.71, 0.0508780
7772.35, 0.0507690
7784.02, 0.0507140
7795.72, 0.0506050
7807.46, 0.0505500
7819.23, 0.0505500
7831.04, 0.0506600
7842.89, 0.0506600
7854.77, 0.0506600
7866.69, 0.0506050
7878.65, 0.0506050
7890.64, 0.0506050
7902.67, 0.0506600
7914.74, 0.0506600
7926.84, 0.0506600
7938.98, 0.0507140
7951.16, 0.0507690
7963.37, 0.0506600
7975.62, 0.0505500
7987.91, 0.0504410
8000.24, 0.0504410
8012.6, 0.0503320
8025.01, 0.0502770
8037.45, 0.0501680
8049.93, 0.0501130
8062.45, 0.0502230
8075.01, 0.0503870
8087.61, 0.0504960
8100.24, 0.0504960
8112.91, 0.0504960
8125.63, 0.0507140
8138.39, 0.0509880
8151.18, 0.0510970
8164.02, 0.0510420
8176.9, 0.0509330
8189.81, 0.0508240
8202.77, 0.0505500
8215.77, 0.0503320
8228.82, 0.0500040
8241.9, 0.0494570
8255.02, 0.0489660
8268.19, 0.0483650
8281.39, 0.0478180
8294.65, 0.0474350
8307.94, 0.0470530
8321.28, 0.0465610
8334.66, 0.0461240
8348.08, 0.0458510
8361.54, 0.0455770
8375.05, 0.0451400
8388.6, 0.0445940
8402.2, 0.0441570
8415.84, 0.0437740
8429.52, 0.0433910
8443.25, 0.0429540
8457.02, 0.0424620
8470.84, 0.0420800
8484.7, 0.0416970
8498.61, 0.0411510
8512.57, 0.0407140
8526.57, 0.0403310
8540.62, 0.0398940
8554.71, 0.0393470
8568.85, 0.0386920
8583.04, 0.0378170
8597.27, 0.0368340
8611.55, 0.0358500
8625.88, 0.0350850
8640.26, 0.0351390
8654.68, 0.0356860
8669.16, 0.0362870
8683.68, 0.0366150
8698.25, 0.0367790
8712.87, 0.0367790
8727.53, 0.0367240
8742.25, 0.0366700
8757.02, 0.0366700
8771.83, 0.0365060
8786.7, 0.0364510
8801.62, 0.0364510
8816.59, 0.0365060
8831.61, 0.0365600
8846.68, 0.0365600
8861.8, 0.0366150
8876.97, 0.0367240
8892.2, 0.0368340
8907.48, 0.0368880
8922.81, 0.0369430
8938.2, 0.0370520
8953.63, 0.0372710
8969.13, 0.0374350
8984.67, 0.0374890
9000.27, 0.0375440
9015.92, 0.0377080
9031.63, 0.0378720
9047.39, 0.0379270
9063.21, 0.0379270
9079.08, 0.0380360
9095.01, 0.0380900
9111.0, 0.0382000
9127.04, 0.0383090
9143.13, 0.0383090
9159.28, 0.0383090
9175.49, 0.0383640
9191.76, 0.0383090
9208.09, 0.0382540
9224.47, 0.0382540
9240.92, 0.0382540
9257.42, 0.0381450
9273.98, 0.0379810
9290.6, 0.0377630
9307.28, 0.0376530
9324.02, 0.0374350
9340.82, 0.0368880
9357.68, 0.0362870
9374.6, 0.0354670
9391.58, 0.0345380
9408.62, 0.0336640
9425.73, 0.0329530
9442.9, 0.0322430
9460.13, 0.0315330
9477.42, 0.0308220
9494.78, 0.0302210
9512.2, 0.0297290
9529.69, 0.0294010
9547.24, 0.0289640
9564.86, 0.0285270
9582.54, 0.0281990
9600.28, 0.0279260
9618.1, 0.0277070
9635.97, 0.0275980
9653.92, 0.0274340
9671.93, 0.0272150
9690.01, 0.0271610
9708.16, 0.0270510
9726.37, 0.0266690
9744.65, 0.0264500
9763.0, 0.0265050
9781.43, 0.0264500
9799.92, 0.0261770
9818.48, 0.0260130
9837.1, 0.0257940
9855.8, 0.0256300
9874.58, 0.0255760
9893.42, 0.0255210
9912.34, 0.0253570
9931.33, 0.0251930
9950.39, 0.0251390
9969.52, 0.0249750
9988.74, 0.0248110
10008.0, 0.0248110
10027.4, 0.0247010
10046.8, 0.0244830
10066.3, 0.0243740
10085.9, 0.0243190
10105.6, 0.0243190
10125.3, 0.0242100
10145.1, 0.0242640
10165.0, 0.0244280
10185.0, 0.0244830
10205.0, 0.0243740
10225.2, 0.0242640
10245.4, 0.0241550
10265.7, 0.0242640
10286.0, 0.0242640
10306.5, 0.0241550
10327.0, 0.0241000
10347.6, 0.0242100
10368.3, 0.0243190
10389.1, 0.0243740
10409.9, 0.0244280
10430.9, 0.0244280
10451.9, 0.0243190
10473.0, 0.0243190
10494.2, 0.0244830
10515.5, 0.0247560
10536.9, 0.0247010
10558.4, 0.0244830
10579.9, 0.0246470
10601.5, 0.0248650
10623.3, 0.0250840
10645.1, 0.0252480
10667.0, 0.0254670
10689.0, 0.0256850
10711.1, 0.0260130
10733.2, 0.0265590
10755.5, 0.0271610
10777.9, 0.0280350
10800.3, 0.0288550
10822.9, 0.0297290
10845.5, 0.0306580
10868.2, 0.0316970
10891.1, 0.0325710
10914.0, 0.0335550
10937.0, 0.0345380
10960.2, 0.0349750
10983.4, 0.0353030
11006.7, 0.0357950
11030.1, 0.0361230
11053.6, 0.0362320
11077.3, 0.0363960
11101.0, 0.0366700
11124.8, 0.0369430
11148.7, 0.0371070
11172.7, 0.0371070
11196.9, 0.0372160
11221.1, 0.0374350
11245.4, 0.0376530
11269.9, 0.0376530
11294.4, 0.0374350
11319.1, 0.0371610
11343.9, 0.0369430
11368.8, 0.0366700
11393.7, 0.0364510
11418.8, 0.0361230
11444.0, 0.0355770
11469.4, 0.0349210
11494.8, 0.0345930
11520.3, 0.0343740
11546.0, 0.0339920
11571.8, 0.0336640
11597.7, 0.0333360
11623.7, 0.0330630
11649.8, 0.0327900
11676.0, 0.0326260
11702.4, 0.0324620
11728.9, 0.0323520
11755.5, 0.0325160
11782.2, 0.0327350
11809.0, 0.0328990
11836.0, 0.0334450
11863.0, 0.0340460
11890.3, 0.0347020
11917.6, 0.0355220
11945.0, 0.0365600
11972.6, 0.0378170
12000.4, 0.0391290
12028.2, 0.0405500
12056.2, 0.0419160
12084.3, 0.0432820
12112.5, 0.0447030
12140.9, 0.0456870
12169.4, 0.0466160
12198.0, 0.0476540
12226.8, 0.0484740
12255.7, 0.0490750
12284.7, 0.0496210
12313.9, 0.0501680
12343.2, 0.0506600
12372.7, 0.0512060
12402.3, 0.0519170
12432.0, 0.0523540
12461.9, 0.0524090
12491.9, 0.0522450
12522.1, 0.0517530
12552.4, 0.0509880
12582.9, 0.0501680
12613.5, 0.0494030
12644.3, 0.0485830
12675.2, 0.0478730
12706.3, 0.0473260
12737.5, 0.0469440
12768.9, 0.0465060
12800.4, 0.0457960
12832.1, 0.0449220
12863.9, 0.0440470
12895.9, 0.0432270
12928.1, 0.0421350
12960.4, 0.0412600
12992.9, 0.0403860
13025.5, 0.0396210
13058.3, 0.0389650
13091.3, 0.0383640
13124.4, 0.0376530
13157.8, 0.0368880
13191.2, 0.0361230
13224.9, 0.0354130
13258.7, 0.0350850
13292.7, 0.0348660
13326.9, 0.0342650
13361.2, 0.0335550
13395.7, 0.0328440
13430.4, 0.0321880
13465.3, 0.0318600
13500.4, 0.0313140
13535.7, 0.0308220
13571.1, 0.0303850
13606.7, 0.0297840
13642.5, 0.0293470
13678.5, 0.0286360
13714.7, 0.0280900
13751.1, 0.0276520
13787.6, 0.0272700
13824.4, 0.0268870
13861.4, 0.0262860
13898.5, 0.0258490
13935.9, 0.0253030
13973.5, 0.0247560
14011.2, 0.0243190
14049.2, 0.0237180
14087.4, 0.0231710
14125.8, 0.0228980
14164.3, 0.0225700
14203.2, 0.0218050
14242.2, 0.0213130
14281.4, 0.0210400
14320.9, 0.0207670
14360.5, 0.0206030
14400.4, 0.0206030
14440.5, 0.0204390
14480.9, 0.0202750
14521.4, 0.0201110
14562.2, 0.0198380
14603.3, 0.0197830
14644.5, 0.0199470
14686.0, 0.0200560
14727.7, 0.0203840
14769.7, 0.0208210
14811.9, 0.0212040
14854.3, 0.0215860
14897.0, 0.0219140
14939.9, 0.0222420
14983.1, 0.0227890
15026.5, 0.0233900
15070.2, 0.0237720
15114.2, 0.0242100
15158.3, 0.0246470
15202.8, 0.0251390
15247.5, 0.0255760
15292.5, 0.0260130
15337.7, 0.0263960
15383.2, 0.0267780
15429.0, 0.0273250
15475.1, 0.0279800
15521.4, 0.0285820
15568.0, 0.0290730
15614.9, 0.0295110
15662.1, 0.0297840
15709.6, 0.0298930
15757.3, 0.0300020
15805.4, 0.0302760
15853.7, 0.0304940
15902.3, 0.0308220
15951.2, 0.0311500
16000.5, 0.0314230
16050.0, 0.0312590
16099.8, 0.0309310
16150.0, 0.0309860
16200.5, 0.0312590
16251.3, 0.0314230
16302.4, 0.0313140
16353.8, 0.0313140
16405.5, 0.0318600
16457.6, 0.0320240
16510.0, 0.0319150
16562.8, 0.0321880
16615.9, 0.0323520
16669.3, 0.0324620
16723.1, 0.0326260
16777.2, 0.0326800
16831.7, 0.0328440
16886.5, 0.0334450
16941.7, 0.0341560
16997.2, 0.0348120
17053.1, 0.0354670
17109.4, 0.0361780
17166.1, 0.0370520
17223.1, 0.0380900
17280.5, 0.0395660
17338.3, 0.0409870
17396.5, 0.0418610
17455.1, 0.0426260
17514.0, 0.0441570
17573.4, 0.0459050
17633.2, 0.0475450
17693.4, 0.0490750
17754.0, 0.0503870
17815.0, 0.0516980
17876.4, 0.0530100
17938.3, 0.0543210
18000.5, 0.0562340
18063.3, 0.0579830
18126.4, 0.0593490
18190.0, 0.0609880
18254.1, 0.0625730
18318.6, 0.0636660
18383.5, 0.0644860
18449.0, 0.0656340
18514.9, 0.0666170
18581.2, 0.0677650
18648.0, 0.0686940
18715.4, 0.0688580
18783.2, 0.0689130
18851.5, 0.0691860
18920.3, 0.0693500
18989.6, 0.0688580
19059.4, 0.0693500
19129.7, 0.0701700
19200.6, 0.0703880
19272.0, 0.0705520
19343.9, 0.0713720
19416.3, 0.0726830
19489.3, 0.0742140
19562.8, 0.0763450
19637.0, 0.0790230
19711.6, 0.0818100
19786.8, 0.0848160
19862.6, 0.0877120
19939.0, 0.0907180
20016.0, 0.0938870
20093.6, 0.0965100
20171.8, 0.0991880
20250.6, 0.102194
20330.0, 0.104926
20410.0, 0.107713
20490.7, 0.110063
20572.0, 0.111484
20654.0, 0.112468
20736.6, 0.114326
20819.9, 0.115856
20903.8, 0.116895
20988.5, 0.118206
21073.8, 0.120174
21159.8, 0.121157
21246.5, 0.122086
21334.0, 0.122578
21422.1, 0.123157
21511.0, 0.124072
21600.7, 0.123433
21691.0, 0.122581
21782.1, 0.122134
21874.0, 0.120238
21966.7, 0.117725
22060.2, 0.118236
22154.5, 0.117406
22249.6, 0.115084
22345.5, 0.114083
22442.2, 0.113742
22539.8, 0.112464
22638.2, 0.111868
22737.5, 0.112421
22837.7, 0.112570
22938.7, 0.113018
23040.7, 0.113103
23143.5, 0.112549
23247.3, 0.112166
23352.1, 0.111569
23457.7, 0.111718
23564.4, 0.112208
23672.0, 0.111186
23780.5, 0.109525
23890.1, 0.109120
24000.7, 0.110036
24112.3, 0.110803
24225.0, 0.112443
24338.7, 0.114424
24453.5, 0.116767
24569.4, 0.119557
24686.4, 0.122262
24804.5, 0.125393
24923.8, 0.129781
25044.2, 0.133657
25165.8, 0.135596
25288.6, 0.134957
25412.5, 0.133487
25537.7, 0.131336
25664.1, 0.127417
25791.8, 0.122731
25920.8, 0.119514
26051.1, 0.118364
26182.6, 0.118747
26315.5, 0.119493
26449.8, 0.119834
26585.4, 0.118343
26722.5, 0.117469
26860.9, 0.118321
27000.8, 0.117661
27142.1, 0.116255
27285.0, 0.115233
27429.4, 0.114424
27575.3, 0.114402
27722.7, 0.114296
27871.8, 0.113359
28022.4, 0.111676
28174.7, 0.110164
28328.7, 0.109738
28484.4, 0.109652
28641.7, 0.109844
28800.9, 0.108417
28961.8, 0.106628
29124.5, 0.105115
29289.0, 0.104136
29455.4, 0.102133
29623.8, 0.100642
29794.0, 0.100515
29966.3, 0.0983210
30140.5, 0.0949980
30316.7, 0.0928470
30495.1, 0.0913560
30675.5, 0.0900560
30858.1, 0.0885230
31042.8, 0.0862220
31229.8, 0.0836020
31419.1, 0.0814510
31610.7, 0.0798960
31804.6, 0.0770210
32000.9, 0.0753810
32199.7, 0.0761900
32400.9, 0.0781920
32604.8, 0.0807480
32811.1, 0.0859450
33020.1, 0.0935280
33231.8, 0.103710
33446.2, 0.113401
33663.4, 0.123689
33883.4, 0.131613
34106.3, 0.137513
34332.1, 0.143179
34561.0, 0.147311
34792.9, 0.150974
35028.0, 0.153743
35266.3, 0.155107
35507.8, 0.155383
35752.7, 0.153786
36001.0, 0.153552
36252.8, 0.155511
36508.1, 0.156172
36767.0, 0.155298
37029.7, 0.154191
37296.1, 0.151826
37566.3, 0.149632
37840.5, 0.149760
38118.8, 0.149143
38401.2, 0.147013
38687.8, 0.144755
38978.6, 0.142092
39273.9, 0.139430
39573.7, 0.137278
39878.1, 0.135532
40187.3, 0.133764
40501.2, 0.131357
40820.0, 0.129035
41144.0, 0.129121
41473.2, 0.130015
41807.6, 0.129206
42147.5, 0.128567
42493.0, 0.127118
42844.2, 0.124605
43201.2, 0.123306
43564.3, 0.122049
43933.5, 0.120302
44309.0, 0.119663
44691.0, 0.118982
45079.6, 0.119003
45475.0, 0.119173
45877.5, 0.119408
46287.1, 0.119386
46704.2, 0.116106
47128.7, 0.113848
47561.1, 0.112421
48001.5, 0.111655
48450.1, 0.110590
48907.2, 0.110568
49373.0, 0.113082
49847.7, 0.113870
50331.5, 0.114786
50825.0, 0.115403
51328.2, 0.113018
51841.5, 0.113486
52365.1, 0.116681
52899.4, 0.117299
53444.8, 0.116724
54001.5, 0.116511
54570.1, 0.113572
55150.6, 0.113295
55743.6, 0.114232
56349.5, 0.113593
56968.7, 0.114615
57601.7, 0.115595
58248.9, 0.114977
58910.9, 0.112208
59588.1, 0.110696
60281.0, 0.110568
60990.2, 0.111718
61716.3, 0.115126
62459.8, 0.117193
63221.6, 0.114104
64002.1, 0.114232
64802.1, 0.113018
65622.1, 0.113465
66463.4, 0.114232
67326.6, 0.111356
68212.4, 0.113763
69121.9, 0.115680
70056.0, 0.114189
71015.7, 0.110866
72002.0, 0.110483
73016.3, 0.114274
74059.4, 0.114487
75132.7, 0.114274
76237.6, 0.116085
77375.5, 0.113188
78547.9, 0.108481
79756.3, 0.112975
81002.5, 0.114274
82288.5, 0.112507
83615.7, 0.112294
84986.5, 0.115744
86402.9, 0.113486
87867.4, 0.110121
89382.4, 0.108843
90950.5, 0.115126
92574.6, 0.121005
94257.2, 0.120388
96002.7, 0.122113
97814.1, 0.122518
99695.1, 0.124626
101650.0, 0.130612
103683.0, 0.128567
105799.0, 0.129632
108003.0, 0.135276
110301.0, 0.132507
112699.0, 0.128354
115204.0, 0.125308
117822.0, 0.127438
120562.0, 0.132848
123433.0, 0.134254
126443.0, 0.133998
129604.0, 0.131187
132926.0, 0.131570
136424.0, 0.141368
140111.0, 0.144904
144003.0, 0.148184
148118.0, 0.144840
152474.0, 0.158664
157095.0, 0.151017
162004.0, 0.131868
167231.0, 0.115297
172805.0, 0.107842
178764.0, 0.132976
185148.0, 0.163115
192005.0, 0.171571
199390.0, 0.135340
207366.0, 0.105371
216006.0, 0.147076
