Database of Origin, USGS Spectral Database
Sample Description, See USGS database for additional info
Date Added,2016-08-03 21:28:29.114135

Data ID,USGS_cov02          
Sample ID, covellite_hs477.6486
Mineral Name, covellite
Material Class,Sulfide

Wavelength
1632.29, 0.0454370
1632.8, 0.0455630
1633.32, 0.0456580
1633.83, 0.0455310
1634.35, 0.0454050
1634.86, 0.0454680
1635.38, 0.0455630
1635.9, 0.0456260
1636.41, 0.0455630
1636.93, 0.0455000
1637.45, 0.0453730
1637.96, 0.0457210
1638.48, 0.0460360
1639.0, 0.0457840
1639.52, 0.0453420
1640.04, 0.0453420
1640.56, 0.0455310
1641.08, 0.0456260
1641.59, 0.0455940
1642.11, 0.0457210
1642.63, 0.0457840
1643.16, 0.0456260
1643.68, 0.0455630
1644.2, 0.0456260
1644.72, 0.0455310
1645.24, 0.0455310
1645.76, 0.0455310
1646.29, 0.0455940
1646.81, 0.0455310
1647.33, 0.0454680
1647.86, 0.0454050
1648.38, 0.0455630
1648.9, 0.0459100
1649.43, 0.0460050
1649.95, 0.0457520
1650.48, 0.0455630
1651.0, 0.0455940
1651.53, 0.0455940
1652.06, 0.0455940
1652.58, 0.0456260
1653.11, 0.0458790
1653.64, 0.0458470
1654.17, 0.0457840
1654.69, 0.0457210
1655.22, 0.0456260
1655.75, 0.0455000
1656.28, 0.0455000
1656.81, 0.0455310
1657.34, 0.0455630
1657.87, 0.0455310
1658.4, 0.0454370
1658.93, 0.0454050
1659.46, 0.0454370
1659.99, 0.0455000
1660.52, 0.0456260
1661.05, 0.0455310
1661.59, 0.0454370
1662.12, 0.0454680
1662.65, 0.0454370
1663.19, 0.0454680
1663.72, 0.0454680
1664.26, 0.0455000
1664.79, 0.0455940
1665.32, 0.0456580
1665.86, 0.0456890
1666.39, 0.0457840
1666.93, 0.0458150
1667.47, 0.0458790
1668.0, 0.0458150
1668.54, 0.0456260
1669.08, 0.0455940
1669.61, 0.0457210
1670.15, 0.0456890
1670.69, 0.0455630
1671.23, 0.0455000
1671.77, 0.0456890
1672.31, 0.0458150
1672.85, 0.0456890
1673.39, 0.0455940
1673.93, 0.0456260
1674.47, 0.0458470
1675.01, 0.0459730
1675.55, 0.0460680
1676.09, 0.0460360
1676.64, 0.0457520
1677.18, 0.0457210
1677.72, 0.0458790
1678.26, 0.0459100
1678.81, 0.0458150
1679.35, 0.0457840
1679.89, 0.0459730
1680.44, 0.0460360
1680.98, 0.0457840
1681.53, 0.0456890
1682.07, 0.0459420
1682.62, 0.0460680
1683.17, 0.0460050
1683.71, 0.0459420
1684.26, 0.0457210
1684.81, 0.0457520
1685.36, 0.0459100
1685.9, 0.0462570
1686.45, 0.0461310
1687.0, 0.0458470
1687.55, 0.0458790
1688.1, 0.0459730
1688.65, 0.0459420
1689.2, 0.0458470
1689.75, 0.0458470
1690.3, 0.0458790
1690.85, 0.0457840
1691.41, 0.0459100
1691.96, 0.0460050
1692.51, 0.0460680
1693.06, 0.0459730
1693.61, 0.0459420
1694.17, 0.0459420
1694.72, 0.0458470
1695.28, 0.0459420
1695.83, 0.0460050
1696.39, 0.0459100
1696.94, 0.0460050
1697.5, 0.0458790
1698.05, 0.0458790
1698.61, 0.0460360
1699.17, 0.0462890
1699.72, 0.0461940
1700.28, 0.0461940
1700.84, 0.0463210
1701.4, 0.0462890
1701.95, 0.0460680
1702.51, 0.0459100
1703.07, 0.0459100
1703.63, 0.0459100
1704.19, 0.0460680
1704.75, 0.0461000
1705.31, 0.0460360
1705.88, 0.0459420
1706.44, 0.0459100
1707.0, 0.0460360
1707.56, 0.0461310
1708.12, 0.0461630
1708.69, 0.0461310
1709.25, 0.0461000
1709.81, 0.0459730
1710.38, 0.0458470
1710.94, 0.0458470
1711.51, 0.0459420
1712.07, 0.0460360
1712.64, 0.0460050
1713.2, 0.0458150
1713.77, 0.0457520
1714.34, 0.0458470
1714.9, 0.0460050
1715.47, 0.0460050
1716.04, 0.0459100
1716.61, 0.0460680
1717.18, 0.0462890
1717.74, 0.0462890
1718.31, 0.0461940
1718.88, 0.0460680
1719.45, 0.0461000
1720.02, 0.0461940
1720.59, 0.0460680
1721.17, 0.0459420
1721.74, 0.0461000
1722.31, 0.0462890
1722.88, 0.0463520
1723.45, 0.0461940
1724.03, 0.0461310
1724.6, 0.0461000
1725.18, 0.0462570
1725.75, 0.0464470
1726.33, 0.0462570
1726.9, 0.0460680
1727.48, 0.0461310
1728.05, 0.0462570
1728.63, 0.0462260
1729.2, 0.0461310
1729.78, 0.0461000
1730.36, 0.0461310
1730.94, 0.0462260
1731.51, 0.0463210
1732.09, 0.0463840
1732.67, 0.0464150
1733.25, 0.0462890
1733.83, 0.0461310
1734.41, 0.0461000
1734.99, 0.0462260
1735.57, 0.0464150
1736.15, 0.0463520
1736.73, 0.0462260
1737.32, 0.0461310
1737.9, 0.0461940
1738.48, 0.0462260
1739.07, 0.0463210
1739.65, 0.0462890
1740.23, 0.0462260
1740.82, 0.0461940
1741.4, 0.0462260
1741.99, 0.0461630
1742.57, 0.0462890
1743.16, 0.0463840
1743.74, 0.0465420
1744.33, 0.0465100
1744.92, 0.0463520
1745.51, 0.0463210
1746.09, 0.0464780
1746.68, 0.0465730
1747.27, 0.0465730
1747.86, 0.0464470
1748.45, 0.0464470
1749.04, 0.0465100
1749.63, 0.0463840
1750.22, 0.0462570
1750.81, 0.0462890
1751.4, 0.0462570
1751.99, 0.0462890
1752.59, 0.0463210
1753.18, 0.0463840
1753.77, 0.0464470
1754.37, 0.0464150
1754.96, 0.0463840
1755.56, 0.0465730
1756.15, 0.0465730
1756.74, 0.0464150
1757.34, 0.0462890
1757.94, 0.0462260
1758.53, 0.0462890
1759.13, 0.0463520
1759.73, 0.0464470
1760.32, 0.0465420
1760.92, 0.0464150
1761.52, 0.0464150
1762.12, 0.0464470
1762.72, 0.0463840
1763.32, 0.0464150
1763.92, 0.0465420
1764.52, 0.0464780
1765.12, 0.0464150
1765.72, 0.0465100
1766.32, 0.0464150
1766.92, 0.0463520
1767.53, 0.0465100
1768.13, 0.0466360
1768.73, 0.0465100
1769.34, 0.0464780
1769.94, 0.0465420
1770.55, 0.0466050
1771.15, 0.0466050
1771.76, 0.0464780
1772.36, 0.0464150
1772.97, 0.0464150
1773.57, 0.0463520
1774.18, 0.0464150
1774.79, 0.0465730
1775.4, 0.0464780
1776.0, 0.0465420
1776.61, 0.0466360
1777.22, 0.0465420
1777.83, 0.0464780
1778.44, 0.0464150
1779.05, 0.0465100
1779.66, 0.0467000
1780.27, 0.0466360
1780.88, 0.0465100
1781.5, 0.0466360
1782.11, 0.0467630
1782.72, 0.0467000
1783.33, 0.0466680
1783.95, 0.0465420
1784.56, 0.0466050
1785.18, 0.0466050
1785.79, 0.0465420
1786.41, 0.0465730
1787.02, 0.0465420
1787.64, 0.0466360
1788.26, 0.0466360
1788.87, 0.0465420
1789.49, 0.0465420
1790.11, 0.0466360
1790.73, 0.0466360
1791.35, 0.0466050
1791.96, 0.0466680
1792.58, 0.0467310
1793.21, 0.0467310
1793.83, 0.0466360
1794.45, 0.0466360
1795.07, 0.0466680
1795.69, 0.0466360
1796.31, 0.0466050
1796.93, 0.0466360
1797.56, 0.0466050
1798.18, 0.0465730
1798.8, 0.0465420
1799.43, 0.0466050
1800.05, 0.0466360
1800.68, 0.0466360
1801.3, 0.0465100
1801.93, 0.0464150
1802.56, 0.0464780
1803.18, 0.0468260
1803.81, 0.0470150
1804.44, 0.0469840
1805.07, 0.0468890
1805.7, 0.0469210
1806.33, 0.0469210
1806.95, 0.0467940
1807.58, 0.0467310
1808.22, 0.0467940
1808.85, 0.0467940
1809.48, 0.0468570
1810.11, 0.0468890
1810.74, 0.0469210
1811.38, 0.0468260
1812.01, 0.0466680
1812.64, 0.0467310
1813.28, 0.0467940
1813.91, 0.0467630
1814.55, 0.0468890
1815.18, 0.0469210
1815.82, 0.0469210
1816.45, 0.0468570
1817.09, 0.0468260
1817.73, 0.0467310
1818.36, 0.0468570
1819.0, 0.0468570
1819.64, 0.0467940
1820.28, 0.0467630
1820.92, 0.0467940
1821.56, 0.0467940
1822.2, 0.0468890
1822.84, 0.0468570
1823.48, 0.0470150
1824.12, 0.0469840
1824.76, 0.0469210
1825.41, 0.0468570
1826.05, 0.0469210
1826.69, 0.0469520
1827.34, 0.0469210
1827.98, 0.0469520
1828.63, 0.0469840
1829.27, 0.0470780
1829.92, 0.0470470
1830.56, 0.0469520
1831.21, 0.0469210
1831.86, 0.0470470
1832.5, 0.0471420
1833.15, 0.0470780
1833.8, 0.0471100
1834.45, 0.0470780
1835.1, 0.0471420
1835.75, 0.0472050
1836.4, 0.0472050
1837.05, 0.0470780
1837.7, 0.0470150
1838.35, 0.0469520
1839.01, 0.0470780
1839.66, 0.0472360
1840.31, 0.0471730
1840.96, 0.0469840
1841.62, 0.0468260
1842.27, 0.0468570
1842.93, 0.0469520
1843.58, 0.0469210
1844.24, 0.0469840
1844.9, 0.0470150
1845.55, 0.0472050
1846.21, 0.0473310
1846.87, 0.0472050
1847.53, 0.0471730
1848.18, 0.0472680
1848.84, 0.0472360
1849.5, 0.0471730
1850.16, 0.0471100
1850.82, 0.0471100
1851.48, 0.0471730
1852.14, 0.0472680
1852.81, 0.0472050
1853.47, 0.0472680
1854.13, 0.0473310
1854.8, 0.0472990
1855.46, 0.0472050
1856.12, 0.0472360
1856.79, 0.0472680
1857.45, 0.0471730
1858.12, 0.0471420
1858.79, 0.0472360
1859.45, 0.0473310
1860.12, 0.0472680
1860.79, 0.0472050
1861.46, 0.0471730
1862.12, 0.0472050
1862.79, 0.0473630
1863.46, 0.0473310
1864.13, 0.0472050
1864.8, 0.0471730
1865.48, 0.0472360
1866.15, 0.0472360
1866.82, 0.0473310
1867.49, 0.0473940
1868.16, 0.0472990
1868.84, 0.0472990
1869.51, 0.0472990
1870.19, 0.0472360
1870.86, 0.0474570
1871.54, 0.0475200
1872.21, 0.0474260
1872.89, 0.0474260
1873.56, 0.0476470
1874.24, 0.0474890
1874.92, 0.0473310
1875.6, 0.0472990
1876.28, 0.0472990
1876.96, 0.0473940
1877.64, 0.0473940
1878.32, 0.0474260
1879.0, 0.0474570
1879.68, 0.0473940
1880.36, 0.0473630
1881.04, 0.0473310
1881.73, 0.0474260
1882.41, 0.0474570
1883.09, 0.0474260
1883.78, 0.0474260
1884.46, 0.0473940
1885.15, 0.0473630
1885.83, 0.0474890
1886.52, 0.0475200
1887.21, 0.0474570
1887.89, 0.0473630
1888.58, 0.0473310
1889.27, 0.0473310
1889.96, 0.0473940
1890.65, 0.0475520
1891.34, 0.0475520
1892.03, 0.0474570
1892.72, 0.0475200
1893.41, 0.0475840
1894.1, 0.0475840
1894.79, 0.0474890
1895.49, 0.0475200
1896.18, 0.0474890
1896.87, 0.0475200
1897.57, 0.0475200
1898.26, 0.0474890
1898.96, 0.0474890
1899.65, 0.0475200
1900.35, 0.0475520
1901.05, 0.0474890
1901.74, 0.0473940
1902.44, 0.0473940
1903.14, 0.0475200
1903.84, 0.0475840
1904.54, 0.0476150
1905.24, 0.0476470
1905.94, 0.0476780
1906.64, 0.0476150
1907.34, 0.0475200
1908.04, 0.0474570
1908.75, 0.0474260
1909.45, 0.0474570
1910.15, 0.0473940
1910.86, 0.0474890
1911.56, 0.0477100
1912.27, 0.0476470
1912.97, 0.0476150
1913.68, 0.0476150
1914.39, 0.0475520
1915.09, 0.0474260
1915.8, 0.0473940
1916.51, 0.0475520
1917.22, 0.0476150
1917.93, 0.0476780
1918.64, 0.0475840
1919.35, 0.0475200
1920.06, 0.0475840
1920.77, 0.0476780
1921.48, 0.0476470
1922.19, 0.0477100
1922.91, 0.0477730
1923.62, 0.0476470
1924.33, 0.0476150
1925.05, 0.0477410
1925.76, 0.0478050
1926.48, 0.0478050
1927.19, 0.0477730
1927.91, 0.0478050
1928.63, 0.0477100
1929.35, 0.0475840
1930.07, 0.0476470
1930.78, 0.0476470
1931.5, 0.0476150
1932.22, 0.0476470
1932.94, 0.0477730
1933.66, 0.0478360
1934.39, 0.0477410
1935.11, 0.0476780
1935.83, 0.0477100
1936.55, 0.0478050
1937.28, 0.0478050
1938.0, 0.0477410
1938.73, 0.0477100
1939.45, 0.0476470
1940.18, 0.0475840
1940.9, 0.0476780
1941.63, 0.0477730
1942.36, 0.0477730
1943.09, 0.0477730
1943.81, 0.0478360
1944.54, 0.0478680
1945.27, 0.0478050
1946.0, 0.0476780
1946.73, 0.0477730
1947.47, 0.0477410
1948.2, 0.0476780
1948.93, 0.0477410
1949.66, 0.0478360
1950.4, 0.0479630
1951.13, 0.0480260
1951.86, 0.0479630
1952.6, 0.0479310
1953.34, 0.0478360
1954.07, 0.0477730
1954.81, 0.0478990
1955.55, 0.0479630
1956.29, 0.0478680
1957.02, 0.0478360
1957.76, 0.0479940
1958.5, 0.0479940
1959.24, 0.0479310
1959.98, 0.0478990
1960.72, 0.0479310
1961.47, 0.0480260
1962.21, 0.0479630
1962.95, 0.0479630
1963.7, 0.0480260
1964.44, 0.0479940
1965.18, 0.0478050
1965.93, 0.0477730
1966.67, 0.0478050
1967.42, 0.0478680
1968.17, 0.0479310
1968.92, 0.0479940
1969.66, 0.0479630
1970.41, 0.0479630
1971.16, 0.0480570
1971.91, 0.0481200
1972.66, 0.0479940
1973.41, 0.0479940
1974.16, 0.0479940
1974.92, 0.0480570
1975.67, 0.0481200
1976.42, 0.0481200
1977.18, 0.0480260
1977.93, 0.0480570
1978.69, 0.0481520
1979.44, 0.0482150
1980.2, 0.0481840
1980.95, 0.0482150
1981.71, 0.0482150
1982.47, 0.0481840
1983.23, 0.0481200
1983.99, 0.0481200
1984.74, 0.0481200
1985.51, 0.0480890
1986.27, 0.0480570
1987.03, 0.0482470
1987.79, 0.0482150
1988.55, 0.0481520
1989.32, 0.0482150
1990.08, 0.0483100
1990.84, 0.0482470
1991.61, 0.0482780
1992.37, 0.0483100
1993.14, 0.0482150
1993.9, 0.0481840
1994.67, 0.0482470
1995.44, 0.0482150
1996.21, 0.0482150
1996.98, 0.0481520
1997.75, 0.0481200
1998.52, 0.0481520
1999.29, 0.0481840
2000.06, 0.0481840
2000.83, 0.0481840
2001.6, 0.0482780
2002.38, 0.0483410
2003.15, 0.0483730
2003.93, 0.0484050
2004.7, 0.0482780
2005.48, 0.0482150
2006.25, 0.0483100
2007.03, 0.0483410
2007.81, 0.0483410
2008.58, 0.0484050
2009.36, 0.0484050
2010.14, 0.0483100
2010.92, 0.0483100
2011.7, 0.0483410
2012.48, 0.0483100
2013.26, 0.0482780
2014.05, 0.0483410
2014.83, 0.0483410
2015.61, 0.0483100
2016.4, 0.0484360
2017.18, 0.0484680
2017.97, 0.0484360
2018.75, 0.0484050
2019.54, 0.0484680
2020.32, 0.0485310
2021.11, 0.0484050
2021.9, 0.0483100
2022.69, 0.0484360
2023.48, 0.0484680
2024.27, 0.0484050
2025.06, 0.0484680
2025.85, 0.0485310
2026.64, 0.0484360
2027.44, 0.0484050
2028.23, 0.0484990
2029.02, 0.0485310
2029.82, 0.0484680
2030.61, 0.0485620
2031.41, 0.0485940
2032.2, 0.0486260
2033.0, 0.0485310
2033.8, 0.0485620
2034.6, 0.0484990
2035.4, 0.0484360
2036.2, 0.0484680
2037.0, 0.0485310
2037.8, 0.0485310
2038.6, 0.0485940
2039.4, 0.0485940
2040.2, 0.0485310
2041.01, 0.0484050
2041.81, 0.0484680
2042.61, 0.0485620
2043.42, 0.0486570
2044.22, 0.0486260
2045.03, 0.0484990
2045.84, 0.0485940
2046.65, 0.0486890
2047.46, 0.0486570
2048.26, 0.0485940
2049.07, 0.0487200
2049.88, 0.0487830
2050.69, 0.0487200
2051.51, 0.0486570
2052.32, 0.0486570
2053.13, 0.0487830
2053.94, 0.0488150
2054.76, 0.0488150
2055.57, 0.0488780
2056.39, 0.0489100
2057.2, 0.0488780
2058.02, 0.0487520
2058.84, 0.0486890
2059.66, 0.0488150
2060.48, 0.0488780
2061.29, 0.0488780
2062.11, 0.0489410
2062.94, 0.0490040
2063.76, 0.0489410
2064.58, 0.0488150
2065.4, 0.0486890
2066.22, 0.0487200
2067.05, 0.0487520
2067.87, 0.0489100
2068.7, 0.0489100
2069.52, 0.0487830
2070.35, 0.0488150
2071.18, 0.0489100
2072.0, 0.0489410
2072.83, 0.0488470
2073.66, 0.0488470
2074.49, 0.0489410
2075.32, 0.0489410
2076.15, 0.0488780
2076.98, 0.0488780
2077.82, 0.0488150
2078.65, 0.0487830
2079.48, 0.0488150
2080.32, 0.0488780
2081.15, 0.0488780
2081.99, 0.0488470
2082.83, 0.0489100
2083.66, 0.0489410
2084.5, 0.0489730
2085.34, 0.0489100
2086.18, 0.0489100
2087.02, 0.0489730
2087.86, 0.0490360
2088.7, 0.0490680
2089.54, 0.0491310
2090.39, 0.0491940
2091.23, 0.0492260
2092.07, 0.0491620
2092.92, 0.0490680
2093.76, 0.0490680
2094.61, 0.0490680
2095.45, 0.0490990
2096.3, 0.0490990
2097.15, 0.0491310
2098.0, 0.0492890
2098.85, 0.0492260
2099.7, 0.0491620
2100.55, 0.0491620
2101.4, 0.0492260
2102.25, 0.0490990
2103.1, 0.0490360
2103.96, 0.0491310
2104.81, 0.0493200
2105.67, 0.0492890
2106.52, 0.0492260
2107.38, 0.0491940
2108.24, 0.0493200
2109.09, 0.0493200
2109.95, 0.0492260
2110.81, 0.0491940
2111.67, 0.0490990
2112.53, 0.0490990
2113.39, 0.0491620
2114.25, 0.0491620
2115.12, 0.0492260
2115.98, 0.0493200
2116.84, 0.0493200
2117.71, 0.0492260
2118.58, 0.0492890
2119.44, 0.0493520
2120.31, 0.0492890
2121.18, 0.0492890
2122.04, 0.0493520
2122.91, 0.0493520
2123.78, 0.0493200
2124.65, 0.0493520
2125.52, 0.0493520
2126.4, 0.0493830
2127.27, 0.0493520
2128.14, 0.0492890
2129.02, 0.0493520
2129.89, 0.0494150
2130.77, 0.0495410
2131.64, 0.0495410
2132.52, 0.0493520
2133.4, 0.0493200
2134.27, 0.0493830
2135.15, 0.0493830
2136.03, 0.0494150
2136.91, 0.0494150
2137.79, 0.0495100
2138.68, 0.0495410
2139.56, 0.0495100
2140.44, 0.0494470
2141.33, 0.0494470
2142.21, 0.0494780
2143.1, 0.0495730
2143.99, 0.0495410
2144.87, 0.0494150
2145.76, 0.0494150
2146.65, 0.0494780
2147.54, 0.0495730
2148.43, 0.0496040
2149.32, 0.0496040
2150.21, 0.0496040
2151.1, 0.0495410
2151.99, 0.0495100
2152.89, 0.0494780
2153.78, 0.0496040
2154.68, 0.0496360
2155.57, 0.0496990
2156.47, 0.0496680
2157.37, 0.0496040
2158.27, 0.0495410
2159.16, 0.0496040
2160.06, 0.0496360
2160.96, 0.0496990
2161.86, 0.0496040
2162.77, 0.0495730
2163.67, 0.0496360
2164.57, 0.0497940
2165.48, 0.0497620
2166.38, 0.0496990
2167.29, 0.0496990
2168.2, 0.0496990
2169.1, 0.0497310
2170.01, 0.0497940
2170.92, 0.0498250
2171.83, 0.0497940
2172.74, 0.0497620
2173.65, 0.0497310
2174.56, 0.0496990
2175.47, 0.0498250
2176.39, 0.0498570
2177.3, 0.0498570
2178.22, 0.0499200
2179.13, 0.0498890
2180.05, 0.0498250
2180.96, 0.0497620
2181.88, 0.0498890
2182.8, 0.0499830
2183.72, 0.0499520
2184.64, 0.0499520
2185.56, 0.0499200
2186.48, 0.0498250
2187.41, 0.0498570
2188.33, 0.0500150
2189.25, 0.0500780
2190.18, 0.0500460
2191.1, 0.0500150
2192.03, 0.0500150
2192.96, 0.0501100
2193.89, 0.0502040
2194.82, 0.0502040
2195.74, 0.0501730
2196.68, 0.0501100
2197.61, 0.0501410
2198.54, 0.0502040
2199.47, 0.0502360
2200.4, 0.0502670
2201.34, 0.0501730
2202.28, 0.0501100
2203.21, 0.0501730
2204.15, 0.0502360
2205.08, 0.0502360
2206.02, 0.0502040
2206.96, 0.0501730
2207.9, 0.0501410
2208.84, 0.0501730
2209.78, 0.0502040
2210.73, 0.0502670
2211.67, 0.0503310
2212.61, 0.0503310
2213.56, 0.0503310
2214.5, 0.0502990
2215.45, 0.0502670
2216.4, 0.0503310
2217.35, 0.0502990
2218.3, 0.0502360
2219.24, 0.0502990
2220.2, 0.0503620
2221.15, 0.0503310
2222.1, 0.0503620
2223.05, 0.0503620
2224.0, 0.0503620
2224.96, 0.0504250
2225.91, 0.0503720
2226.87, 0.0504520
2227.83, 0.0503990
2228.79, 0.0502650
2229.74, 0.0502380
2230.7, 0.0502920
2231.66, 0.0503450
2232.63, 0.0502650
2233.59, 0.0502110
2234.55, 0.0502380
2235.51, 0.0502110
2236.48, 0.0501850
2237.44, 0.0501850
2238.41, 0.0502110
2239.38, 0.0503180
2240.34, 0.0504250
2241.31, 0.0503990
2242.28, 0.0503180
2243.25, 0.0502920
2244.22, 0.0502650
2245.19, 0.0502110
2246.17, 0.0503180
2247.14, 0.0503720
2248.12, 0.0504790
2249.09, 0.0506390
2250.07, 0.0505320
2251.04, 0.0503450
2252.02, 0.0503180
2253.0, 0.0503180
2253.98, 0.0503450
2254.96, 0.0503450
2255.94, 0.0503450
2256.92, 0.0505320
2257.91, 0.0506930
2258.89, 0.0508000
2259.88, 0.0507200
2260.86, 0.0506930
2261.85, 0.0507460
2262.83, 0.0507200
2263.82, 0.0507200
2264.81, 0.0506930
2265.8, 0.0508270
2266.79, 0.0509070
2267.78, 0.0508000
2268.78, 0.0507200
2269.77, 0.0507460
2270.76, 0.0507460
2271.76, 0.0507460
2272.75, 0.0509340
2273.75, 0.0511740
2274.75, 0.0511740
2275.75, 0.0510410
2276.75, 0.0510140
2277.75, 0.0509600
2278.75, 0.0509870
2279.75, 0.0510140
2280.75, 0.0510140
2281.76, 0.0509070
2282.76, 0.0509340
2283.77, 0.0511740
2284.77, 0.0513080
2285.78, 0.0512810
2286.79, 0.0510670
2287.8, 0.0508530
2288.81, 0.0509070
2289.82, 0.0510140
2290.83, 0.0511480
2291.84, 0.0512010
2292.86, 0.0512550
2293.87, 0.0511480
2294.89, 0.0510940
2295.91, 0.0510140
2296.92, 0.0510940
2297.94, 0.0512280
2298.96, 0.0512280
2299.98, 0.0512280
2301.0, 0.0513620
2302.02, 0.0513080
2303.04, 0.0511740
2304.07, 0.0511740
2305.09, 0.0511740
2306.12, 0.0511740
2307.15, 0.0511740
2308.17, 0.0512280
2309.2, 0.0510940
2310.23, 0.0510940
2311.26, 0.0512280
2312.29, 0.0512550
2313.32, 0.0512010
2314.35, 0.0512010
2315.39, 0.0513350
2316.42, 0.0513880
2317.46, 0.0514150
2318.5, 0.0513620
2319.53, 0.0513080
2320.57, 0.0513880
2321.61, 0.0514950
2322.65, 0.0514150
2323.69, 0.0512550
2324.73, 0.0512280
2325.78, 0.0512810
2326.82, 0.0513620
2327.86, 0.0514420
2328.91, 0.0514690
2329.96, 0.0514950
2331.01, 0.0514690
2332.05, 0.0514420
2333.1, 0.0515490
2334.15, 0.0514950
2335.21, 0.0514690
2336.26, 0.0515490
2337.31, 0.0516020
2338.36, 0.0515220
2339.42, 0.0514950
2340.48, 0.0516020
2341.53, 0.0516290
2342.59, 0.0515760
2343.65, 0.0517360
2344.71, 0.0518700
2345.77, 0.0517360
2346.83, 0.0516830
2347.9, 0.0517090
2348.96, 0.0516830
2350.02, 0.0515760
2351.09, 0.0515490
2352.16, 0.0516560
2353.23, 0.0517090
2354.29, 0.0516560
2355.36, 0.0515760
2356.43, 0.0517630
2357.51, 0.0519230
2358.58, 0.0518970
2359.65, 0.0519500
2360.73, 0.0518700
2361.8, 0.0517090
2362.88, 0.0517090
2363.96, 0.0517630
2365.03, 0.0517900
2366.11, 0.0519230
2367.19, 0.0518970
2368.27, 0.0518430
2369.36, 0.0518160
2370.44, 0.0518700
2371.53, 0.0519770
2372.61, 0.0520840
2373.7, 0.0518970
2374.78, 0.0518700
2375.87, 0.0520040
2376.96, 0.0520040
2378.05, 0.0519770
2379.14, 0.0520300
2380.24, 0.0521640
2381.33, 0.0521110
2382.42, 0.0521910
2383.52, 0.0522710
2384.61, 0.0520040
2385.71, 0.0518970
2386.81, 0.0520570
2387.91, 0.0522440
2389.01, 0.0521910
2390.11, 0.0521640
2391.22, 0.0522710
2392.32, 0.0523250
2393.42, 0.0522440
2394.53, 0.0520040
2395.64, 0.0520570
2396.74, 0.0522440
2397.85, 0.0522710
2398.96, 0.0522980
2400.07, 0.0524320
2401.18, 0.0525390
2402.3, 0.0525650
2403.41, 0.0526460
2404.52, 0.0526460
2405.64, 0.0525650
2406.76, 0.0523780
2407.88, 0.0524580
2408.99, 0.0526190
2410.11, 0.0526460
2411.23, 0.0526720
2412.36, 0.0526990
2413.48, 0.0526720
2414.6, 0.0525920
2415.73, 0.0525650
2416.85, 0.0526190
2417.98, 0.0528060
2419.11, 0.0529130
2420.24, 0.0528600
2421.37, 0.0527790
2422.5, 0.0528860
2423.64, 0.0529130
2424.77, 0.0528060
2425.9, 0.0528600
2427.04, 0.0529670
2428.18, 0.0529670
2429.31, 0.0529930
2430.45, 0.0530470
2431.59, 0.0529130
2432.73, 0.0529930
2433.88, 0.0531540
2435.02, 0.0531540
2436.16, 0.0530470
2437.31, 0.0531000
2438.45, 0.0530470
2439.6, 0.0531000
2440.75, 0.0532340
2441.9, 0.0531540
2443.05, 0.0530200
2444.2, 0.0531540
2445.35, 0.0531810
2446.51, 0.0531270
2447.67, 0.0532070
2448.82, 0.0532610
2449.98, 0.0532610
2451.14, 0.0532610
2452.3, 0.0532610
2453.46, 0.0533950
2454.62, 0.0534750
2455.78, 0.0533140
2456.94, 0.0532340
2458.11, 0.0533680
2459.28, 0.0535020
2460.44, 0.0534480
2461.61, 0.0533680
2462.78, 0.0533140
2463.95, 0.0534210
2465.12, 0.0535550
2466.3, 0.0535550
2467.47, 0.0536350
2468.65, 0.0536890
2469.82, 0.0537960
2471.0, 0.0537690
2472.18, 0.0536350
2473.36, 0.0536350
2474.54, 0.0536350
2475.72, 0.0536350
2476.9, 0.0536890
2478.08, 0.0536350
2479.27, 0.0535550
2480.46, 0.0535550
2481.64, 0.0536350
2482.83, 0.0537420
2484.02, 0.0538230
2485.21, 0.0537960
2486.4, 0.0537960
2487.6, 0.0539300
2488.79, 0.0539030
2489.99, 0.0538760
2491.18, 0.0539030
2492.38, 0.0538490
2493.58, 0.0539030
2494.78, 0.0539030
2495.98, 0.0538490
2497.18, 0.0539030
2498.39, 0.0539830
2499.59, 0.0539830
2500.8, 0.0538490
2502.01, 0.0537690
2503.21, 0.0539030
2504.42, 0.0538490
2505.63, 0.0538760
2506.84, 0.0540630
2508.06, 0.0541440
2509.27, 0.0541170
2510.49, 0.0540630
2511.7, 0.0541700
2512.92, 0.0542240
2514.14, 0.0541970
2515.36, 0.0541170
2516.58, 0.0540900
2517.8, 0.0540630
2519.03, 0.0541170
2520.25, 0.0542240
2521.48, 0.0543310
2522.7, 0.0544110
2523.93, 0.0543580
2525.16, 0.0543040
2526.39, 0.0542510
2527.62, 0.0543310
2528.86, 0.0543580
2530.09, 0.0542770
2531.33, 0.0543310
2532.56, 0.0544910
2533.8, 0.0544380
2535.04, 0.0543580
2536.28, 0.0543840
2537.52, 0.0545180
2538.76, 0.0546520
2540.01, 0.0546790
2541.25, 0.0545990
2542.5, 0.0544910
2543.75, 0.0544910
2544.99, 0.0546520
2546.24, 0.0547060
2547.49, 0.0546520
2548.75, 0.0547060
2550.0, 0.0547060
2551.26, 0.0546520
2552.51, 0.0547320
2553.77, 0.0549200
2555.03, 0.0549730
2556.29, 0.0550000
2557.55, 0.0550000
2558.81, 0.0549200
2560.08, 0.0547320
2561.34, 0.0546790
2562.61, 0.0547060
2563.88, 0.0547860
2565.14, 0.0549730
2566.41, 0.0551870
2567.68, 0.0551600
2568.96, 0.0550000
2570.23, 0.0550270
2571.51, 0.0551600
2572.78, 0.0550270
2574.06, 0.0550800
2575.34, 0.0551600
2576.62, 0.0551870
2577.9, 0.0552940
2579.18, 0.0552410
2580.47, 0.0551340
2581.75, 0.0552670
2583.04, 0.0550530
2584.32, 0.0550000
2585.61, 0.0552410
2586.9, 0.0552670
2588.2, 0.0553210
2589.49, 0.0554010
2590.78, 0.0556150
2592.08, 0.0554810
2593.37, 0.0548390
2594.67, 0.0543840
2595.97, 0.0549730
2597.27, 0.0555350
2598.57, 0.0558290
2599.88, 0.0557760
2601.18, 0.0556150
2602.49, 0.0555620
2603.79, 0.0554010
2605.1, 0.0552140
2606.41, 0.0554010
2607.72, 0.0556150
2609.03, 0.0556690
2610.35, 0.0556420
2611.66, 0.0557490
2612.98, 0.0559090
2614.3, 0.0558560
2615.62, 0.0555080
2616.94, 0.0555080
2618.26, 0.0557220
2619.58, 0.0556420
2620.91, 0.0557220
2622.23, 0.0560970
2623.56, 0.0562570
2624.89, 0.0562040
2626.22, 0.0559630
2627.55, 0.0561230
2628.88, 0.0559900
2630.21, 0.0556690
2631.55, 0.0559900
2632.89, 0.0562840
2634.22, 0.0562300
2635.56, 0.0563370
2636.9, 0.0564440
2638.25, 0.0564710
2639.59, 0.0565510
2640.93, 0.0566050
2642.28, 0.0565250
2643.63, 0.0564980
2644.98, 0.0564180
2646.33, 0.0563910
2647.68, 0.0564440
2649.03, 0.0565510
2650.39, 0.0565780
2651.74, 0.0564710
2653.1, 0.0564980
2654.46, 0.0564710
2655.82, 0.0565250
2657.18, 0.0567390
2658.54, 0.0567120
2659.9, 0.0565780
2661.27, 0.0565250
2662.64, 0.0565780
2664.01, 0.0561770
2665.38, 0.0558830
2666.74, 0.0560160
2668.12, 0.0562570
2669.49, 0.0559090
2670.87, 0.0558830
2672.24, 0.0564710
2673.62, 0.0565780
2675.0, 0.0564710
2676.38, 0.0563370
2677.76, 0.0564440
2679.15, 0.0565250
2680.54, 0.0568190
2681.92, 0.0568990
2683.31, 0.0568190
2684.7, 0.0567650
2686.09, 0.0567920
2687.48, 0.0568720
2688.88, 0.0568720
2690.27, 0.0568720
2691.67, 0.0567650
2693.07, 0.0564980
2694.47, 0.0564440
2695.87, 0.0566320
2697.27, 0.0567920
2698.67, 0.0568190
2700.08, 0.0568190
2701.49, 0.0567920
2702.9, 0.0568460
2704.31, 0.0568460
2705.72, 0.0568720
2707.13, 0.0568720
2708.54, 0.0566320
2709.96, 0.0564180
2711.38, 0.0566050
2712.8, 0.0570600
2714.22, 0.0572200
2715.64, 0.0572470
2717.06, 0.0571670
2718.49, 0.0569790
2719.91, 0.0565780
2721.34, 0.0568190
2722.77, 0.0570060
2724.2, 0.0567920
2725.63, 0.0570330
2727.07, 0.0573000
2728.5, 0.0573810
2729.94, 0.0573000
2731.38, 0.0572470
2732.82, 0.0571670
2734.26, 0.0569790
2735.7, 0.0570600
2737.15, 0.0571130
2738.59, 0.0567120
2740.04, 0.0565250
2741.49, 0.0567920
2742.94, 0.0571930
2744.39, 0.0573000
2745.84, 0.0573270
2747.3, 0.0573810
2748.76, 0.0573270
2750.21, 0.0573270
2751.67, 0.0571930
2753.14, 0.0569260
2754.6, 0.0565510
2756.06, 0.0565780
2757.53, 0.0568990
2759.0, 0.0569530
2760.46, 0.0568460
2761.94, 0.0566580
2763.41, 0.0567120
2764.88, 0.0568720
2766.36, 0.0569530
2767.83, 0.0569790
2769.31, 0.0569530
2770.79, 0.0568460
2772.27, 0.0570330
2773.76, 0.0571670
2775.24, 0.0571130
2776.73, 0.0570060
2778.22, 0.0570330
2779.71, 0.0570060
2781.2, 0.0568460
2782.69, 0.0567650
2784.18, 0.0567650
2785.68, 0.0565250
2787.18, 0.0563110
2788.68, 0.0564710
2790.18, 0.0566320
2791.68, 0.0565510
2793.19, 0.0564980
2794.69, 0.0563910
2796.2, 0.0563110
2797.71, 0.0561770
2799.22, 0.0560160
2800.73, 0.0558290
2802.24, 0.0555880
2803.76, 0.0554550
2805.28, 0.0555880
2806.8, 0.0556690
2808.32, 0.0555620
2809.84, 0.0555080
2811.36, 0.0554810
2812.89, 0.0552410
2814.42, 0.0550270
2815.94, 0.0550000
2817.48, 0.0548930
2819.01, 0.0546250
2820.54, 0.0544910
2822.08, 0.0545450
2823.61, 0.0544910
2825.15, 0.0543040
2826.69, 0.0540900
2828.23, 0.0539300
2829.78, 0.0538230
2831.32, 0.0536620
2832.87, 0.0536090
2834.42, 0.0535020
2835.97, 0.0533140
2837.52, 0.0531810
2839.08, 0.0530470
2840.63, 0.0529400
2842.19, 0.0528600
2843.75, 0.0527530
2845.31, 0.0525920
2846.87, 0.0524050
2848.44, 0.0522980
2850.0, 0.0521110
2851.57, 0.0519500
2853.14, 0.0518160
2854.71, 0.0516560
2856.28, 0.0515760
2857.86, 0.0515220
2859.43, 0.0514150
2861.01, 0.0512280
2862.59, 0.0510670
2864.17, 0.0510410
2865.76, 0.0510410
2867.34, 0.0509070
2868.93, 0.0507730
2870.52, 0.0506390
2872.11, 0.0504520
2873.7, 0.0504250
2875.29, 0.0503180
2876.89, 0.0502110
2878.49, 0.0501040
2880.08, 0.0499440
2881.69, 0.0499170
2883.29, 0.0498640
2884.89, 0.0496760
2886.5, 0.0495960
2888.11, 0.0495960
2889.72, 0.0494620
2891.33, 0.0493820
2892.94, 0.0493020
2894.56, 0.0492480
2896.17, 0.0491680
2897.79, 0.0490610
2899.42, 0.0490080
2901.04, 0.0489270
2902.66, 0.0488740
2904.29, 0.0487940
2905.92, 0.0486870
2907.55, 0.0486870
2909.18, 0.0486330
2910.81, 0.0485530
2912.45, 0.0484460
2914.08, 0.0483660
2915.72, 0.0482590
2917.36, 0.0482050
2919.01, 0.0482050
2920.65, 0.0481520
2922.3, 0.0480450
2923.94, 0.0479640
2925.59, 0.0478570
2927.25, 0.0478310
2928.9, 0.0478840
2930.56, 0.0478040
2932.21, 0.0476970
2933.87, 0.0477500
2935.53, 0.0477770
2937.2, 0.0476700
2938.86, 0.0475630
2940.53, 0.0475100
2942.2, 0.0474290
2943.87, 0.0473760
2945.54, 0.0473760
2947.22, 0.0473760
2948.89, 0.0473760
2950.57, 0.0473490
2952.25, 0.0472960
2953.93, 0.0472690
2955.62, 0.0472960
2957.3, 0.0472690
2958.99, 0.0472420
2960.68, 0.0472150
2962.37, 0.0472150
2964.07, 0.0471620
2965.76, 0.0471620
2967.46, 0.0471350
2969.16, 0.0471350
2970.86, 0.0471350
2972.56, 0.0472150
2974.27, 0.0472960
2975.98, 0.0473220
2977.69, 0.0473220
2979.4, 0.0472960
2981.11, 0.0472690
2982.83, 0.0473490
2984.54, 0.0474830
2986.26, 0.0475100
2987.98, 0.0474830
2989.71, 0.0474830
2991.43, 0.0474830
2993.16, 0.0475100
2994.89, 0.0475360
2996.62, 0.0475100
2998.35, 0.0475360
3000.09, 0.0475900
3001.83, 0.0475900
3003.57, 0.0476430
3005.31, 0.0477500
3007.05, 0.0477770
3008.79, 0.0477770
3010.54, 0.0478040
3012.29, 0.0478310
3014.04, 0.0478570
3015.8, 0.0478310
3017.55, 0.0478570
3019.31, 0.0478840
3021.07, 0.0479110
3022.83, 0.0479110
3024.59, 0.0479910
3026.36, 0.0480980
3028.13, 0.0480980
3029.9, 0.0481250
3031.67, 0.0481520
3033.44, 0.0482050
3035.22, 0.0481780
3037.0, 0.0482050
3038.78, 0.0482590
3040.56, 0.0483390
3042.34, 0.0483390
3044.13, 0.0483660
3045.92, 0.0484990
3047.71, 0.0485260
3049.5, 0.0484730
3051.3, 0.0485260
3053.09, 0.0486330
3054.89, 0.0486330
3056.69, 0.0486060
3058.5, 0.0485800
3060.3, 0.0486870
3062.11, 0.0487400
3063.92, 0.0487400
3065.73, 0.0487670
3067.55, 0.0487940
3069.36, 0.0487670
3071.18, 0.0487940
3073.0, 0.0488740
3074.82, 0.0489010
3076.65, 0.0489540
3078.48, 0.0489540
3080.31, 0.0489010
3082.14, 0.0489810
3083.97, 0.0490880
3085.8, 0.0489810
3087.64, 0.0489540
3089.48, 0.0490610
3091.33, 0.0491950
3093.17, 0.0491680
3095.02, 0.0491410
3096.87, 0.0491680
3098.72, 0.0491950
3100.57, 0.0492480
3102.43, 0.0493020
3104.28, 0.0493290
3106.14, 0.0494090
3108.01, 0.0494620
3109.87, 0.0494090
3111.74, 0.0493820
3113.61, 0.0494090
3115.48, 0.0494620
3117.35, 0.0495430
3119.23, 0.0495690
3121.1, 0.0495960
3122.98, 0.0496230
3124.87, 0.0497300
3126.75, 0.0497030
3128.64, 0.0497030
3130.53, 0.0497030
3132.42, 0.0497300
3134.31, 0.0498100
3136.21, 0.0498100
3138.11, 0.0498100
3140.01, 0.0498640
3141.91, 0.0499440
3143.82, 0.0499440
3145.73, 0.0499170
3147.64, 0.0499440
3149.55, 0.0500240
3151.46, 0.0500780
3153.38, 0.0501580
3155.3, 0.0501580
3157.22, 0.0501850
3159.14, 0.0502110
3161.07, 0.0502650
3163.0, 0.0503180
3164.93, 0.0502920
3166.86, 0.0502920
3168.8, 0.0503720
3170.74, 0.0504250
3172.68, 0.0504790
3174.62, 0.0505320
3176.56, 0.0505590
3178.51, 0.0505590
3180.46, 0.0505860
3182.42, 0.0506660
3184.37, 0.0507200
3186.33, 0.0507460
3188.29, 0.0507730
3190.25, 0.0507730
3192.21, 0.0507730
3194.18, 0.0508800
3196.15, 0.0509600
3198.12, 0.0509870
3200.09, 0.0510140
3202.07, 0.0510670
3204.05, 0.0510940
3206.03, 0.0510940
3208.02, 0.0511480
3210.0, 0.0512810
3211.99, 0.0513350
3213.98, 0.0513620
3215.98, 0.0513880
3217.97, 0.0514150
3219.97, 0.0514950
3221.97, 0.0515760
3223.98, 0.0515760
3225.98, 0.0516020
3227.99, 0.0516560
3230.0, 0.0517090
3232.02, 0.0517360
3234.03, 0.0517630
3236.05, 0.0518160
3238.07, 0.0518970
3240.1, 0.0519500
3242.12, 0.0519770
3244.15, 0.0520300
3246.18, 0.0521640
3248.22, 0.0522710
3250.25, 0.0522980
3252.29, 0.0523250
3254.33, 0.0523780
3256.38, 0.0524320
3258.43, 0.0525390
3260.47, 0.0526190
3262.53, 0.0526190
3264.58, 0.0526720
3266.64, 0.0527260
3268.7, 0.0527790
3270.76, 0.0528060
3272.82, 0.0528600
3274.89, 0.0529670
3276.96, 0.0530470
3279.04, 0.0530470
3281.11, 0.0530740
3283.19, 0.0531270
3285.27, 0.0531810
3287.35, 0.0532340
3289.44, 0.0532880
3291.53, 0.0533410
3293.62, 0.0534210
3295.71, 0.0534480
3297.81, 0.0535020
3299.91, 0.0535550
3302.01, 0.0536350
3304.11, 0.0537420
3306.22, 0.0537960
3308.33, 0.0538230
3310.44, 0.0538760
3312.56, 0.0539560
3314.68, 0.0540370
3316.8, 0.0540630
3318.92, 0.0541170
3321.05, 0.0541170
3323.18, 0.0541170
3325.31, 0.0541970
3327.44, 0.0542240
3329.58, 0.0542510
3331.72, 0.0543580
3333.86, 0.0544380
3336.01, 0.0544650
3338.16, 0.0545180
3340.31, 0.0545990
3342.46, 0.0547060
3344.61, 0.0547590
3346.77, 0.0548390
3348.94, 0.0549460
3351.1, 0.0549730
3353.27, 0.0550270
3355.44, 0.0550530
3357.61, 0.0551340
3359.79, 0.0552140
3361.97, 0.0552670
3364.15, 0.0552940
3366.33, 0.0553210
3368.52, 0.0553740
3370.71, 0.0553740
3372.9, 0.0554810
3375.1, 0.0555350
3377.3, 0.0555620
3379.5, 0.0556150
3381.71, 0.0557220
3383.91, 0.0557490
3386.12, 0.0557760
3388.34, 0.0558560
3390.55, 0.0559360
3392.77, 0.0559630
3394.99, 0.0559360
3397.22, 0.0559630
3399.45, 0.0560970
3401.68, 0.0562300
3403.91, 0.0562570
3406.15, 0.0562570
3408.39, 0.0562840
3410.63, 0.0563910
3412.87, 0.0564710
3415.12, 0.0565250
3417.37, 0.0566050
3419.63, 0.0566580
3421.88, 0.0566580
3424.14, 0.0567120
3426.41, 0.0567920
3428.67, 0.0568460
3430.94, 0.0568720
3433.21, 0.0569530
3435.49, 0.0570330
3437.77, 0.0571400
3440.05, 0.0571930
3442.33, 0.0571930
3444.62, 0.0572470
3446.91, 0.0573270
3449.2, 0.0573810
3451.5, 0.0574610
3453.8, 0.0575680
3456.1, 0.0575950
3458.41, 0.0576210
3460.72, 0.0577020
3463.03, 0.0578350
3465.34, 0.0578890
3467.66, 0.0578890
3469.98, 0.0579690
3472.31, 0.0580230
3474.63, 0.0581830
3476.96, 0.0582370
3479.3, 0.0582370
3481.64, 0.0582370
3483.97, 0.0582900
3486.32, 0.0583440
3488.66, 0.0583440
3491.01, 0.0584510
3493.36, 0.0585580
3495.72, 0.0585840
3498.08, 0.0586380
3500.44, 0.0587180
3502.81, 0.0587980
3505.18, 0.0588520
3507.55, 0.0588790
3509.92, 0.0589050
3512.3, 0.0589860
3514.68, 0.0590390
3517.06, 0.0590930
3519.45, 0.0591730
3521.84, 0.0592530
3524.24, 0.0592800
3526.64, 0.0592800
3529.04, 0.0593070
3531.44, 0.0593600
3533.85, 0.0594140
3536.26, 0.0594670
3538.67, 0.0594940
3541.09, 0.0594940
3543.51, 0.0595740
3545.93, 0.0596540
3548.36, 0.0597080
3550.79, 0.0597610
3553.22, 0.0597880
3555.66, 0.0598680
3558.1, 0.0599220
3560.54, 0.0599220
3562.99, 0.0599490
3565.44, 0.0600560
3567.9, 0.0600820
3570.35, 0.0601360
3572.81, 0.0602160
3575.28, 0.0602160
3577.75, 0.0602160
3580.22, 0.0602700
3582.69, 0.0603500
3585.17, 0.0604300
3587.65, 0.0605100
3590.14, 0.0605100
3592.62, 0.0605100
3595.11, 0.0605100
3597.61, 0.0605370
3600.11, 0.0606440
3602.61, 0.0606980
3605.11, 0.0607240
3607.62, 0.0607240
3610.14, 0.0608310
3612.65, 0.0608850
3615.17, 0.0608850
3617.69, 0.0609120
3620.22, 0.0609380
3622.75, 0.0609920
3625.28, 0.0610190
3627.82, 0.0610450
3630.36, 0.0610720
3632.9, 0.0610990
3635.45, 0.0611520
3638.0, 0.0612330
3640.56, 0.0612860
3643.12, 0.0612860
3645.68, 0.0612860
3648.24, 0.0613130
3650.81, 0.0613930
3653.39, 0.0614470
3655.96, 0.0614470
3658.54, 0.0614730
3661.13, 0.0615000
3663.71, 0.0615000
3666.3, 0.0615000
3668.9, 0.0615540
3671.5, 0.0616070
3674.1, 0.0616340
3676.7, 0.0616340
3679.31, 0.0616610
3681.93, 0.0617410
3684.54, 0.0617940
3687.17, 0.0618210
3689.79, 0.0617940
3692.42, 0.0618210
3695.05, 0.0619010
3697.69, 0.0619550
3700.32, 0.0619820
3702.97, 0.0620080
3705.61, 0.0620350
3708.27, 0.0620890
3710.92, 0.0621420
3713.58, 0.0621690
3716.24, 0.0622220
3718.91, 0.0622490
3721.58, 0.0622490
3724.25, 0.0623300
3726.93, 0.0623560
3729.61, 0.0623830
3732.29, 0.0624100
3734.98, 0.0624900
3737.67, 0.0625170
3740.37, 0.0624900
3743.07, 0.0624900
3745.78, 0.0624900
3748.49, 0.0625700
3751.2, 0.0626770
3753.91, 0.0627310
3756.63, 0.0627580
3759.36, 0.0628110
3762.09, 0.0628650
3764.82, 0.0628910
3767.55, 0.0628910
3770.29, 0.0628910
3773.04, 0.0629180
3775.78, 0.0629720
3778.54, 0.0629980
3781.29, 0.0629720
3784.05, 0.0629980
3786.82, 0.0630790
3789.59, 0.0631050
3792.36, 0.0631050
3795.13, 0.0631590
3797.92, 0.0632390
3800.7, 0.0632390
3803.49, 0.0632390
3806.28, 0.0632390
3809.08, 0.0632930
3811.88, 0.0633190
3814.68, 0.0633460
3817.49, 0.0633730
3820.31, 0.0634260
3823.12, 0.0634000
3825.94, 0.0634260
3828.77, 0.0634260
3831.6, 0.0634530
3834.43, 0.0634800
3837.27, 0.0635070
3840.11, 0.0635330
3842.96, 0.0635870
3845.81, 0.0636140
3848.67, 0.0635870
3851.53, 0.0636940
3854.39, 0.0637470
3857.26, 0.0637210
3860.13, 0.0637470
3863.01, 0.0638010
3865.89, 0.0637740
3868.77, 0.0637740
3871.66, 0.0638280
3874.55, 0.0639080
3877.45, 0.0639610
3880.35, 0.0639610
3883.26, 0.0640150
3886.17, 0.0640680
3889.09, 0.0640680
3892.01, 0.0640680
3894.93, 0.0641220
3897.86, 0.0641490
3900.79, 0.0641750
3903.73, 0.0642290
3906.67, 0.0642820
3909.62, 0.0642820
3912.57, 0.0642820
3915.52, 0.0643090
3918.48, 0.0643890
3921.45, 0.0644960
3924.42, 0.0645500
3927.39, 0.0645500
3930.37, 0.0645770
3933.35, 0.0646030
3936.34, 0.0646030
3939.33, 0.0646840
3942.32, 0.0647640
3945.32, 0.0648170
3948.33, 0.0648170
3951.34, 0.0648440
3954.35, 0.0648440
3957.37, 0.0648710
3960.39, 0.0649510
3963.42, 0.0649780
3966.45, 0.0650310
3969.49, 0.0651380
3972.53, 0.0651920
3975.58, 0.0651920
3978.63, 0.0651920
3981.68, 0.0652190
3984.75, 0.0652190
3987.81, 0.0653260
3990.88, 0.0653790
3993.95, 0.0654330
3997.03, 0.0654590
4000.12, 0.0654860
4003.21, 0.0655130
4006.3, 0.0656200
4009.4, 0.0656470
4012.5, 0.0656730
4015.61, 0.0657540
4018.72, 0.0658070
4021.84, 0.0658610
4024.96, 0.0659140
4028.09, 0.0659680
4031.22, 0.0659940
4034.36, 0.0660480
4037.5, 0.0660480
4040.65, 0.0661010
4043.8, 0.0661550
4046.96, 0.0661550
4050.12, 0.0661820
4053.29, 0.0662350
4056.46, 0.0662350
4059.64, 0.0662350
4062.82, 0.0662890
4066.0, 0.0663420
4069.19, 0.0663420
4072.39, 0.0663420
4075.59, 0.0663960
4078.8, 0.0664490
4082.01, 0.0664220
4085.23, 0.0664760
4088.45, 0.0665030
4091.68, 0.0665290
4094.91, 0.0665290
4098.15, 0.0665560
4101.39, 0.0665830
4104.63, 0.0666100
4107.89, 0.0666360
4111.14, 0.0666630
4114.41, 0.0666900
4117.67, 0.0667170
4120.95, 0.0667170
4124.23, 0.0667700
4127.51, 0.0668240
4130.8, 0.0668240
4134.09, 0.0668240
4137.39, 0.0668500
4140.7, 0.0669040
4144.01, 0.0669040
4147.32, 0.0669310
4150.64, 0.0669840
4153.97, 0.0670380
4157.3, 0.0670110
4160.64, 0.0670380
4163.98, 0.0670910
4167.33, 0.0670910
4170.68, 0.0671450
4174.04, 0.0671710
4177.4, 0.0671980
4180.77, 0.0672250
4184.14, 0.0672520
4187.52, 0.0672780
4190.91, 0.0672520
4194.3, 0.0672520
4197.69, 0.0673050
4201.1, 0.0673320
4204.5, 0.0673850
4207.92, 0.0674390
4211.34, 0.0674920
4214.76, 0.0675990
4218.19, 0.0677330
4221.62, 0.0678130
4225.06, 0.0678940
4228.51, 0.0679470
4231.96, 0.0680010
4235.42, 0.0680540
4238.88, 0.0680270
4242.35, 0.0680270
4245.83, 0.0680010
4249.31, 0.0678940
4252.79, 0.0678130
4256.28, 0.0678130
4259.78, 0.0678400
4263.29, 0.0680010
4266.79, 0.0681080
4270.31, 0.0681610
4273.83, 0.0682410
4277.35, 0.0682950
4280.89, 0.0683480
4284.42, 0.0683480
4287.97, 0.0683480
4291.52, 0.0683480
4295.07, 0.0683480
4298.63, 0.0683220
4302.2, 0.0683220
4305.78, 0.0683220
4309.35, 0.0682680
4312.94, 0.0682950
4316.53, 0.0683220
4320.13, 0.0683220
4323.73, 0.0683480
4327.34, 0.0684020
4330.96, 0.0684290
4334.58, 0.0684550
4338.21, 0.0684290
4341.84, 0.0684020
4345.48, 0.0684020
4349.12, 0.0684290
4352.77, 0.0685090
4356.43, 0.0685360
4360.1, 0.0685620
4363.76, 0.0685890
4367.44, 0.0685620
4371.12, 0.0685890
4374.81, 0.0686430
4378.51, 0.0686690
4382.21, 0.0687230
4385.92, 0.0687760
4389.63, 0.0688300
4393.35, 0.0688830
4397.08, 0.0689370
4400.81, 0.0689900
4404.55, 0.0690710
4408.29, 0.0690970
4412.04, 0.0690970
4415.8, 0.0691240
4419.57, 0.0691510
4423.34, 0.0692040
4427.12, 0.0692040
4430.9, 0.0691780
4434.69, 0.0692310
4438.49, 0.0692850
4442.29, 0.0693110
4446.1, 0.0693380
4449.92, 0.0693650
4453.74, 0.0693650
4457.57, 0.0693920
4461.41, 0.0694180
4465.25, 0.0694720
4469.1, 0.0695520
4472.95, 0.0696060
4476.82, 0.0696320
4480.69, 0.0697130
4484.56, 0.0697660
4488.44, 0.0697390
4492.33, 0.0697660
4496.23, 0.0698200
4500.13, 0.0698460
4504.04, 0.0698730
4507.96, 0.0698730
4511.88, 0.0699270
4515.81, 0.0699800
4519.75, 0.0699800
4523.69, 0.0700070
4527.65, 0.0700600
4531.6, 0.0700870
4535.57, 0.0701410
4539.54, 0.0701940
4543.52, 0.0701940
4547.5, 0.0702210
4551.5, 0.0702480
4555.5, 0.0703010
4559.5, 0.0703550
4563.52, 0.0703820
4567.54, 0.0704350
4571.56, 0.0704620
4575.6, 0.0704620
4579.64, 0.0704890
4583.69, 0.0705690
4587.75, 0.0706220
4591.81, 0.0707030
4595.88, 0.0707290
4599.96, 0.0706760
4604.04, 0.0706760
4608.14, 0.0706760
4612.24, 0.0707030
4616.34, 0.0707560
4620.46, 0.0707830
4624.58, 0.0708360
4628.71, 0.0708100
4632.84, 0.0708630
4636.99, 0.0708630
4641.14, 0.0708900
4645.3, 0.0709170
4649.47, 0.0709430
4653.64, 0.0709700
4657.82, 0.0709970
4662.01, 0.0710500
4666.21, 0.0711310
4670.41, 0.0711840
4674.62, 0.0711840
4678.84, 0.0711570
4683.07, 0.0712110
4687.3, 0.0712640
4691.54, 0.0713180
4695.79, 0.0713450
4700.05, 0.0713450
4704.31, 0.0713710
4708.59, 0.0714250
4712.87, 0.0713980
4717.15, 0.0714520
4721.45, 0.0714780
4725.76, 0.0715320
4730.07, 0.0715320
4734.39, 0.0716120
4738.72, 0.0716390
4743.05, 0.0716660
4747.39, 0.0716660
4751.75, 0.0716920
4756.1, 0.0717190
4760.47, 0.0717730
4764.85, 0.0718530
4769.23, 0.0718800
4773.62, 0.0718530
4778.02, 0.0718260
4782.43, 0.0719060
4786.85, 0.0719060
4791.27, 0.0719330
4795.7, 0.0719870
4800.14, 0.0720400
4804.59, 0.0720940
4809.05, 0.0720940
4813.51, 0.0721470
4817.99, 0.0721200
4822.47, 0.0721740
4826.96, 0.0722540
4831.46, 0.0722810
4835.96, 0.0723080
4840.48, 0.0723340
4845.0, 0.0723610
4849.54, 0.0724150
4854.08, 0.0724950
4858.63, 0.0725220
4863.18, 0.0725220
4867.75, 0.0725220
4872.33, 0.0725750
4876.91, 0.0726550
4881.5, 0.0726820
4886.1, 0.0727360
4890.71, 0.0727620
4895.33, 0.0727620
4899.96, 0.0727360
4904.59, 0.0728160
4909.24, 0.0728960
4913.89, 0.0729230
4918.55, 0.0729230
4923.22, 0.0729230
4927.9, 0.0729760
4932.59, 0.0730030
4937.29, 0.0730300
4942.0, 0.0730300
4946.71, 0.0730830
4951.44, 0.0731370
4956.17, 0.0731640
4960.91, 0.0731900
4965.67, 0.0732440
4970.43, 0.0733240
4975.2, 0.0733780
4979.98, 0.0734040
4984.76, 0.0734310
4989.56, 0.0734310
4994.37, 0.0734580
4999.18, 0.0734580
5004.01, 0.0734850
5008.84, 0.0735380
5013.69, 0.0735380
5018.54, 0.0735380
5023.4, 0.0736180
5028.28, 0.0736450
5033.16, 0.0736720
5038.05, 0.0737520
5042.95, 0.0737790
5047.86, 0.0738060
5052.78, 0.0738590
5057.71, 0.0739390
5062.65, 0.0739390
5067.6, 0.0739390
5072.56, 0.0739660
5077.53, 0.0739390
5082.5, 0.0739660
5087.49, 0.0740200
5092.49, 0.0740730
5097.5, 0.0741270
5102.51, 0.0741530
5107.54, 0.0742070
5112.58, 0.0742600
5117.62, 0.0743140
5122.68, 0.0743670
5127.75, 0.0744210
5132.82, 0.0744480
5137.91, 0.0744740
5143.01, 0.0744740
5148.12, 0.0744740
5153.23, 0.0745810
5158.36, 0.0746080
5163.5, 0.0746620
5168.65, 0.0746620
5173.81, 0.0746880
5178.98, 0.0747420
5184.15, 0.0748490
5189.34, 0.0748760
5194.54, 0.0748490
5199.75, 0.0748490
5204.98, 0.0749290
5210.21, 0.0749020
5215.45, 0.0749830
5220.7, 0.0751970
5225.96, 0.0752500
5231.23, 0.0752500
5236.52, 0.0752500
5241.81, 0.0753570
5247.12, 0.0753840
5252.44, 0.0754110
5257.76, 0.0754640
5263.1, 0.0754910
5268.45, 0.0754910
5273.81, 0.0754910
5279.18, 0.0755440
5284.56, 0.0755980
5289.95, 0.0755180
5295.36, 0.0756250
5300.77, 0.0757320
5306.2, 0.0757320
5311.63, 0.0757850
5317.08, 0.0758120
5322.54, 0.0758390
5328.01, 0.0758390
5333.49, 0.0758920
5338.98, 0.0758920
5344.49, 0.0757320
5350.0, 0.0756510
5355.53, 0.0758120
5361.07, 0.0760260
5366.62, 0.0761330
5372.18, 0.0761600
5377.75, 0.0761330
5383.34, 0.0761330
5388.93, 0.0761860
5394.54, 0.0762670
5400.16, 0.0763200
5405.79, 0.0763200
5411.44, 0.0763200
5417.09, 0.0761060
5422.76, 0.0759720
5428.43, 0.0763470
5434.12, 0.0765610
5439.83, 0.0765610
5445.54, 0.0765610
5451.26, 0.0765880
5457.0, 0.0764540
5462.75, 0.0762930
5468.52, 0.0764270
5474.29, 0.0765070
5480.08, 0.0765070
5485.88, 0.0766950
5491.69, 0.0768020
5497.51, 0.0768280
5503.35, 0.0768550
5509.2, 0.0769350
5515.06, 0.0769350
5520.93, 0.0769090
5526.82, 0.0768820
5532.71, 0.0769620
5538.63, 0.0769890
5544.55, 0.0769620
5550.49, 0.0768550
5556.44, 0.0769090
5562.4, 0.0770160
5568.37, 0.0770160
5574.36, 0.0767480
5580.36, 0.0766950
5586.37, 0.0770160
5592.4, 0.0772030
5598.44, 0.0771490
5604.49, 0.0770960
5610.56, 0.0771230
5616.63, 0.0771490
5622.73, 0.0772560
5628.83, 0.0772300
5634.95, 0.0769350
5641.08, 0.0766140
5647.23, 0.0768820
5653.39, 0.0770420
5659.56, 0.0772560
5665.74, 0.0774440
5671.94, 0.0772030
5678.15, 0.0771490
5684.38, 0.0773100
5690.62, 0.0772560
5696.87, 0.0773630
5703.14, 0.0772560
5709.42, 0.0769350
5715.72, 0.0770420
5722.03, 0.0772560
5728.35, 0.0773900
5734.69, 0.0773900
5741.03, 0.0772830
5747.4, 0.0771760
5753.78, 0.0773100
5760.17, 0.0768550
5766.58, 0.0762670
5773.0, 0.0768280
5779.44, 0.0772830
5785.88, 0.0774440
5792.35, 0.0774440
5798.83, 0.0773630
5805.32, 0.0773100
5811.83, 0.0770420
5818.35, 0.0763470
5824.89, 0.0761860
5831.45, 0.0766680
5838.01, 0.0769890
5844.59, 0.0770420
5851.19, 0.0769090
5857.8, 0.0767210
5864.43, 0.0766140
5871.07, 0.0765070
5877.73, 0.0755440
5884.4, 0.0755180
5891.09, 0.0757850
5897.79, 0.0756250
5904.5, 0.0762930
5911.23, 0.0764810
5917.98, 0.0763740
5924.75, 0.0762130
5931.53, 0.0753840
5938.32, 0.0749830
5945.13, 0.0757320
5951.96, 0.0759720
5958.8, 0.0758390
5965.65, 0.0753040
5972.53, 0.0752500
5979.42, 0.0753570
5986.32, 0.0749830
5993.24, 0.0749290
6000.18, 0.0751970
6007.13, 0.0749830
6014.1, 0.0746880
6021.08, 0.0747690
6028.09, 0.0747950
6035.1, 0.0744740
6042.14, 0.0732970
6049.19, 0.0723340
6056.25, 0.0732710
6063.34, 0.0735920
6070.44, 0.0730030
6077.55, 0.0730300
6084.69, 0.0734310
6091.84, 0.0734310
6099.0, 0.0732710
6106.19, 0.0726820
6113.39, 0.0721200
6120.61, 0.0726020
6127.84, 0.0729760
6135.09, 0.0728960
6142.36, 0.0728160
6149.65, 0.0728160
6156.95, 0.0726820
6164.27, 0.0728690
6171.61, 0.0731640
6178.97, 0.0728690
6186.34, 0.0727620
6193.73, 0.0734580
6201.14, 0.0738860
6208.57, 0.0741000
6216.01, 0.0743140
6223.47, 0.0745550
6230.95, 0.0747690
6238.45, 0.0749560
6245.97, 0.0751970
6253.5, 0.0754110
6261.06, 0.0755980
6268.63, 0.0757850
6276.21, 0.0759990
6283.82, 0.0761860
6291.45, 0.0763200
6299.1, 0.0765070
6306.76, 0.0766680
6314.44, 0.0768280
6322.14, 0.0769890
6329.86, 0.0770420
6337.6, 0.0766680
6345.35, 0.0764810
6353.13, 0.0771760
6360.92, 0.0773900
6368.74, 0.0771490
6376.57, 0.0774440
6384.43, 0.0777110
6392.3, 0.0777650
6400.19, 0.0775770
6408.1, 0.0764810
6416.03, 0.0761860
6423.98, 0.0772030
6431.95, 0.0776040
6439.94, 0.0779520
6447.95, 0.0781660
6455.98, 0.0782460
6464.03, 0.0781930
6472.1, 0.0778990
6480.19, 0.0776040
6488.31, 0.0770160
6496.44, 0.0771490
6504.59, 0.0781660
6512.76, 0.0783530
6520.95, 0.0781390
6529.16, 0.0784870
6537.4, 0.0785670
6545.65, 0.0783530
6553.92, 0.0781660
6562.22, 0.0780320
6570.54, 0.0775240
6578.88, 0.0778180
6587.23, 0.0781390
6595.61, 0.0782730
6604.02, 0.0785410
6612.44, 0.0785140
6620.89, 0.0784070
6629.35, 0.0777380
6637.84, 0.0773630
6646.35, 0.0783800
6654.88, 0.0791290
6663.44, 0.0791290
6672.01, 0.0788880
6680.61, 0.0787550
6689.23, 0.0791830
6697.88, 0.0794770
6706.54, 0.0792900
6715.23, 0.0793430
6723.94, 0.0796910
6732.67, 0.0800120
6741.42, 0.0801990
6750.2, 0.0803060
6759.0, 0.0804400
6767.82, 0.0803060
6776.67, 0.0801190
6785.54, 0.0798510
6794.44, 0.0800920
6803.35, 0.0807880
6812.29, 0.0809750
6821.26, 0.0807610
6830.24, 0.0808950
6839.25, 0.0813230
6848.29, 0.0811350
6857.35, 0.0803330
6866.43, 0.0803060
6875.54, 0.0812960
6884.67, 0.0816970
6893.82, 0.0817770
6903.0, 0.0816170
6912.2, 0.0817510
6921.43, 0.0819380
6930.69, 0.0819910
6939.96, 0.0820180
6949.27, 0.0817770
6958.59, 0.0813230
6967.95, 0.0817510
6977.33, 0.0821790
6986.73, 0.0821520
6996.16, 0.0822050
7005.61, 0.0823930
7015.09, 0.0824460
7024.6, 0.0825000
7034.13, 0.0823930
7043.69, 0.0819910
7053.27, 0.0823120
7062.88, 0.0828210
7072.52, 0.0830080
7082.18, 0.0831420
7091.87, 0.0832490
7101.58, 0.0833290
7111.32, 0.0833020
7121.09, 0.0833290
7130.88, 0.0834890
7140.71, 0.0834630
7150.56, 0.0834890
7160.43, 0.0835160
7170.33, 0.0835160
7180.27, 0.0838640
7190.23, 0.0840780
7200.21, 0.0839170
7210.23, 0.0839440
7220.27, 0.0843450
7230.34, 0.0845060
7240.44, 0.0845060
7250.56, 0.0844520
7260.72, 0.0845330
7270.9, 0.0844790
7281.12, 0.0845330
7291.36, 0.0847200
7301.63, 0.0847200
7311.93, 0.0846400
7322.25, 0.0845330
7332.61, 0.0843450
7343.0, 0.0843450
7353.41, 0.0845860
7363.86, 0.0848000
7374.33, 0.0849070
7384.83, 0.0849870
7395.37, 0.0851210
7405.93, 0.0852280
7416.53, 0.0852820
7427.15, 0.0853890
7437.81, 0.0854150
7448.5, 0.0853620
7459.22, 0.0853080
7469.96, 0.0853890
7480.74, 0.0854960
7491.55, 0.0855760
7502.39, 0.0856300
7513.27, 0.0856030
7524.17, 0.0856030
7535.11, 0.0856030
7546.08, 0.0855760
7557.08, 0.0854960
7568.11, 0.0853350
7579.17, 0.0853080
7590.27, 0.0853620
7601.4, 0.0854420
7612.56, 0.0854690
7623.76, 0.0854690
7634.98, 0.0855490
7646.24, 0.0856560
7657.54, 0.0857100
7668.87, 0.0857100
7680.23, 0.0856830
7691.62, 0.0856830
7703.05, 0.0856560
7714.51, 0.0856300
7726.01, 0.0856830
7737.54, 0.0856830
7749.11, 0.0856300
7760.71, 0.0855220
7772.35, 0.0854420
7784.02, 0.0853080
7795.72, 0.0850680
7807.46, 0.0848540
7819.23, 0.0845590
7831.04, 0.0842120
7842.89, 0.0838370
7854.77, 0.0833820
7866.69, 0.0828740
7878.65, 0.0823390
7890.64, 0.0818040
7902.67, 0.0811890
7914.74, 0.0804670
7926.84, 0.0797440
7938.98, 0.0789420
7951.16, 0.0781390
7963.37, 0.0773370
7975.62, 0.0765340
7987.91, 0.0757050
8000.24, 0.0748490
8012.6, 0.0739660
8025.01, 0.0730570
8037.45, 0.0721470
8049.93, 0.0712910
8062.45, 0.0703820
8075.01, 0.0695520
8087.61, 0.0687500
8100.24, 0.0679470
8112.91, 0.0672520
8125.63, 0.0666630
8138.39, 0.0661010
8151.18, 0.0656470
8164.02, 0.0652450
8176.9, 0.0648710
8189.81, 0.0645230
8202.77, 0.0642290
8215.77, 0.0639880
8228.82, 0.0637740
8241.9, 0.0635330
8255.02, 0.0633730
8268.19, 0.0632390
8281.39, 0.0631050
8294.65, 0.0629720
8307.94, 0.0629450
8321.28, 0.0628910
8334.66, 0.0628650
8348.08, 0.0627840
8361.54, 0.0627580
8375.05, 0.0627580
8388.6, 0.0627310
8402.2, 0.0626510
8415.84, 0.0625970
8429.52, 0.0625700
8443.25, 0.0625440
8457.02, 0.0625170
8470.84, 0.0624370
8484.7, 0.0623830
8498.61, 0.0623830
8512.57, 0.0623300
8526.57, 0.0621960
8540.62, 0.0622220
8554.71, 0.0622760
8568.85, 0.0623030
8583.04, 0.0622760
8597.27, 0.0622220
8611.55, 0.0621690
8625.88, 0.0622220
8640.26, 0.0622490
8654.68, 0.0622490
8669.16, 0.0622490
8683.68, 0.0622760
8698.25, 0.0623300
8712.87, 0.0623830
8727.53, 0.0623830
8742.25, 0.0623300
8757.02, 0.0623560
8771.83, 0.0624100
8786.7, 0.0623830
8801.62, 0.0623560
8816.59, 0.0623560
8831.61, 0.0623560
8846.68, 0.0623560
8861.8, 0.0623030
8876.97, 0.0621690
8892.2, 0.0620350
8907.48, 0.0619280
8922.81, 0.0617680
8938.2, 0.0615540
8953.63, 0.0613930
8969.13, 0.0612330
8984.67, 0.0610990
9000.27, 0.0610450
9015.92, 0.0609920
9031.63, 0.0609650
9047.39, 0.0609650
9063.21, 0.0609120
9079.08, 0.0608580
9095.01, 0.0608580
9111.0, 0.0608580
9127.04, 0.0608850
9143.13, 0.0609380
9159.28, 0.0609120
9175.49, 0.0608850
9191.76, 0.0609120
9208.09, 0.0609380
9224.47, 0.0609650
9240.92, 0.0610190
9257.42, 0.0610720
9273.98, 0.0611260
9290.6, 0.0611790
9307.28, 0.0612330
9324.02, 0.0613130
9340.82, 0.0613660
9357.68, 0.0614470
9374.6, 0.0615000
9391.58, 0.0615270
9408.62, 0.0616340
9425.73, 0.0617680
9442.9, 0.0619010
9460.13, 0.0620620
9477.42, 0.0621960
9494.78, 0.0623300
9512.2, 0.0624900
9529.69, 0.0626510
9547.24, 0.0628110
9564.86, 0.0629720
9582.54, 0.0631860
9600.28, 0.0633730
9618.1, 0.0634800
9635.97, 0.0635870
9653.92, 0.0637470
9671.93, 0.0638540
9690.01, 0.0640420
9708.16, 0.0643090
9726.37, 0.0644430
9744.65, 0.0645230
9763.0, 0.0646300
9781.43, 0.0647100
9799.92, 0.0647640
9818.48, 0.0648710
9837.1, 0.0652190
9855.8, 0.0654860
9874.58, 0.0656730
9893.42, 0.0659140
9912.34, 0.0661010
9931.33, 0.0662350
9950.39, 0.0664760
9969.52, 0.0667700
9988.74, 0.0670110
10008.0, 0.0672780
10027.4, 0.0675990
10046.8, 0.0678940
10066.3, 0.0682150
10085.9, 0.0686960
10105.6, 0.0691510
10125.3, 0.0695790
10145.1, 0.0700870
10165.0, 0.0705690
10185.0, 0.0709430
10205.0, 0.0713450
10225.2, 0.0717460
10245.4, 0.0721740
10265.7, 0.0726020
10286.0, 0.0730030
10306.5, 0.0733780
10327.0, 0.0738060
10347.6, 0.0742340
10368.3, 0.0745550
10389.1, 0.0747690
10409.9, 0.0750900
10430.9, 0.0754640
10451.9, 0.0757320
10473.0, 0.0760530
10494.2, 0.0762930
10515.5, 0.0764540
10536.9, 0.0765880
10558.4, 0.0766410
10579.9, 0.0767480
10601.5, 0.0768280
10623.3, 0.0769090
10645.1, 0.0770420
10667.0, 0.0772030
10689.0, 0.0773100
10711.1, 0.0774700
10733.2, 0.0776310
10755.5, 0.0778180
10777.9, 0.0778450
10800.3, 0.0778990
10822.9, 0.0780860
10845.5, 0.0782460
10868.2, 0.0783000
10891.1, 0.0783000
10914.0, 0.0783270
10937.0, 0.0784340
10960.2, 0.0785670
10983.4, 0.0786740
11006.7, 0.0788350
11030.1, 0.0789950
11053.6, 0.0791560
11077.3, 0.0792900
11101.0, 0.0793430
11124.8, 0.0794230
11148.7, 0.0795300
11172.7, 0.0795840
11196.9, 0.0796370
11221.1, 0.0797180
11245.4, 0.0797980
11269.9, 0.0798780
11294.4, 0.0799580
11319.1, 0.0799850
11343.9, 0.0799850
11368.8, 0.0799320
11393.7, 0.0798250
11418.8, 0.0797440
11444.0, 0.0796910
11469.4, 0.0796370
11494.8, 0.0795570
11520.3, 0.0794500
11546.0, 0.0794230
11571.8, 0.0794770
11597.7, 0.0794230
11623.7, 0.0792900
11649.8, 0.0792900
11676.0, 0.0793160
11702.4, 0.0792630
11728.9, 0.0793160
11755.5, 0.0795040
11782.2, 0.0796110
11809.0, 0.0796110
11836.0, 0.0796110
11863.0, 0.0796370
11890.3, 0.0796370
11917.6, 0.0795840
11945.0, 0.0794500
11972.6, 0.0792630
12000.4, 0.0790490
12028.2, 0.0788620
12056.2, 0.0787550
12084.3, 0.0787280
12112.5, 0.0787280
12140.9, 0.0786740
12169.4, 0.0785410
12198.0, 0.0783530
12226.8, 0.0782730
12255.7, 0.0781930
12284.7, 0.0780590
12313.9, 0.0779250
12343.2, 0.0778450
12372.7, 0.0778990
12402.3, 0.0779790
12432.0, 0.0780320
12461.9, 0.0781130
12491.9, 0.0781130
12522.1, 0.0779520
12552.4, 0.0777910
12582.9, 0.0777910
12613.5, 0.0778990
12644.3, 0.0780060
12675.2, 0.0781930
12706.3, 0.0785410
12737.5, 0.0789690
12768.9, 0.0793160
12800.4, 0.0795570
12832.1, 0.0797440
12863.9, 0.0799050
12895.9, 0.0798510
12928.1, 0.0797180
12960.4, 0.0795840
12992.9, 0.0795040
13025.5, 0.0795300
13058.3, 0.0795570
13091.3, 0.0794230
13124.4, 0.0793160
13157.8, 0.0794230
13191.2, 0.0796640
13224.9, 0.0797710
13258.7, 0.0797980
13292.7, 0.0798780
13326.9, 0.0799580
13361.2, 0.0799850
13395.7, 0.0798780
13430.4, 0.0797440
13465.3, 0.0796110
13500.4, 0.0795300
13535.7, 0.0795040
13571.1, 0.0793700
13606.7, 0.0793970
13642.5, 0.0793970
13678.5, 0.0793430
13714.7, 0.0792900
13751.1, 0.0792090
13787.6, 0.0791830
13824.4, 0.0791290
13861.4, 0.0791290
13898.5, 0.0792360
13935.9, 0.0792360
13973.5, 0.0791290
14011.2, 0.0789420
14049.2, 0.0788080
14087.4, 0.0789150
14125.8, 0.0788880
14164.3, 0.0786740
14203.2, 0.0785670
14242.2, 0.0787280
14281.4, 0.0788350
14320.9, 0.0786740
14360.5, 0.0785410
14400.4, 0.0785410
14440.5, 0.0783800
14480.9, 0.0779790
14521.4, 0.0774700
14562.2, 0.0768550
14603.3, 0.0760790
14644.5, 0.0754110
14686.0, 0.0748220
14727.7, 0.0742600
14769.7, 0.0737520
14811.9, 0.0733240
14854.3, 0.0731640
14897.0, 0.0730830
14939.9, 0.0730570
14983.1, 0.0730030
15026.5, 0.0728690
15070.2, 0.0729230
15114.2, 0.0731100
15158.3, 0.0732440
15202.8, 0.0732970
15247.5, 0.0733780
15292.5, 0.0734040
15337.7, 0.0734310
15383.2, 0.0734310
15429.0, 0.0733240
15475.1, 0.0730300
15521.4, 0.0727360
15568.0, 0.0725750
15614.9, 0.0724410
15662.1, 0.0721470
15709.6, 0.0717730
15757.3, 0.0715590
15805.4, 0.0715590
15853.7, 0.0716120
15902.3, 0.0716390
15951.2, 0.0716920
16000.5, 0.0719330
16050.0, 0.0721200
16099.8, 0.0723340
16150.0, 0.0725480
16200.5, 0.0727360
16251.3, 0.0729230
16302.4, 0.0729760
16353.8, 0.0729230
16405.5, 0.0728160
16457.6, 0.0727090
16510.0, 0.0724950
16562.8, 0.0723610
16615.9, 0.0724680
16669.3, 0.0725480
16723.1, 0.0726020
16777.2, 0.0726820
16831.7, 0.0728960
16886.5, 0.0731100
16941.7, 0.0735380
16997.2, 0.0742070
17053.1, 0.0750360
17109.4, 0.0758120
17166.1, 0.0764270
17223.1, 0.0768820
17280.5, 0.0772300
17338.3, 0.0774700
17396.5, 0.0777380
17455.1, 0.0778720
17514.0, 0.0779250
17573.4, 0.0780060
17633.2, 0.0781660
17693.4, 0.0781660
17754.0, 0.0781660
17815.0, 0.0784600
17876.4, 0.0786210
17938.3, 0.0783530
18000.5, 0.0782730
18063.3, 0.0784870
18126.4, 0.0787010
18190.0, 0.0788350
18254.1, 0.0788880
18318.6, 0.0789150
18383.5, 0.0790760
18449.0, 0.0793160
18514.9, 0.0791290
18581.2, 0.0790220
18648.0, 0.0791830
18715.4, 0.0790490
18783.2, 0.0789950
18851.5, 0.0792090
18920.3, 0.0793430
18989.6, 0.0791020
19059.4, 0.0790220
19129.7, 0.0792900
19200.6, 0.0792900
19272.0, 0.0791560
19343.9, 0.0792630
19416.3, 0.0795040
19489.3, 0.0794230
19562.8, 0.0793160
19637.0, 0.0796370
19711.6, 0.0798510
19786.8, 0.0799580
19862.6, 0.0800390
19939.0, 0.0800870
20016.0, 0.0807980
20093.6, 0.0797100
20171.8, 0.0793760
20250.6, 0.0823880
20330.0, 0.0851500
20410.0, 0.0852130
20490.7, 0.0833920
20572.0, 0.0816350
20654.0, 0.0815300
20736.6, 0.0826390
20819.9, 0.0803590
20903.8, 0.0786640
20988.5, 0.0804010
21073.8, 0.0818860
21159.8, 0.0822630
21246.5, 0.0819700
21334.0, 0.0820740
21422.1, 0.0825350
21511.0, 0.0827650
21600.7, 0.0815510
21691.0, 0.0820330
21782.1, 0.0822840
21874.0, 0.0817400
21966.7, 0.0799610
22060.2, 0.0795010
22154.5, 0.0805890
22249.6, 0.0801500
22345.5, 0.0794590
22442.2, 0.0777440
22539.8, 0.0772420
22638.2, 0.0783500
22737.5, 0.0768020
22837.7, 0.0761120
22938.7, 0.0765510
23040.7, 0.0782670
23143.5, 0.0822630
23247.3, 0.0869490
23352.1, 0.0904430
23457.7, 0.0930160
23564.4, 0.0944810
23672.0, 0.0966980
23780.5, 0.0993140
23890.1, 0.100883
24000.7, 0.102494
24112.3, 0.106782
24225.0, 0.109419
24338.7, 0.110486
24453.5, 0.113038
24569.4, 0.114544
24686.4, 0.116992
24804.5, 0.119335
24923.8, 0.119105
25044.2, 0.113268
25165.8, 0.105883
25288.6, 0.102933
25412.5, 0.101489
25537.7, 0.101092
25664.1, 0.101468
25791.8, 0.100904
25920.8, 0.0992930
26051.1, 0.0985190
26182.6, 0.0986020
26315.5, 0.0989160
26449.8, 0.0987490
26585.4, 0.0983510
26722.5, 0.0992300
26860.9, 0.0999410
27000.8, 0.0983090
27142.1, 0.0978280
27285.0, 0.0980790
27429.4, 0.0986440
27575.3, 0.0998580
27722.7, 0.0980790
27871.8, 0.0954220
28022.4, 0.0952340
28174.7, 0.0943130
28328.7, 0.0901920
28484.4, 0.0867400
28641.7, 0.0910290
28800.9, 0.100485
28961.8, 0.102389
29124.5, 0.0995020
29289.0, 0.0980580
29455.4, 0.0981420
29623.8, 0.100297
29794.0, 0.100548
29966.3, 0.0996690
30140.5, 0.0997110
30316.7, 0.101050
30495.1, 0.101782
30675.5, 0.102954
30858.1, 0.103561
31042.8, 0.102619
31229.8, 0.102598
31419.1, 0.102745
31610.7, 0.100841
31804.6, 0.100339
32000.9, 0.102305
32199.7, 0.102975
32400.9, 0.104105
32604.8, 0.104544
32811.1, 0.103853
33020.1, 0.102661
33231.8, 0.102159
33446.2, 0.0990000
33663.4, 0.0959660
33883.4, 0.0924720
34106.3, 0.0932880
34332.1, 0.0970960
34561.0, 0.0987070
34792.9, 0.102891
35028.0, 0.104795
35266.3, 0.103330
35507.8, 0.104125
35752.7, 0.104335
36001.0, 0.104690
36252.8, 0.107306
36508.1, 0.108331
36767.0, 0.108205
37029.7, 0.109753
37296.1, 0.110297
37566.3, 0.110967
37840.5, 0.111887
38118.8, 0.112892
38401.2, 0.112766
38687.8, 0.112620
38978.6, 0.114084
39273.9, 0.116009
39573.7, 0.116741
39878.1, 0.114900
40187.3, 0.113770
40501.2, 0.115402
40820.0, 0.116636
41144.0, 0.118268
41473.2, 0.120277
41807.6, 0.122222
42147.5, 0.124607
42493.0, 0.124043
42844.2, 0.121532
43201.2, 0.122348
43564.3, 0.121051
43933.5, 0.118038
44309.0, 0.119147
44691.0, 0.122766
45079.6, 0.122662
45475.0, 0.120026
45877.5, 0.119963
46287.1, 0.120130
46704.2, 0.117285
47128.7, 0.115193
47561.1, 0.114168
48001.5, 0.114502
48450.1, 0.116783
48907.2, 0.115277
49373.0, 0.112348
49847.7, 0.114335
50331.5, 0.116846
50825.0, 0.117055
51328.2, 0.117452
51841.5, 0.118854
52365.1, 0.119419
52899.4, 0.119105
53444.8, 0.118017
54001.5, 0.118729
54570.1, 0.118833
55150.6, 0.119649
55743.6, 0.119712
56349.5, 0.117724
56968.7, 0.122264
57601.7, 0.122285
58248.9, 0.115549
58910.9, 0.114649
59588.1, 0.118917
60281.0, 0.120737
60990.2, 0.121930
61716.3, 0.122390
62459.8, 0.119858
63221.6, 0.115025
64002.1, 0.117871
64802.1, 0.121197
65622.1, 0.121302
66463.4, 0.121825
67326.6, 0.123520
68212.4, 0.125905
69121.9, 0.127076
70056.0, 0.125465
71015.7, 0.125089
72002.0, 0.126930
73016.3, 0.127181
74059.4, 0.131260
75132.7, 0.135089
76237.6, 0.132809
77375.5, 0.131909
78547.9, 0.131846
79756.3, 0.134043
81002.5, 0.135989
82288.5, 0.137830
83615.7, 0.142202
84986.5, 0.143730
86402.9, 0.145884
87867.4, 0.148102
89382.4, 0.147474
90950.5, 0.155153
92574.6, 0.155948
94257.2, 0.147265
96002.7, 0.146931
97814.1, 0.147203
99695.1, 0.147391
101650.0, 0.157245
103683.0, 0.158019
105799.0, 0.159128
108003.0, 0.161262
110301.0, 0.159379
112699.0, 0.160571
115204.0, 0.163479
117822.0, 0.163960
120562.0, 0.166115
123433.0, 0.167517
126443.0, 0.169358
129604.0, 0.168584
132926.0, 0.163249
136424.0, 0.165132
140111.0, 0.160634
144003.0, 0.147516
148118.0, 0.151533
152474.0, 0.170425
157095.0, 0.173919
162004.0, 0.206452
167231.0, 0.237729
172805.0, 0.219988
178764.0, 0.195091
185148.0, 0.169965
192005.0, 0.172434
199390.0, 0.206766
207366.0, 0.159023
216006.0, 0.104649
