Database of Origin, USGS Spectral Database
Sample Description, See USGS database for additional info
Date Added,2017-07-03 06:06:54.978509

Data ID,USGS_mag04          
Sample ID, magnetite_hs195.13189
Mineral Name, magnetite
Material Class,Oxide

Wavelength
1499.61, 0.0590790
1500.04, 0.0593830
1500.48, 0.0593550
1500.91, 0.0589130
1501.35, 0.0589130
1501.78, 0.0597420
1502.22, 0.0599070
1502.65, 0.0593550
1503.09, 0.0591340
1503.53, 0.0593550
1503.96, 0.0593280
1504.4, 0.0589960
1504.83, 0.0591340
1505.27, 0.0592720
1505.71, 0.0593000
1506.15, 0.0591340
1506.58, 0.0590790
1507.02, 0.0591340
1507.46, 0.0588310
1507.9, 0.0588580
1508.34, 0.0588580
1508.78, 0.0589960
1509.21, 0.0591340
1509.66, 0.0591900
1510.09, 0.0594100
1510.53, 0.0595760
1510.97, 0.0593830
1511.42, 0.0591900
1511.86, 0.0593000
1512.3, 0.0589410
1512.74, 0.0589960
1513.18, 0.0589130
1513.62, 0.0587480
1514.06, 0.0589410
1514.51, 0.0593550
1514.95, 0.0592170
1515.39, 0.0587480
1515.83, 0.0587750
1516.28, 0.0593550
1516.72, 0.0593550
1517.16, 0.0591340
1517.61, 0.0590240
1518.05, 0.0589690
1518.5, 0.0588030
1518.94, 0.0588310
1519.39, 0.0589410
1519.83, 0.0590240
1520.28, 0.0588860
1520.73, 0.0587480
1521.17, 0.0587200
1521.62, 0.0586370
1522.07, 0.0586100
1522.51, 0.0588030
1522.96, 0.0587200
1523.41, 0.0586370
1523.85, 0.0585820
1524.3, 0.0587200
1524.75, 0.0588860
1525.2, 0.0590520
1525.65, 0.0585270
1526.1, 0.0583340
1526.55, 0.0584990
1527.0, 0.0586370
1527.45, 0.0588580
1527.9, 0.0586650
1528.35, 0.0586930
1528.8, 0.0588580
1529.25, 0.0589410
1529.7, 0.0589960
1530.15, 0.0590520
1530.6, 0.0590240
1531.05, 0.0589130
1531.51, 0.0587200
1531.96, 0.0591070
1532.41, 0.0591900
1532.87, 0.0589960
1533.32, 0.0590240
1533.77, 0.0588310
1534.23, 0.0591900
1534.68, 0.0594660
1535.14, 0.0589410
1535.59, 0.0586650
1536.05, 0.0588030
1536.5, 0.0587750
1536.96, 0.0586930
1537.41, 0.0588310
1537.87, 0.0588860
1538.32, 0.0588580
1538.78, 0.0588310
1539.24, 0.0589410
1539.7, 0.0593000
1540.15, 0.0591620
1540.61, 0.0587750
1541.07, 0.0586100
1541.53, 0.0587480
1541.98, 0.0588860
1542.44, 0.0589690
1542.9, 0.0592170
1543.36, 0.0593830
1543.82, 0.0591340
1544.28, 0.0588860
1544.74, 0.0588030
1545.2, 0.0587200
1545.66, 0.0588580
1546.12, 0.0588860
1546.59, 0.0587200
1547.05, 0.0591620
1547.51, 0.0595480
1547.97, 0.0594100
1548.43, 0.0594380
1548.9, 0.0595760
1549.36, 0.0594660
1549.82, 0.0596310
1550.29, 0.0595210
1550.75, 0.0593830
1551.21, 0.0594660
1551.68, 0.0593550
1552.14, 0.0592720
1552.61, 0.0589960
1553.07, 0.0587750
1553.54, 0.0589130
1554.0, 0.0590520
1554.47, 0.0591070
1554.93, 0.0593550
1555.4, 0.0597420
1555.87, 0.0596310
1556.34, 0.0591340
1556.8, 0.0590240
1557.27, 0.0591900
1557.74, 0.0594380
1558.21, 0.0595480
1558.68, 0.0592720
1559.14, 0.0593550
1559.61, 0.0594930
1560.08, 0.0596040
1560.55, 0.0595760
1561.02, 0.0596310
1561.49, 0.0599630
1561.96, 0.0598250
1562.43, 0.0594660
1562.9, 0.0594660
1563.38, 0.0597140
1563.85, 0.0598520
1564.32, 0.0597140
1564.79, 0.0594930
1565.26, 0.0596040
1565.74, 0.0595480
1566.21, 0.0594100
1566.68, 0.0596860
1567.16, 0.0598800
1567.63, 0.0601560
1568.1, 0.0601830
1568.58, 0.0600450
1569.05, 0.0598800
1569.53, 0.0598520
1570.0, 0.0599630
1570.48, 0.0600450
1570.96, 0.0600180
1571.43, 0.0599630
1571.91, 0.0599350
1572.39, 0.0598800
1572.86, 0.0598520
1573.34, 0.0598800
1573.82, 0.0598800
1574.3, 0.0599900
1574.77, 0.0599630
1575.25, 0.0599630
1575.73, 0.0602390
1576.21, 0.0602390
1576.69, 0.0601280
1577.17, 0.0600730
1577.65, 0.0600730
1578.13, 0.0601560
1578.61, 0.0599900
1579.09, 0.0598520
1579.57, 0.0600450
1580.05, 0.0599900
1580.54, 0.0601280
1581.02, 0.0600180
1581.5, 0.0599900
1581.98, 0.0598250
1582.47, 0.0597970
1582.95, 0.0601010
1583.43, 0.0603770
1583.92, 0.0604590
1584.4, 0.0605700
1584.88, 0.0605700
1585.37, 0.0603490
1585.85, 0.0602940
1586.34, 0.0603490
1586.82, 0.0603490
1587.31, 0.0604590
1587.8, 0.0605970
1588.28, 0.0604590
1588.77, 0.0602660
1589.26, 0.0603490
1589.74, 0.0605420
1590.23, 0.0605700
1590.72, 0.0605150
1591.21, 0.0603490
1591.7, 0.0605150
1592.19, 0.0607080
1592.67, 0.0610120
1593.16, 0.0610940
1593.65, 0.0610670
1594.14, 0.0610670
1594.63, 0.0607910
1595.12, 0.0605700
1595.61, 0.0604320
1596.11, 0.0605150
1596.6, 0.0607080
1597.09, 0.0606250
1597.58, 0.0606530
1598.08, 0.0609010
1598.57, 0.0606800
1599.06, 0.0606250
1599.55, 0.0608740
1600.05, 0.0608180
1600.54, 0.0607630
1601.04, 0.0608460
1601.53, 0.0609010
1602.03, 0.0609560
1602.52, 0.0609010
1603.02, 0.0610390
1603.51, 0.0612050
1604.01, 0.0611500
1604.5, 0.0610940
1605.0, 0.0612600
1605.5, 0.0613430
1606.0, 0.0612600
1606.49, 0.0610390
1606.99, 0.0610940
1607.49, 0.0611770
1607.99, 0.0611500
1608.49, 0.0611770
1608.99, 0.0613980
1609.49, 0.0615640
1609.99, 0.0614260
1610.49, 0.0611770
1610.99, 0.0612050
1611.49, 0.0612880
1611.99, 0.0612050
1612.49, 0.0613430
1612.99, 0.0615090
1613.49, 0.0615090
1614.0, 0.0615360
1614.5, 0.0613700
1615.0, 0.0613430
1615.51, 0.0614810
1616.01, 0.0615360
1616.51, 0.0616470
1617.02, 0.0616470
1617.52, 0.0616190
1618.03, 0.0616740
1618.53, 0.0618120
1619.04, 0.0618670
1619.54, 0.0619500
1620.05, 0.0619780
1620.55, 0.0618950
1621.06, 0.0618670
1621.57, 0.0617290
1622.08, 0.0615640
1622.58, 0.0617290
1623.09, 0.0620880
1623.6, 0.0621710
1624.11, 0.0619230
1624.62, 0.0619230
1625.13, 0.0621710
1625.64, 0.0623370
1626.15, 0.0623370
1626.66, 0.0621990
1627.17, 0.0620880
1627.68, 0.0620880
1628.19, 0.0620880
1628.7, 0.0621430
1629.21, 0.0622820
1629.72, 0.0624470
1630.24, 0.0625300
1630.75, 0.0624470
1631.26, 0.0623640
1631.78, 0.0625580
1632.29, 0.0625580
1632.8, 0.0624750
1633.32, 0.0625020
1633.83, 0.0625850
1634.35, 0.0626680
1634.86, 0.0625020
1635.38, 0.0625020
1635.9, 0.0626680
1636.41, 0.0625020
1636.93, 0.0624750
1637.45, 0.0626960
1637.96, 0.0628340
1638.48, 0.0628340
1639.0, 0.0625850
1639.52, 0.0626680
1640.04, 0.0628060
1640.56, 0.0628340
1641.08, 0.0628610
1641.59, 0.0628340
1642.11, 0.0627230
1642.63, 0.0628060
1643.16, 0.0629440
1643.68, 0.0629440
1644.2, 0.0628610
1644.72, 0.0627510
1645.24, 0.0628340
1645.76, 0.0629440
1646.29, 0.0628060
1646.81, 0.0630820
1647.33, 0.0633310
1647.86, 0.0631650
1648.38, 0.0631650
1648.9, 0.0631370
1649.43, 0.0631650
1649.95, 0.0632200
1650.48, 0.0632480
1651.0, 0.0632200
1651.53, 0.0632200
1652.06, 0.0634130
1652.58, 0.0634410
1653.11, 0.0633580
1653.64, 0.0634130
1654.17, 0.0634960
1654.69, 0.0634690
1655.22, 0.0634690
1655.75, 0.0635510
1656.28, 0.0634690
1656.81, 0.0633030
1657.34, 0.0633860
1657.87, 0.0635510
1658.4, 0.0634690
1658.93, 0.0635790
1659.46, 0.0638000
1659.99, 0.0636890
1660.52, 0.0634690
1661.05, 0.0634410
1661.59, 0.0635240
1662.12, 0.0635790
1662.65, 0.0636070
1663.19, 0.0636340
1663.72, 0.0635510
1664.26, 0.0634130
1664.79, 0.0635510
1665.32, 0.0636620
1665.86, 0.0638000
1666.39, 0.0638550
1666.93, 0.0638280
1667.47, 0.0639100
1668.0, 0.0637720
1668.54, 0.0635790
1669.08, 0.0636340
1669.61, 0.0638550
1670.15, 0.0640760
1670.69, 0.0641310
1671.23, 0.0640760
1671.77, 0.0640480
1672.31, 0.0641310
1672.85, 0.0641590
1673.39, 0.0642140
1673.93, 0.0643240
1674.47, 0.0644070
1675.01, 0.0644070
1675.55, 0.0644620
1676.09, 0.0643520
1676.64, 0.0642420
1677.18, 0.0643520
1677.72, 0.0644900
1678.26, 0.0645450
1678.81, 0.0644900
1679.35, 0.0645450
1679.89, 0.0646280
1680.44, 0.0645730
1680.98, 0.0645180
1681.53, 0.0645180
1682.07, 0.0645450
1682.62, 0.0644900
1683.17, 0.0645450
1683.71, 0.0646280
1684.26, 0.0647660
1684.81, 0.0648210
1685.36, 0.0648490
1685.9, 0.0649870
1686.45, 0.0650420
1687.0, 0.0649040
1687.55, 0.0648490
1688.1, 0.0649870
1688.65, 0.0649590
1689.2, 0.0649040
1689.75, 0.0649590
1690.3, 0.0649320
1690.85, 0.0647390
1691.41, 0.0648490
1691.96, 0.0649870
1692.51, 0.0650700
1693.06, 0.0650700
1693.61, 0.0651250
1694.17, 0.0652080
1694.72, 0.0650970
1695.28, 0.0651800
1695.83, 0.0654290
1696.39, 0.0655390
1696.94, 0.0655670
1697.5, 0.0654560
1698.05, 0.0652350
1698.61, 0.0652630
1699.17, 0.0654290
1699.72, 0.0654560
1700.28, 0.0654290
1700.84, 0.0655390
1701.4, 0.0655390
1701.95, 0.0655390
1702.51, 0.0654840
1703.07, 0.0657050
1703.63, 0.0657880
1704.19, 0.0656220
1704.75, 0.0654840
1705.31, 0.0655940
1705.88, 0.0656220
1706.44, 0.0656500
1707.0, 0.0656770
1707.56, 0.0656770
1708.12, 0.0657050
1708.69, 0.0657880
1709.25, 0.0658430
1709.81, 0.0659810
1710.38, 0.0661190
1710.94, 0.0659810
1711.51, 0.0659260
1712.07, 0.0660080
1712.64, 0.0658700
1713.2, 0.0660360
1713.77, 0.0661190
1714.34, 0.0660640
1714.9, 0.0659260
1715.47, 0.0658980
1716.04, 0.0660640
1716.61, 0.0660360
1717.18, 0.0660640
1717.74, 0.0661740
1718.31, 0.0661470
1718.88, 0.0660080
1719.45, 0.0659810
1720.02, 0.0661740
1720.59, 0.0661740
1721.17, 0.0660640
1721.74, 0.0661740
1722.31, 0.0663120
1722.88, 0.0663950
1723.45, 0.0663400
1724.03, 0.0663400
1724.6, 0.0663950
1725.18, 0.0664230
1725.75, 0.0664780
1726.33, 0.0665330
1726.9, 0.0664780
1727.48, 0.0664500
1728.05, 0.0666160
1728.63, 0.0666160
1729.2, 0.0664230
1729.78, 0.0663670
1730.36, 0.0664500
1730.94, 0.0665050
1731.51, 0.0666430
1732.09, 0.0668920
1732.67, 0.0669200
1733.25, 0.0666990
1733.83, 0.0666710
1734.41, 0.0667540
1734.99, 0.0668090
1735.57, 0.0669470
1736.15, 0.0670300
1736.73, 0.0669200
1737.32, 0.0668370
1737.9, 0.0669750
1738.48, 0.0670580
1739.07, 0.0670020
1739.65, 0.0669200
1740.23, 0.0668920
1740.82, 0.0668090
1741.4, 0.0669470
1741.99, 0.0671680
1742.57, 0.0671960
1743.16, 0.0671400
1743.74, 0.0672780
1744.33, 0.0673340
1744.92, 0.0671130
1745.51, 0.0670020
1746.09, 0.0671680
1746.68, 0.0673060
1747.27, 0.0670850
1747.86, 0.0668920
1748.45, 0.0671130
1749.04, 0.0672780
1749.63, 0.0673340
1750.22, 0.0674720
1750.81, 0.0675270
1751.4, 0.0675270
1751.99, 0.0674990
1752.59, 0.0675820
1753.18, 0.0676650
1753.77, 0.0676930
1754.37, 0.0677200
1754.96, 0.0676650
1755.56, 0.0676370
1756.15, 0.0678310
1756.74, 0.0679130
1757.34, 0.0677480
1757.94, 0.0676650
1758.53, 0.0677750
1759.13, 0.0678580
1759.73, 0.0679690
1760.32, 0.0680510
1760.92, 0.0680510
1761.52, 0.0678860
1762.12, 0.0679410
1762.72, 0.0681070
1763.32, 0.0679690
1763.92, 0.0677750
1764.52, 0.0678860
1765.12, 0.0680510
1765.72, 0.0681620
1766.32, 0.0681620
1766.92, 0.0682450
1767.53, 0.0683270
1768.13, 0.0684100
1768.73, 0.0683550
1769.34, 0.0682450
1769.94, 0.0683270
1770.55, 0.0684380
1771.15, 0.0684660
1771.76, 0.0683000
1772.36, 0.0682450
1772.97, 0.0683550
1773.57, 0.0683550
1774.18, 0.0683000
1774.79, 0.0684930
1775.4, 0.0686310
1776.0, 0.0686040
1776.61, 0.0685760
1777.22, 0.0684930
1777.83, 0.0685480
1778.44, 0.0685760
1779.05, 0.0686310
1779.66, 0.0687140
1780.27, 0.0687420
1780.88, 0.0685760
1781.5, 0.0686040
1782.11, 0.0687690
1782.72, 0.0689070
1783.33, 0.0689350
1783.95, 0.0687970
1784.56, 0.0689070
1785.18, 0.0690730
1785.79, 0.0689900
1786.41, 0.0689620
1787.02, 0.0690180
1787.64, 0.0689900
1788.26, 0.0688800
1788.87, 0.0689900
1789.49, 0.0689900
1790.11, 0.0688240
1790.73, 0.0690180
1791.35, 0.0692390
1791.96, 0.0692390
1792.58, 0.0692940
1793.21, 0.0691830
1793.83, 0.0691560
1794.45, 0.0692390
1795.07, 0.0692940
1795.69, 0.0691830
1796.31, 0.0690730
1796.93, 0.0691830
1797.56, 0.0692110
1798.18, 0.0692110
1798.8, 0.0694040
1799.43, 0.0695420
1800.05, 0.0695420
1800.68, 0.0695420
1801.3, 0.0695420
1801.93, 0.0695970
1802.56, 0.0695970
1803.18, 0.0695700
1803.81, 0.0694870
1804.44, 0.0694590
1805.07, 0.0695700
1805.7, 0.0696530
1806.33, 0.0696250
1806.95, 0.0695970
1807.58, 0.0696250
1808.22, 0.0695150
1808.85, 0.0695420
1809.48, 0.0695150
1810.11, 0.0695700
1810.74, 0.0696800
1811.38, 0.0698460
1812.01, 0.0699290
1812.64, 0.0700120
1813.28, 0.0699840
1813.91, 0.0699290
1814.55, 0.0698460
1815.18, 0.0698460
1815.82, 0.0698180
1816.45, 0.0698730
1817.09, 0.0699560
1817.73, 0.0698180
1818.36, 0.0698730
1819.0, 0.0699290
1819.64, 0.0699560
1820.28, 0.0700940
1820.92, 0.0701500
1821.56, 0.0702050
1822.2, 0.0702880
1822.84, 0.0702880
1823.48, 0.0701500
1824.12, 0.0700940
1824.76, 0.0702320
1825.41, 0.0703150
1826.05, 0.0703700
1826.69, 0.0704530
1827.34, 0.0703980
1827.98, 0.0703430
1828.63, 0.0703700
1829.27, 0.0703430
1829.92, 0.0703700
1830.56, 0.0704810
1831.21, 0.0704260
1831.86, 0.0702880
1832.5, 0.0703700
1833.15, 0.0705910
1833.8, 0.0706460
1834.45, 0.0706740
1835.1, 0.0706460
1835.75, 0.0707020
1836.4, 0.0707290
1837.05, 0.0707570
1837.7, 0.0709230
1838.35, 0.0708400
1839.01, 0.0707020
1839.66, 0.0708670
1840.31, 0.0710050
1840.96, 0.0709500
1841.62, 0.0708950
1842.27, 0.0709230
1842.93, 0.0709230
1843.58, 0.0709230
1844.24, 0.0709780
1844.9, 0.0709780
1845.55, 0.0710330
1846.21, 0.0711160
1846.87, 0.0713640
1847.53, 0.0713090
1848.18, 0.0711160
1848.84, 0.0710330
1849.5, 0.0710880
1850.16, 0.0711990
1850.82, 0.0712810
1851.48, 0.0713640
1852.14, 0.0713920
1852.81, 0.0713640
1853.47, 0.0714470
1854.13, 0.0715300
1854.8, 0.0713370
1855.46, 0.0713370
1856.12, 0.0715020
1856.79, 0.0715570
1857.45, 0.0714750
1858.12, 0.0714190
1858.79, 0.0714750
1859.45, 0.0716960
1860.12, 0.0716680
1860.79, 0.0716400
1861.46, 0.0716680
1862.12, 0.0716400
1862.79, 0.0716960
1863.46, 0.0717780
1864.13, 0.0717230
1864.8, 0.0716400
1865.48, 0.0716680
1866.15, 0.0718060
1866.82, 0.0718890
1867.49, 0.0721100
1868.16, 0.0720820
1868.84, 0.0720270
1869.51, 0.0719440
1870.19, 0.0719440
1870.86, 0.0721100
1871.54, 0.0721650
1872.21, 0.0722750
1872.89, 0.0723860
1873.56, 0.0721370
1874.24, 0.0719990
1874.92, 0.0719990
1875.6, 0.0720270
1876.28, 0.0720820
1876.96, 0.0722200
1877.64, 0.0723030
1878.32, 0.0723310
1879.0, 0.0723310
1879.68, 0.0723030
1880.36, 0.0723030
1881.04, 0.0723030
1881.73, 0.0723310
1882.41, 0.0724130
1883.09, 0.0722750
1883.78, 0.0722480
1884.46, 0.0722750
1885.15, 0.0723030
1885.83, 0.0723580
1886.52, 0.0725240
1887.21, 0.0725790
1887.89, 0.0724690
1888.58, 0.0724130
1889.27, 0.0724960
1889.96, 0.0726340
1890.65, 0.0726340
1891.34, 0.0725510
1892.03, 0.0725240
1892.72, 0.0725240
1893.41, 0.0725240
1894.1, 0.0725790
1894.79, 0.0726890
1895.49, 0.0727720
1896.18, 0.0727720
1896.87, 0.0727450
1897.57, 0.0728830
1898.26, 0.0729100
1898.96, 0.0729380
1899.65, 0.0730480
1900.35, 0.0729380
1901.05, 0.0728000
1901.74, 0.0728550
1902.44, 0.0729100
1903.14, 0.0729380
1903.84, 0.0729100
1904.54, 0.0729930
1905.24, 0.0730480
1905.94, 0.0730210
1906.64, 0.0729650
1907.34, 0.0728830
1908.04, 0.0728000
1908.75, 0.0729100
1909.45, 0.0730480
1910.15, 0.0731030
1910.86, 0.0732970
1911.56, 0.0733800
1912.27, 0.0732690
1912.97, 0.0731590
1913.68, 0.0732140
1914.39, 0.0732690
1915.09, 0.0732690
1915.8, 0.0732970
1916.51, 0.0732970
1917.22, 0.0731860
1917.93, 0.0732140
1918.64, 0.0732140
1919.35, 0.0731590
1920.06, 0.0733520
1920.77, 0.0734620
1921.48, 0.0734900
1922.19, 0.0735730
1922.91, 0.0735730
1923.62, 0.0736280
1924.33, 0.0736280
1925.05, 0.0736560
1925.76, 0.0736830
1926.48, 0.0735450
1927.19, 0.0736280
1927.91, 0.0737660
1928.63, 0.0737660
1929.35, 0.0737940
1930.07, 0.0739040
1930.78, 0.0738490
1931.5, 0.0738210
1932.22, 0.0738490
1932.94, 0.0737940
1933.66, 0.0737660
1934.39, 0.0738210
1935.11, 0.0738490
1935.83, 0.0739870
1936.55, 0.0740700
1937.28, 0.0740700
1938.0, 0.0740420
1938.73, 0.0740700
1939.45, 0.0742080
1940.18, 0.0742080
1940.9, 0.0741250
1941.63, 0.0741800
1942.36, 0.0742080
1943.09, 0.0741250
1943.81, 0.0741530
1944.54, 0.0744010
1945.27, 0.0744010
1946.0, 0.0743180
1946.73, 0.0744290
1947.47, 0.0744290
1948.2, 0.0744560
1948.93, 0.0744290
1949.66, 0.0744290
1950.4, 0.0744010
1951.13, 0.0744290
1951.86, 0.0745110
1952.6, 0.0745390
1953.34, 0.0747320
1954.07, 0.0746770
1954.81, 0.0745940
1955.55, 0.0745940
1956.29, 0.0746490
1957.02, 0.0747050
1957.76, 0.0747320
1958.5, 0.0747600
1959.24, 0.0748700
1959.98, 0.0748980
1960.72, 0.0749530
1961.47, 0.0749810
1962.21, 0.0748430
1962.95, 0.0747880
1963.7, 0.0748150
1964.44, 0.0748150
1965.18, 0.0749260
1965.93, 0.0750910
1966.67, 0.0750360
1967.42, 0.0749260
1968.17, 0.0748700
1968.92, 0.0749260
1969.66, 0.0749260
1970.41, 0.0749530
1971.16, 0.0750360
1971.91, 0.0751740
1972.66, 0.0751460
1973.41, 0.0750640
1974.16, 0.0752020
1974.92, 0.0752020
1975.67, 0.0752020
1976.42, 0.0752840
1977.18, 0.0752840
1977.93, 0.0753120
1978.69, 0.0753950
1979.44, 0.0754220
1980.2, 0.0752570
1980.95, 0.0753120
1981.71, 0.0753950
1982.47, 0.0754500
1983.23, 0.0755330
1983.99, 0.0755610
1984.74, 0.0755330
1985.51, 0.0755610
1986.27, 0.0755610
1987.03, 0.0755610
1987.79, 0.0755610
1988.55, 0.0755050
1989.32, 0.0754500
1990.08, 0.0754500
1990.84, 0.0755330
1991.61, 0.0756710
1992.37, 0.0757540
1993.14, 0.0756430
1993.9, 0.0756710
1994.67, 0.0757810
1995.44, 0.0757810
1996.21, 0.0756990
1996.98, 0.0756990
1997.75, 0.0757540
1998.52, 0.0757810
1999.29, 0.0757810
2000.06, 0.0757810
2000.83, 0.0757810
2001.6, 0.0757540
2002.38, 0.0756430
2003.15, 0.0756710
2003.93, 0.0758370
2004.7, 0.0759470
2005.48, 0.0759750
2006.25, 0.0759750
2007.03, 0.0758370
2007.81, 0.0758370
2008.58, 0.0759470
2009.36, 0.0760020
2010.14, 0.0759750
2010.92, 0.0759750
2011.7, 0.0759750
2012.48, 0.0759750
2013.26, 0.0760300
2014.05, 0.0760020
2014.83, 0.0760850
2015.61, 0.0761950
2016.4, 0.0760570
2017.18, 0.0760850
2017.97, 0.0760850
2018.75, 0.0761950
2019.54, 0.0762780
2020.32, 0.0762780
2021.11, 0.0762510
2021.9, 0.0762780
2022.69, 0.0763060
2023.48, 0.0763060
2024.27, 0.0763340
2025.06, 0.0762780
2025.85, 0.0763340
2026.64, 0.0765540
2027.44, 0.0766100
2028.23, 0.0766100
2029.02, 0.0766370
2029.82, 0.0765820
2030.61, 0.0765820
2031.41, 0.0767200
2032.2, 0.0767480
2033.0, 0.0767480
2033.8, 0.0767480
2034.6, 0.0766920
2035.4, 0.0766650
2036.2, 0.0766100
2037.0, 0.0767750
2037.8, 0.0768580
2038.6, 0.0767750
2039.4, 0.0767750
2040.2, 0.0768580
2041.01, 0.0769410
2041.81, 0.0769680
2042.61, 0.0770790
2043.42, 0.0771070
2044.22, 0.0770510
2045.03, 0.0770510
2045.84, 0.0771070
2046.65, 0.0772720
2047.46, 0.0772450
2048.26, 0.0771890
2049.07, 0.0772450
2049.88, 0.0772720
2050.69, 0.0772450
2051.51, 0.0773000
2052.32, 0.0773550
2053.13, 0.0773550
2053.94, 0.0775210
2054.76, 0.0775760
2055.57, 0.0774930
2056.39, 0.0773550
2057.2, 0.0774100
2058.02, 0.0775480
2058.84, 0.0776590
2059.66, 0.0776310
2060.48, 0.0775210
2061.29, 0.0775210
2062.11, 0.0776030
2062.94, 0.0776030
2063.76, 0.0775210
2064.58, 0.0776030
2065.4, 0.0776860
2066.22, 0.0776590
2067.05, 0.0776030
2067.87, 0.0776590
2068.7, 0.0777410
2069.52, 0.0778240
2070.35, 0.0777410
2071.18, 0.0777690
2072.0, 0.0777690
2072.83, 0.0778520
2073.66, 0.0779350
2074.49, 0.0779350
2075.32, 0.0779620
2076.15, 0.0780180
2076.98, 0.0780450
2077.82, 0.0779620
2078.65, 0.0779900
2079.48, 0.0780180
2080.32, 0.0779900
2081.15, 0.0779620
2081.99, 0.0779620
2082.83, 0.0780180
2083.66, 0.0781280
2084.5, 0.0780730
2085.34, 0.0781280
2086.18, 0.0781560
2087.02, 0.0782940
2087.86, 0.0782380
2088.7, 0.0782660
2089.54, 0.0782660
2090.39, 0.0783210
2091.23, 0.0783490
2092.07, 0.0782660
2092.92, 0.0783490
2093.76, 0.0782940
2094.61, 0.0782110
2095.45, 0.0782940
2096.3, 0.0783490
2097.15, 0.0783760
2098.0, 0.0784870
2098.85, 0.0785420
2099.7, 0.0785700
2100.55, 0.0785420
2101.4, 0.0785140
2102.25, 0.0785700
2103.1, 0.0786800
2103.96, 0.0787080
2104.81, 0.0786250
2105.67, 0.0785420
2106.52, 0.0785970
2107.38, 0.0785420
2108.24, 0.0784870
2109.09, 0.0785420
2109.95, 0.0785420
2110.81, 0.0785970
2111.67, 0.0786800
2112.53, 0.0786800
2113.39, 0.0786530
2114.25, 0.0787630
2115.12, 0.0787910
2115.98, 0.0787080
2116.84, 0.0788180
2117.71, 0.0789560
2118.58, 0.0789010
2119.44, 0.0787350
2120.31, 0.0786800
2121.18, 0.0787350
2122.04, 0.0788180
2122.91, 0.0789010
2123.78, 0.0789290
2124.65, 0.0790390
2125.52, 0.0790670
2126.4, 0.0790110
2127.27, 0.0789560
2128.14, 0.0789290
2129.02, 0.0789560
2129.89, 0.0789560
2130.77, 0.0789560
2131.64, 0.0789840
2132.52, 0.0790110
2133.4, 0.0790940
2134.27, 0.0790940
2135.15, 0.0791490
2136.03, 0.0791770
2136.91, 0.0792050
2137.79, 0.0791770
2138.68, 0.0791770
2139.56, 0.0791490
2140.44, 0.0792050
2141.33, 0.0792050
2142.21, 0.0792870
2143.1, 0.0793150
2143.99, 0.0793430
2144.87, 0.0793980
2145.76, 0.0793700
2146.65, 0.0793430
2147.54, 0.0794260
2148.43, 0.0795080
2149.32, 0.0795360
2150.21, 0.0794260
2151.1, 0.0794530
2151.99, 0.0795360
2152.89, 0.0795080
2153.78, 0.0795080
2154.68, 0.0795910
2155.57, 0.0795640
2156.47, 0.0795360
2157.37, 0.0796740
2158.27, 0.0797840
2159.16, 0.0797840
2160.06, 0.0799220
2160.96, 0.0800330
2161.86, 0.0798950
2162.77, 0.0798120
2163.67, 0.0798950
2164.57, 0.0799220
2165.48, 0.0799500
2166.38, 0.0800600
2167.29, 0.0800050
2168.2, 0.0799500
2169.1, 0.0799220
2170.01, 0.0800050
2170.92, 0.0800600
2171.83, 0.0801160
2172.74, 0.0801990
2173.65, 0.0801990
2174.56, 0.0801710
2175.47, 0.0801990
2176.39, 0.0802540
2177.3, 0.0803090
2178.22, 0.0803640
2179.13, 0.0804190
2180.05, 0.0804470
2180.96, 0.0804750
2181.88, 0.0805020
2182.8, 0.0804470
2183.72, 0.0804190
2184.64, 0.0804470
2185.56, 0.0805020
2186.48, 0.0804470
2187.41, 0.0804470
2188.33, 0.0805850
2189.25, 0.0805850
2190.18, 0.0805570
2191.1, 0.0805570
2192.03, 0.0806130
2192.96, 0.0806130
2193.89, 0.0805570
2194.82, 0.0806130
2195.74, 0.0807230
2196.68, 0.0808060
2197.61, 0.0807510
2198.54, 0.0806950
2199.47, 0.0807230
2200.4, 0.0807780
2201.34, 0.0808060
2202.28, 0.0807230
2203.21, 0.0807780
2204.15, 0.0808890
2205.08, 0.0808890
2206.02, 0.0809160
2206.96, 0.0809160
2207.9, 0.0809160
2208.84, 0.0809160
2209.78, 0.0809160
2210.73, 0.0809990
2211.67, 0.0810540
2212.61, 0.0810540
2213.56, 0.0810540
2214.5, 0.0811650
2215.45, 0.0811370
2216.4, 0.0811100
2217.35, 0.0811370
2218.3, 0.0811920
2219.24, 0.0811920
2220.2, 0.0811920
2221.15, 0.0811920
2222.1, 0.0811370
2223.05, 0.0811370
2224.0, 0.0811100
2224.96, 0.0811100
2225.91, 0.0811100
2226.87, 0.0812200
2227.83, 0.0812480
2228.79, 0.0812750
2229.74, 0.0812480
2230.7, 0.0812200
2231.66, 0.0812750
2232.63, 0.0813580
2233.59, 0.0814410
2234.55, 0.0814410
2235.51, 0.0812750
2236.48, 0.0813300
2237.44, 0.0814960
2238.41, 0.0814680
2239.38, 0.0812750
2240.34, 0.0812750
2241.31, 0.0813580
2242.28, 0.0814130
2243.25, 0.0814960
2244.22, 0.0815510
2245.19, 0.0814960
2246.17, 0.0814680
2247.14, 0.0814960
2248.12, 0.0814960
2249.09, 0.0814680
2250.07, 0.0813580
2251.04, 0.0813300
2252.02, 0.0814680
2253.0, 0.0815790
2253.98, 0.0816060
2254.96, 0.0816340
2255.94, 0.0816620
2256.92, 0.0816340
2257.91, 0.0816890
2258.89, 0.0817720
2259.88, 0.0818830
2260.86, 0.0818000
2261.85, 0.0817450
2262.83, 0.0816890
2263.82, 0.0816620
2264.81, 0.0817450
2265.8, 0.0818550
2266.79, 0.0818550
2267.78, 0.0818830
2268.78, 0.0819100
2269.77, 0.0818270
2270.76, 0.0818550
2271.76, 0.0818830
2272.75, 0.0819100
2273.75, 0.0819650
2274.75, 0.0819650
2275.75, 0.0819380
2276.75, 0.0820210
2277.75, 0.0820760
2278.75, 0.0820480
2279.75, 0.0822140
2280.75, 0.0822690
2281.76, 0.0822690
2282.76, 0.0823790
2283.77, 0.0823790
2284.77, 0.0825660
2285.78, 0.0826190
2286.79, 0.0825390
2287.8, 0.0824860
2288.81, 0.0824060
2289.82, 0.0824860
2290.83, 0.0825920
2291.84, 0.0826990
2292.86, 0.0827780
2293.87, 0.0827520
2294.89, 0.0827780
2295.91, 0.0828320
2296.92, 0.0829910
2297.94, 0.0831510
2298.96, 0.0832840
2299.98, 0.0832040
2301.0, 0.0830440
2302.02, 0.0829910
2303.04, 0.0830180
2304.07, 0.0831770
2305.09, 0.0832570
2306.12, 0.0832310
2307.15, 0.0832840
2308.17, 0.0832570
2309.2, 0.0832570
2310.23, 0.0832570
2311.26, 0.0831770
2312.29, 0.0833100
2313.32, 0.0833640
2314.35, 0.0833370
2315.39, 0.0833640
2316.42, 0.0835500
2317.46, 0.0836300
2318.5, 0.0836030
2319.53, 0.0836830
2320.57, 0.0838690
2321.61, 0.0838160
2322.65, 0.0837360
2323.69, 0.0838160
2324.73, 0.0838690
2325.78, 0.0836560
2326.82, 0.0835760
2327.86, 0.0838420
2328.91, 0.0838160
2329.96, 0.0837360
2331.01, 0.0837890
2332.05, 0.0836560
2333.1, 0.0837890
2334.15, 0.0838420
2335.21, 0.0837630
2336.26, 0.0837090
2337.31, 0.0838960
2338.36, 0.0838420
2339.42, 0.0838690
2340.48, 0.0838420
2341.53, 0.0838160
2342.59, 0.0840020
2343.65, 0.0840290
2344.71, 0.0839750
2345.77, 0.0838420
2346.83, 0.0838690
2347.9, 0.0838420
2348.96, 0.0836830
2350.02, 0.0837090
2351.09, 0.0838690
2352.16, 0.0839750
2353.23, 0.0839750
2354.29, 0.0838960
2355.36, 0.0838420
2356.43, 0.0839490
2357.51, 0.0839490
2358.58, 0.0838960
2359.65, 0.0839220
2360.73, 0.0839490
2361.8, 0.0838160
2362.88, 0.0838420
2363.96, 0.0838690
2365.03, 0.0840020
2366.11, 0.0840020
2367.19, 0.0840550
2368.27, 0.0840020
2369.36, 0.0839750
2370.44, 0.0840290
2371.53, 0.0840020
2372.61, 0.0838160
2373.7, 0.0838960
2374.78, 0.0840550
2375.87, 0.0840290
2376.96, 0.0838960
2378.05, 0.0839750
2379.14, 0.0841620
2380.24, 0.0841620
2381.33, 0.0840550
2382.42, 0.0839750
2383.52, 0.0840020
2384.61, 0.0840820
2385.71, 0.0841350
2386.81, 0.0841880
2387.91, 0.0842950
2389.01, 0.0842150
2390.11, 0.0840020
2391.22, 0.0840290
2392.32, 0.0841620
2393.42, 0.0843210
2394.53, 0.0843210
2395.64, 0.0842410
2396.74, 0.0842950
2397.85, 0.0844010
2398.96, 0.0843740
2400.07, 0.0843480
2401.18, 0.0843740
2402.3, 0.0844280
2403.41, 0.0845340
2404.52, 0.0845340
2405.64, 0.0844810
2406.76, 0.0846140
2407.88, 0.0846940
2408.99, 0.0846940
2410.11, 0.0846940
2411.23, 0.0846670
2412.36, 0.0848000
2413.48, 0.0848530
2414.6, 0.0848530
2415.73, 0.0850660
2416.85, 0.0851460
2417.98, 0.0852260
2419.11, 0.0853320
2420.24, 0.0851990
2421.37, 0.0851460
2422.5, 0.0852790
2423.64, 0.0852260
2424.77, 0.0853050
2425.9, 0.0852260
2427.04, 0.0852520
2428.18, 0.0854380
2429.31, 0.0853590
2430.45, 0.0852520
2431.59, 0.0854380
2432.73, 0.0855710
2433.88, 0.0856510
2435.02, 0.0855710
2436.16, 0.0856780
2437.31, 0.0858110
2438.45, 0.0857840
2439.6, 0.0857310
2440.75, 0.0858110
2441.9, 0.0858910
2443.05, 0.0859440
2444.2, 0.0859170
2445.35, 0.0858910
2446.51, 0.0857580
2447.67, 0.0859440
2448.82, 0.0861570
2449.98, 0.0861030
2451.14, 0.0860770
2452.3, 0.0860770
2453.46, 0.0860770
2454.62, 0.0861570
2455.78, 0.0861570
2456.94, 0.0861830
2458.11, 0.0861830
2459.28, 0.0862630
2460.44, 0.0863960
2461.61, 0.0864490
2462.78, 0.0863690
2463.95, 0.0863160
2465.12, 0.0863690
2466.3, 0.0864490
2467.47, 0.0866090
2468.65, 0.0866090
2469.82, 0.0864230
2471.0, 0.0864230
2472.18, 0.0866350
2473.36, 0.0867150
2474.54, 0.0866350
2475.72, 0.0865820
2476.9, 0.0865820
2478.08, 0.0866620
2479.27, 0.0867150
2480.46, 0.0867680
2481.64, 0.0866620
2482.83, 0.0865290
2484.02, 0.0866090
2485.21, 0.0867680
2486.4, 0.0867420
2487.6, 0.0866620
2488.79, 0.0866620
2489.99, 0.0867420
2491.18, 0.0868220
2492.38, 0.0867420
2493.58, 0.0867150
2494.78, 0.0867680
2495.98, 0.0868480
2497.18, 0.0867680
2498.39, 0.0867150
2499.59, 0.0868480
2500.8, 0.0867680
2502.01, 0.0866620
2503.21, 0.0866890
2504.42, 0.0867150
2505.63, 0.0866620
2506.84, 0.0866350
2508.06, 0.0866090
2509.27, 0.0865290
2510.49, 0.0865820
2511.7, 0.0866090
2512.92, 0.0865290
2514.14, 0.0867150
2515.36, 0.0868750
2516.58, 0.0867950
2517.8, 0.0867150
2519.03, 0.0867420
2520.25, 0.0867950
2521.48, 0.0866890
2522.7, 0.0866620
2523.93, 0.0868220
2525.16, 0.0869280
2526.39, 0.0869280
2527.62, 0.0867680
2528.86, 0.0866890
2530.09, 0.0867680
2531.33, 0.0869280
2532.56, 0.0870340
2533.8, 0.0869010
2535.04, 0.0870080
2536.28, 0.0871410
2537.52, 0.0869550
2538.76, 0.0869280
2540.01, 0.0868220
2541.25, 0.0868750
2542.5, 0.0872210
2543.75, 0.0873270
2544.99, 0.0871670
2546.24, 0.0871410
2547.49, 0.0873800
2548.75, 0.0872740
2550.0, 0.0873540
2551.26, 0.0875660
2552.51, 0.0876730
2553.77, 0.0874600
2555.03, 0.0872210
2556.29, 0.0872210
2557.55, 0.0871410
2558.81, 0.0872740
2560.08, 0.0881520
2561.34, 0.0890830
2562.61, 0.0891890
2563.88, 0.0890290
2565.14, 0.0885240
2566.41, 0.0879390
2567.68, 0.0878860
2568.96, 0.0885770
2570.23, 0.0885240
2571.51, 0.0881250
2572.78, 0.0891090
2574.06, 0.0892160
2575.34, 0.0886300
2576.62, 0.0891360
2577.9, 0.0887900
2579.18, 0.0882050
2580.47, 0.0887370
2581.75, 0.0890560
2583.04, 0.0900670
2584.32, 0.0903590
2585.61, 0.0892420
2586.9, 0.0895610
2588.2, 0.0895350
2589.49, 0.0891890
2590.78, 0.0887100
2592.08, 0.0889500
2593.37, 0.0912370
2594.67, 0.0940570
2595.97, 0.0920880
2597.27, 0.0895350
2598.57, 0.0886840
2599.88, 0.0889230
2601.18, 0.0895350
2602.49, 0.0898810
2603.79, 0.0905190
2605.1, 0.0916360
2606.41, 0.0912370
2607.72, 0.0902000
2609.03, 0.0899600
2610.35, 0.0896680
2611.66, 0.0893490
2612.98, 0.0895350
2614.3, 0.0894550
2615.62, 0.0905720
2616.94, 0.0917690
2618.26, 0.0906790
2619.58, 0.0909180
2620.91, 0.0909980
2622.23, 0.0894820
2623.56, 0.0891360
2624.89, 0.0895350
2626.22, 0.0907850
2627.55, 0.0903330
2628.88, 0.0904660
2630.21, 0.0920350
2631.55, 0.0910240
2632.89, 0.0900930
2634.22, 0.0900140
2635.56, 0.0893750
2636.9, 0.0892160
2638.25, 0.0891620
2639.59, 0.0892160
2640.93, 0.0894550
2642.28, 0.0896940
2643.63, 0.0895880
2644.98, 0.0900140
2646.33, 0.0900400
2647.68, 0.0895610
2649.03, 0.0893220
2650.39, 0.0895350
2651.74, 0.0902800
2653.1, 0.0904130
2654.46, 0.0900930
2655.82, 0.0901730
2657.18, 0.0896940
2658.54, 0.0902260
2659.9, 0.0906250
2661.27, 0.0903860
2662.64, 0.0902000
2664.01, 0.0916630
2665.38, 0.0934180
2666.74, 0.0933920
2668.12, 0.0918760
2669.49, 0.0930460
2670.87, 0.0937380
2672.24, 0.0909450
2673.62, 0.0901470
2675.0, 0.0908650
2676.38, 0.0920090
2677.76, 0.0919020
2679.15, 0.0915300
2680.54, 0.0903330
2681.92, 0.0898010
2683.31, 0.0901730
2684.7, 0.0901470
2686.09, 0.0902800
2687.48, 0.0900670
2688.88, 0.0896940
2690.27, 0.0894820
2691.67, 0.0898010
2693.07, 0.0911840
2694.47, 0.0916100
2695.87, 0.0906250
2697.27, 0.0897210
2698.67, 0.0893490
2700.08, 0.0897740
2701.49, 0.0901470
2702.9, 0.0896410
2704.31, 0.0894820
2705.72, 0.0895350
2707.13, 0.0897740
2708.54, 0.0907580
2709.96, 0.0918760
2711.38, 0.0917960
2712.8, 0.0900670
2714.22, 0.0894820
2715.64, 0.0894550
2717.06, 0.0897480
2718.49, 0.0905460
2719.91, 0.0926200
2721.34, 0.0921950
2722.77, 0.0911040
2724.2, 0.0921680
2725.63, 0.0913700
2727.07, 0.0899070
2728.5, 0.0894280
2729.94, 0.0893220
2731.38, 0.0894020
2732.82, 0.0898010
2734.26, 0.0906520
2735.7, 0.0905990
2737.15, 0.0904130
2738.59, 0.0920880
2740.04, 0.0932590
2741.49, 0.0923810
2742.94, 0.0907580
2744.39, 0.0899600
2745.84, 0.0898540
2747.3, 0.0899070
2748.76, 0.0900670
2750.21, 0.0902000
2751.67, 0.0903330
2753.14, 0.0907050
2754.6, 0.0924870
2756.06, 0.0927270
2757.53, 0.0909710
2759.0, 0.0902800
2760.46, 0.0905190
2761.94, 0.0916630
2763.41, 0.0920090
2764.88, 0.0912640
2766.36, 0.0912370
2767.83, 0.0915300
2769.31, 0.0916100
2770.79, 0.0919290
2772.27, 0.0914770
2773.76, 0.0909450
2775.24, 0.0909710
2776.73, 0.0911570
2778.22, 0.0911310
2779.71, 0.0911840
2781.2, 0.0914770
2782.69, 0.0915030
2784.18, 0.0913970
2785.68, 0.0919290
2787.18, 0.0924870
2788.68, 0.0919020
2790.18, 0.0912640
2791.68, 0.0911840
2793.19, 0.0913700
2794.69, 0.0914230
2796.2, 0.0913440
2797.71, 0.0912900
2799.22, 0.0913440
2800.73, 0.0917430
2802.24, 0.0924610
2803.76, 0.0926200
2805.28, 0.0920620
2806.8, 0.0917160
2808.32, 0.0915830
2809.84, 0.0914500
2811.36, 0.0914500
2812.89, 0.0915560
2814.42, 0.0917430
2815.94, 0.0917160
2817.48, 0.0916890
2819.01, 0.0918490
2820.54, 0.0919820
2822.08, 0.0919020
2823.61, 0.0916890
2825.15, 0.0916100
2826.69, 0.0917430
2828.23, 0.0917960
2829.78, 0.0917160
2831.32, 0.0918760
2832.87, 0.0920620
2834.42, 0.0920620
2835.97, 0.0919820
2837.52, 0.0919820
2839.08, 0.0919550
2840.63, 0.0918490
2842.19, 0.0918490
2843.75, 0.0918490
2845.31, 0.0919290
2846.87, 0.0919290
2848.44, 0.0919550
2850.0, 0.0919550
2851.57, 0.0919020
2853.14, 0.0920090
2854.71, 0.0920620
2856.28, 0.0919020
2857.86, 0.0917690
2859.43, 0.0918490
2861.01, 0.0918760
2862.59, 0.0917960
2864.17, 0.0917960
2865.76, 0.0918220
2867.34, 0.0919020
2868.93, 0.0917690
2870.52, 0.0916890
2872.11, 0.0918490
2873.7, 0.0919020
2875.29, 0.0918220
2876.89, 0.0918220
2878.49, 0.0917690
2880.08, 0.0916890
2881.69, 0.0917160
2883.29, 0.0918220
2884.89, 0.0917430
2886.5, 0.0917430
2888.11, 0.0918220
2889.72, 0.0919020
2891.33, 0.0918490
2892.94, 0.0917690
2894.56, 0.0918220
2896.17, 0.0917960
2897.79, 0.0917690
2899.42, 0.0919550
2901.04, 0.0921150
2902.66, 0.0919820
2904.29, 0.0919550
2905.92, 0.0919820
2907.55, 0.0920090
2909.18, 0.0919550
2910.81, 0.0919020
2912.45, 0.0919820
2914.08, 0.0921420
2915.72, 0.0920620
2917.36, 0.0920880
2919.01, 0.0921680
2920.65, 0.0921950
2922.3, 0.0923280
2923.94, 0.0923810
2925.59, 0.0923810
2927.25, 0.0923810
2928.9, 0.0924340
2930.56, 0.0925410
2932.21, 0.0926200
2933.87, 0.0926470
2935.53, 0.0925670
2937.2, 0.0925670
2938.86, 0.0926470
2940.53, 0.0926740
2942.2, 0.0927800
2943.87, 0.0927530
2945.54, 0.0927800
2947.22, 0.0928860
2948.89, 0.0929130
2950.57, 0.0929660
2952.25, 0.0929930
2953.93, 0.0929660
2955.62, 0.0930190
2957.3, 0.0930730
2958.99, 0.0930990
2960.68, 0.0931790
2962.37, 0.0932320
2964.07, 0.0932060
2965.76, 0.0932060
2967.46, 0.0932320
2969.16, 0.0933390
2970.86, 0.0934450
2972.56, 0.0934980
2974.27, 0.0934980
2975.98, 0.0935250
2977.69, 0.0935250
2979.4, 0.0935780
2981.11, 0.0936050
2982.83, 0.0936310
2984.54, 0.0936840
2986.26, 0.0937380
2987.98, 0.0937910
2989.71, 0.0937910
2991.43, 0.0937640
2993.16, 0.0937380
2994.89, 0.0937640
2996.62, 0.0938710
2998.35, 0.0938710
3000.09, 0.0938710
3001.83, 0.0939240
3003.57, 0.0939500
3005.31, 0.0940040
3007.05, 0.0940570
3008.79, 0.0940040
3010.54, 0.0940570
3012.29, 0.0941630
3014.04, 0.0941900
3015.8, 0.0941370
3017.55, 0.0941370
3019.31, 0.0941900
3021.07, 0.0942430
3022.83, 0.0941900
3024.59, 0.0941370
3026.36, 0.0941370
3028.13, 0.0941630
3029.9, 0.0942160
3031.67, 0.0943230
3033.44, 0.0943490
3035.22, 0.0942960
3037.0, 0.0942430
3038.78, 0.0942430
3040.56, 0.0942960
3042.34, 0.0943230
3044.13, 0.0943490
3045.92, 0.0944030
3047.71, 0.0944030
3049.5, 0.0943760
3051.3, 0.0944560
3053.09, 0.0944820
3054.89, 0.0944560
3056.69, 0.0944030
3058.5, 0.0943490
3060.3, 0.0943230
3062.11, 0.0943230
3063.92, 0.0943490
3065.73, 0.0944030
3067.55, 0.0943490
3069.36, 0.0943760
3071.18, 0.0944820
3073.0, 0.0944820
3074.82, 0.0944030
3076.65, 0.0943490
3078.48, 0.0943760
3080.31, 0.0943760
3082.14, 0.0944820
3083.97, 0.0945090
3085.8, 0.0945090
3087.64, 0.0944290
3089.48, 0.0944030
3091.33, 0.0944030
3093.17, 0.0944290
3095.02, 0.0944030
3096.87, 0.0944560
3098.72, 0.0944820
3100.57, 0.0945090
3102.43, 0.0945360
3104.28, 0.0945620
3106.14, 0.0945620
3108.01, 0.0945620
3109.87, 0.0945890
3111.74, 0.0945360
3113.61, 0.0945090
3115.48, 0.0946150
3117.35, 0.0946420
3119.23, 0.0946690
3121.1, 0.0946950
3122.98, 0.0947480
3124.87, 0.0948280
3126.75, 0.0948550
3128.64, 0.0948280
3130.53, 0.0948280
3132.42, 0.0948550
3134.31, 0.0949080
3136.21, 0.0949610
3138.11, 0.0950410
3140.01, 0.0950680
3141.91, 0.0950680
3143.82, 0.0951210
3145.73, 0.0951740
3147.64, 0.0951740
3149.55, 0.0952540
3151.46, 0.0953340
3153.38, 0.0952800
3155.3, 0.0952800
3157.22, 0.0952540
3159.14, 0.0953070
3161.07, 0.0953870
3163.0, 0.0954400
3164.93, 0.0954130
3166.86, 0.0954670
3168.8, 0.0955460
3170.74, 0.0955460
3172.68, 0.0956000
3174.62, 0.0956530
3176.56, 0.0956790
3178.51, 0.0957060
3180.46, 0.0957590
3182.42, 0.0957330
3184.37, 0.0957860
3186.33, 0.0957860
3188.29, 0.0957330
3190.25, 0.0957590
3192.21, 0.0958920
3194.18, 0.0959450
3196.15, 0.0960250
3198.12, 0.0959990
3200.09, 0.0959720
3202.07, 0.0959990
3204.05, 0.0961050
3206.03, 0.0961850
3208.02, 0.0961850
3210.0, 0.0961580
3211.99, 0.0961580
3213.98, 0.0961580
3215.98, 0.0962110
3217.97, 0.0962650
3219.97, 0.0963180
3221.97, 0.0963440
3223.98, 0.0963980
3225.98, 0.0963710
3227.99, 0.0963440
3230.0, 0.0964240
3232.02, 0.0964770
3234.03, 0.0964770
3236.05, 0.0964770
3238.07, 0.0964240
3240.1, 0.0965310
3242.12, 0.0965840
3244.15, 0.0965570
3246.18, 0.0965840
3248.22, 0.0966640
3250.25, 0.0966900
3252.29, 0.0966900
3254.33, 0.0966370
3256.38, 0.0966900
3258.43, 0.0967700
3260.47, 0.0967970
3262.53, 0.0967700
3264.58, 0.0967970
3266.64, 0.0967970
3268.7, 0.0968230
3270.76, 0.0969030
3272.82, 0.0969300
3274.89, 0.0968760
3276.96, 0.0969030
3279.04, 0.0969300
3281.11, 0.0969830
3283.19, 0.0969300
3285.27, 0.0969560
3287.35, 0.0970090
3289.44, 0.0970090
3291.53, 0.0970630
3293.62, 0.0971420
3295.71, 0.0971690
3297.81, 0.0971420
3299.91, 0.0971160
3302.01, 0.0970630
3304.11, 0.0970360
3306.22, 0.0970360
3308.33, 0.0970890
3310.44, 0.0971420
3312.56, 0.0971420
3314.68, 0.0971420
3316.8, 0.0972220
3318.92, 0.0972490
3321.05, 0.0972750
3323.18, 0.0972490
3325.31, 0.0971960
3327.44, 0.0971690
3329.58, 0.0971690
3331.72, 0.0971960
3333.86, 0.0971960
3336.01, 0.0972490
3338.16, 0.0973020
3340.31, 0.0973820
3342.46, 0.0973820
3344.61, 0.0973290
3346.77, 0.0973290
3348.94, 0.0974080
3351.1, 0.0974080
3353.27, 0.0974350
3355.44, 0.0974620
3357.61, 0.0974620
3359.79, 0.0974620
3361.97, 0.0974350
3364.15, 0.0974350
3366.33, 0.0975150
3368.52, 0.0975410
3370.71, 0.0975950
3372.9, 0.0976480
3375.1, 0.0976210
3377.3, 0.0976480
3379.5, 0.0976740
3381.71, 0.0976480
3383.91, 0.0977010
3386.12, 0.0977010
3388.34, 0.0975950
3390.55, 0.0975950
3392.77, 0.0975950
3394.99, 0.0975950
3397.22, 0.0976740
3399.45, 0.0977280
3401.68, 0.0977280
3403.91, 0.0977280
3406.15, 0.0978340
3408.39, 0.0979140
3410.63, 0.0979140
3412.87, 0.0978870
3415.12, 0.0979400
3417.37, 0.0979670
3419.63, 0.0980200
3421.88, 0.0981530
3424.14, 0.0982600
3426.41, 0.0981800
3428.67, 0.0982060
3430.94, 0.0982330
3433.21, 0.0982860
3435.49, 0.0983130
3437.77, 0.0983390
3440.05, 0.0983930
3442.33, 0.0984990
3444.62, 0.0985520
3446.91, 0.0985520
3449.2, 0.0985260
3451.5, 0.0985520
3453.8, 0.0985790
3456.1, 0.0986320
3458.41, 0.0986590
3460.72, 0.0986850
3463.03, 0.0986850
3465.34, 0.0986850
3467.66, 0.0987120
3469.98, 0.0987920
3472.31, 0.0987920
3474.63, 0.0988710
3476.96, 0.0989780
3479.3, 0.0989510
3481.64, 0.0988980
3483.97, 0.0989250
3486.32, 0.0989780
3488.66, 0.0990040
3491.01, 0.0990040
3493.36, 0.0990580
3495.72, 0.0990580
3498.08, 0.0991110
3500.44, 0.0991370
3502.81, 0.0992170
3505.18, 0.0992970
3507.55, 0.0993240
3509.92, 0.0992970
3512.3, 0.0992970
3514.68, 0.0992970
3517.06, 0.0992970
3519.45, 0.0993240
3521.84, 0.0994570
3524.24, 0.0994570
3526.64, 0.0994030
3529.04, 0.0993770
3531.44, 0.0994570
3533.85, 0.0995630
3536.26, 0.0995630
3538.67, 0.0995900
3541.09, 0.0995630
3543.51, 0.0995900
3545.93, 0.0996430
3548.36, 0.0996430
3550.79, 0.0995900
3553.22, 0.0996160
3555.66, 0.0996960
3558.1, 0.0997490
3560.54, 0.0997490
3562.99, 0.0997490
3565.44, 0.0997760
3567.9, 0.0997760
3570.35, 0.0997760
3572.81, 0.0997760
3575.28, 0.0998020
3577.75, 0.0998560
3580.22, 0.0998560
3582.69, 0.0998290
3585.17, 0.0998290
3587.65, 0.0998290
3590.14, 0.0999090
3592.62, 0.0998560
3595.11, 0.0998560
3597.61, 0.0998820
3600.11, 0.0999090
3602.61, 0.0999090
3605.11, 0.0999350
3607.62, 0.0999620
3610.14, 0.0999620
3612.65, 0.0999350
3615.17, 0.100015
3617.69, 0.100068
3620.22, 0.100042
3622.75, 0.100042
3625.28, 0.100015
3627.82, 0.100015
3630.36, 0.100042
3632.9, 0.100015
3635.45, 0.0999890
3638.0, 0.100015
3640.56, 0.100042
3643.12, 0.100068
3645.68, 0.100095
3648.24, 0.100042
3650.81, 0.100068
3653.39, 0.100122
3655.96, 0.100095
3658.54, 0.100068
3661.13, 0.100095
3663.71, 0.100068
3666.3, 0.100095
3668.9, 0.100095
3671.5, 0.100095
3674.1, 0.100122
3676.7, 0.100255
3679.31, 0.100281
3681.93, 0.100308
3684.54, 0.100281
3687.17, 0.100281
3689.79, 0.100334
3692.42, 0.100361
3695.05, 0.100334
3697.69, 0.100388
3700.32, 0.100388
3702.97, 0.100414
3705.61, 0.100467
3708.27, 0.100467
3710.92, 0.100467
3713.58, 0.100547
3716.24, 0.100600
3718.91, 0.100654
3721.58, 0.100680
3724.25, 0.100707
3726.93, 0.100760
3729.61, 0.100893
3732.29, 0.100973
3734.98, 0.100973
3737.67, 0.100973
3740.37, 0.100973
3743.07, 0.100973
3745.78, 0.101053
3748.49, 0.101106
3751.2, 0.101159
3753.91, 0.101239
3756.63, 0.101292
3759.36, 0.101292
3762.09, 0.101319
3764.82, 0.101425
3767.55, 0.101372
3770.29, 0.101372
3773.04, 0.101452
3775.78, 0.101478
3778.54, 0.101531
3781.29, 0.101611
3784.05, 0.101611
3786.82, 0.101664
3789.59, 0.101718
3792.36, 0.101691
3795.13, 0.101691
3797.92, 0.101718
3800.7, 0.101771
3803.49, 0.101797
3806.28, 0.101797
3809.08, 0.101824
3811.88, 0.101851
3814.68, 0.101797
3817.49, 0.101851
3820.31, 0.101930
3823.12, 0.101957
3825.94, 0.101984
3828.77, 0.102037
3831.6, 0.102090
3834.43, 0.102117
3837.27, 0.102090
3840.11, 0.102090
3842.96, 0.102090
3845.81, 0.102117
3848.67, 0.102170
3851.53, 0.102196
3854.39, 0.102170
3857.26, 0.102223
3860.13, 0.102250
3863.01, 0.102276
3865.89, 0.102250
3868.77, 0.102276
3871.66, 0.102329
3874.55, 0.102356
3877.45, 0.102329
3880.35, 0.102356
3883.26, 0.102383
3886.17, 0.102383
3889.09, 0.102409
3892.01, 0.102436
3894.93, 0.102383
3897.86, 0.102383
3900.79, 0.102462
3903.73, 0.102489
3906.67, 0.102409
3909.62, 0.102409
3912.57, 0.102436
3915.52, 0.102462
3918.48, 0.102436
3921.45, 0.102436
3924.42, 0.102436
3927.39, 0.102409
3930.37, 0.102383
3933.35, 0.102383
3936.34, 0.102409
3939.33, 0.102436
3942.32, 0.102409
3945.32, 0.102436
3948.33, 0.102383
3951.34, 0.102383
3954.35, 0.102409
3957.37, 0.102436
3960.39, 0.102436
3963.42, 0.102489
3966.45, 0.102516
3969.49, 0.102595
3972.53, 0.102622
3975.58, 0.102622
3978.63, 0.102675
3981.68, 0.102728
3984.75, 0.102675
3987.81, 0.102702
3990.88, 0.102782
3993.95, 0.102861
3997.03, 0.102888
4000.12, 0.102915
4003.21, 0.102941
4006.3, 0.103021
4009.4, 0.103074
4012.5, 0.103154
4015.61, 0.103180
4018.72, 0.103234
4021.84, 0.103287
4024.96, 0.103313
4028.09, 0.103393
4031.22, 0.103420
4034.36, 0.103446
4037.5, 0.103473
4040.65, 0.103500
4043.8, 0.103553
4046.96, 0.103606
4050.12, 0.103659
4053.29, 0.103659
4056.46, 0.103659
4059.64, 0.103686
4062.82, 0.103686
4066.0, 0.103686
4069.19, 0.103739
4072.39, 0.103766
4075.59, 0.103766
4078.8, 0.103819
4082.01, 0.103845
4085.23, 0.103819
4088.45, 0.103872
4091.68, 0.103925
4094.91, 0.103952
4098.15, 0.104005
4101.39, 0.104005
4104.63, 0.104005
4107.89, 0.104032
4111.14, 0.104058
4114.41, 0.104085
4117.67, 0.104111
4120.95, 0.104111
4124.23, 0.104085
4127.51, 0.104138
4130.8, 0.104165
4134.09, 0.104165
4137.39, 0.104191
4140.7, 0.104218
4144.01, 0.104271
4147.32, 0.104298
4150.64, 0.104377
4153.97, 0.104404
4157.3, 0.104404
4160.64, 0.104431
4163.98, 0.104404
4167.33, 0.104457
4170.68, 0.104457
4174.04, 0.104457
4177.4, 0.104457
4180.77, 0.104537
4184.14, 0.104564
4187.52, 0.104564
4190.91, 0.104617
4194.3, 0.104643
4197.69, 0.104697
4201.1, 0.104803
4204.5, 0.104909
4207.92, 0.105096
4211.34, 0.105229
4214.76, 0.105388
4218.19, 0.105601
4221.62, 0.105840
4225.06, 0.106080
4228.51, 0.106239
4231.96, 0.106399
4235.42, 0.106479
4238.88, 0.106426
4242.35, 0.106319
4245.83, 0.106106
4249.31, 0.105867
4252.79, 0.105654
4256.28, 0.105495
4259.78, 0.105574
4263.29, 0.105867
4266.79, 0.106106
4270.31, 0.106266
4273.83, 0.106372
4277.35, 0.106399
4280.89, 0.106399
4284.42, 0.106372
4287.97, 0.106319
4291.52, 0.106293
4295.07, 0.106293
4298.63, 0.106186
4302.2, 0.106080
4305.78, 0.106053
4309.35, 0.105973
4312.94, 0.105894
4316.53, 0.105867
4320.13, 0.105920
4323.73, 0.105867
4327.34, 0.105867
4330.96, 0.105840
4334.58, 0.105840
4338.21, 0.105840
4341.84, 0.105867
4345.48, 0.105867
4349.12, 0.105867
4352.77, 0.105867
4356.43, 0.105920
4360.1, 0.105894
4363.76, 0.105920
4367.44, 0.105973
4371.12, 0.106000
4374.81, 0.106053
4378.51, 0.106080
4382.21, 0.106080
4385.92, 0.106080
4389.63, 0.106133
4393.35, 0.106186
4397.08, 0.106186
4400.81, 0.106239
4404.55, 0.106239
4408.29, 0.106213
4412.04, 0.106213
4415.8, 0.106293
4419.57, 0.106319
4423.34, 0.106399
4427.12, 0.106426
4430.9, 0.106426
4434.69, 0.106426
4438.49, 0.106452
4442.29, 0.106505
4446.1, 0.106559
4449.92, 0.106585
4453.74, 0.106585
4457.57, 0.106612
4461.41, 0.106665
4465.25, 0.106665
4469.1, 0.106718
4472.95, 0.106745
4476.82, 0.106745
4480.69, 0.106745
4484.56, 0.106825
4488.44, 0.106878
4492.33, 0.106878
4496.23, 0.106878
4500.13, 0.106878
4504.04, 0.106931
4507.96, 0.106984
4511.88, 0.107037
4515.81, 0.107037
4519.75, 0.107064
4523.69, 0.107117
4527.65, 0.107117
4531.6, 0.107170
4535.57, 0.107197
4539.54, 0.107224
4543.52, 0.107224
4547.5, 0.107224
4551.5, 0.107277
4555.5, 0.107330
4559.5, 0.107303
4563.52, 0.107383
4567.54, 0.107383
4571.56, 0.107410
4575.6, 0.107463
4579.64, 0.107463
4583.69, 0.107490
4587.75, 0.107516
4591.81, 0.107516
4595.88, 0.107543
4599.96, 0.107596
4604.04, 0.107596
4608.14, 0.107623
4612.24, 0.107676
4616.34, 0.107702
4620.46, 0.107676
4624.58, 0.107702
4628.71, 0.107756
4632.84, 0.107756
4636.99, 0.107809
4641.14, 0.107862
4645.3, 0.107889
4649.47, 0.107889
4653.64, 0.107942
4657.82, 0.107915
4662.01, 0.107942
4666.21, 0.107942
4670.41, 0.107968
4674.62, 0.107995
4678.84, 0.108048
4683.07, 0.108075
4687.3, 0.108101
4691.54, 0.108128
4695.79, 0.108181
4700.05, 0.108155
4704.31, 0.108181
4708.59, 0.108208
4712.87, 0.108234
4717.15, 0.108261
4721.45, 0.108288
4725.76, 0.108314
4730.07, 0.108367
4734.39, 0.108367
4738.72, 0.108394
4743.05, 0.108421
4747.39, 0.108421
4751.75, 0.108474
4756.1, 0.108527
4760.47, 0.108527
4764.85, 0.108554
4769.23, 0.108554
4773.62, 0.108554
4778.02, 0.108580
4782.43, 0.108633
4786.85, 0.108687
4791.27, 0.108713
4795.7, 0.108713
4800.14, 0.108740
4804.59, 0.108713
4809.05, 0.108766
4813.51, 0.108846
4817.99, 0.108899
4822.47, 0.108926
4826.96, 0.108926
4831.46, 0.108926
4835.96, 0.108979
4840.48, 0.109032
4845.0, 0.109059
4849.54, 0.109086
4854.08, 0.109086
4858.63, 0.109112
4863.18, 0.109139
4867.75, 0.109139
4872.33, 0.109165
4876.91, 0.109192
4881.5, 0.109219
4886.1, 0.109272
4890.71, 0.109298
4895.33, 0.109378
4899.96, 0.109458
4904.59, 0.109431
4909.24, 0.109405
4913.89, 0.109405
4918.55, 0.109378
4923.22, 0.109378
4927.9, 0.109458
4932.59, 0.109511
4937.29, 0.109538
4942.0, 0.109591
4946.71, 0.109671
4951.44, 0.109751
4956.17, 0.109804
4960.91, 0.109751
4965.67, 0.109724
4970.43, 0.109724
4975.2, 0.109751
4979.98, 0.109751
4984.76, 0.109751
4989.56, 0.109777
4994.37, 0.109830
4999.18, 0.109857
5004.01, 0.109884
5008.84, 0.109857
5013.69, 0.109910
5018.54, 0.110123
5023.4, 0.110176
5028.28, 0.110096
5033.16, 0.110017
5038.05, 0.110017
5042.95, 0.110070
5047.86, 0.110070
5052.78, 0.110070
5057.71, 0.110070
5062.65, 0.110096
5067.6, 0.110123
5072.56, 0.110176
5077.53, 0.110256
5082.5, 0.110389
5087.49, 0.110362
5092.49, 0.110309
5097.5, 0.110309
5102.51, 0.110362
5107.54, 0.110362
5112.58, 0.110416
5117.62, 0.110416
5122.68, 0.110416
5127.75, 0.110442
5132.82, 0.110575
5137.91, 0.110655
5143.01, 0.110868
5148.12, 0.111054
5153.23, 0.110841
5158.36, 0.110682
5163.5, 0.110655
5168.65, 0.110735
5173.81, 0.110788
5178.98, 0.110788
5184.15, 0.110815
5189.34, 0.110815
5194.54, 0.110974
5199.75, 0.111240
5204.98, 0.111160
5210.21, 0.111506
5215.45, 0.111639
5220.7, 0.111160
5225.96, 0.111054
5231.23, 0.111160
5236.52, 0.111347
5241.81, 0.111320
5247.12, 0.111240
5252.44, 0.111214
5257.76, 0.111214
5263.1, 0.111214
5268.45, 0.111320
5273.81, 0.111480
5279.18, 0.111453
5284.56, 0.111426
5289.95, 0.111879
5295.36, 0.111825
5300.77, 0.111506
5306.2, 0.111533
5311.63, 0.111559
5317.08, 0.111533
5322.54, 0.111559
5328.01, 0.111559
5333.49, 0.111639
5338.98, 0.111692
5344.49, 0.112224
5350.0, 0.112969
5355.53, 0.112597
5361.07, 0.111985
5366.62, 0.111825
5372.18, 0.111852
5377.75, 0.111879
5383.34, 0.111932
5388.93, 0.111958
5394.54, 0.111958
5400.16, 0.111932
5405.79, 0.112091
5411.44, 0.112331
5417.09, 0.113235
5422.76, 0.114086
5428.43, 0.112916
5434.12, 0.112251
5439.83, 0.112304
5445.54, 0.112331
5451.26, 0.112278
5457.0, 0.112623
5462.75, 0.113554
5468.52, 0.113342
5474.29, 0.113049
5480.08, 0.113235
5485.88, 0.112623
5491.69, 0.112411
5497.51, 0.112464
5503.35, 0.112597
5509.2, 0.112544
5515.06, 0.112703
5520.93, 0.112969
5526.82, 0.112943
5532.71, 0.112703
5538.63, 0.112703
5544.55, 0.112969
5550.49, 0.113554
5556.44, 0.113581
5562.4, 0.113182
5568.37, 0.113182
5574.36, 0.114326
5580.36, 0.114964
5586.37, 0.113714
5592.4, 0.112996
5598.44, 0.113342
5604.49, 0.113475
5610.56, 0.113421
5616.63, 0.113608
5622.73, 0.113342
5628.83, 0.113395
5634.95, 0.114512
5641.08, 0.116214
5647.23, 0.115363
5653.39, 0.114432
5659.56, 0.113874
5665.74, 0.113315
5671.94, 0.114273
5678.15, 0.114485
5684.38, 0.113874
5690.62, 0.114166
5696.87, 0.113874
5703.14, 0.114140
5709.42, 0.115576
5715.72, 0.115549
5722.03, 0.114911
5728.35, 0.114406
5734.69, 0.114485
5741.03, 0.114911
5747.4, 0.115682
5753.78, 0.114911
5760.17, 0.116401
5766.58, 0.118768
5773.0, 0.116427
5779.44, 0.114751
5785.88, 0.114246
5792.35, 0.113927
5798.83, 0.114166
5805.32, 0.114166
5811.83, 0.114991
5818.35, 0.117651
5824.89, 0.118316
5831.45, 0.116454
5838.01, 0.115017
5844.59, 0.114432
5851.19, 0.114778
5857.8, 0.115629
5864.43, 0.116214
5871.07, 0.116161
5877.73, 0.119885
5884.4, 0.120071
5891.09, 0.118263
5897.79, 0.118662
5904.5, 0.115842
5911.23, 0.114911
5917.98, 0.115230
5924.75, 0.115549
5931.53, 0.118449
5938.32, 0.120391
5945.13, 0.117039
5951.96, 0.115496
5958.8, 0.115416
5965.65, 0.117172
5972.53, 0.117119
5979.42, 0.116294
5986.32, 0.117598
5993.24, 0.117252
6000.18, 0.115443
6007.13, 0.115682
6014.1, 0.116587
6021.08, 0.115682
6028.09, 0.115071
6035.1, 0.115629
6042.14, 0.119646
6049.19, 0.123982
6056.25, 0.119247
6063.34, 0.117039
6070.44, 0.118954
6077.55, 0.118183
6084.69, 0.115975
6091.84, 0.115416
6099.0, 0.115762
6106.19, 0.117731
6113.39, 0.120045
6120.61, 0.117704
6127.84, 0.115576
6135.09, 0.115789
6142.36, 0.116401
6149.65, 0.116454
6156.95, 0.117278
6164.27, 0.116933
6171.61, 0.115895
6178.97, 0.117571
6186.34, 0.119061
6193.73, 0.116853
6201.14, 0.115762
6208.57, 0.115869
6216.01, 0.115975
6223.47, 0.115895
6230.95, 0.115869
6238.45, 0.115922
6245.97, 0.115869
6253.5, 0.115789
6261.06, 0.115922
6268.63, 0.116055
6276.21, 0.116055
6283.82, 0.116002
6291.45, 0.116055
6299.1, 0.116002
6306.76, 0.116081
6314.44, 0.116055
6322.14, 0.116135
6329.86, 0.116294
6337.6, 0.118369
6345.35, 0.120045
6353.13, 0.117651
6360.92, 0.117092
6368.74, 0.118741
6376.57, 0.118050
6384.43, 0.117199
6392.3, 0.117358
6400.19, 0.118209
6408.1, 0.123237
6416.03, 0.125790
6423.98, 0.121375
6431.95, 0.119406
6439.94, 0.118289
6447.95, 0.117784
6455.98, 0.117624
6464.03, 0.117784
6472.1, 0.119300
6480.19, 0.121109
6488.31, 0.123982
6496.44, 0.123849
6504.59, 0.119566
6512.76, 0.118449
6520.95, 0.119619
6529.16, 0.118209
6537.4, 0.117757
6545.65, 0.118529
6553.92, 0.119273
6562.22, 0.119912
6570.54, 0.121933
6578.88, 0.120896
6587.23, 0.119726
6595.61, 0.119327
6604.02, 0.118236
6612.44, 0.118289
6620.89, 0.118848
6629.35, 0.121774
6637.84, 0.124168
6646.35, 0.120524
6654.88, 0.117651
6663.44, 0.118023
6672.01, 0.119273
6680.61, 0.120071
6689.23, 0.118821
6697.88, 0.117997
6706.54, 0.119353
6715.23, 0.119805
6723.94, 0.119007
6732.67, 0.118050
6741.42, 0.117677
6750.2, 0.117890
6759.0, 0.117864
6767.82, 0.118608
6776.67, 0.119672
6785.54, 0.121215
6794.44, 0.120976
6803.35, 0.118688
6812.29, 0.118156
6821.26, 0.119406
6830.24, 0.119672
6839.25, 0.118529
6848.29, 0.119406
6857.35, 0.122572
6866.43, 0.123157
6875.54, 0.119699
6884.67, 0.118502
6893.82, 0.118475
6903.0, 0.119061
6912.2, 0.118795
6921.43, 0.118263
6930.69, 0.118209
6939.96, 0.118316
6949.27, 0.119247
6958.59, 0.121189
6967.95, 0.120045
6977.33, 0.118688
6986.73, 0.119007
6996.16, 0.119140
7005.61, 0.118688
7015.09, 0.118848
7024.6, 0.119061
7034.13, 0.119593
7043.69, 0.121401
7053.27, 0.120657
7062.88, 0.119114
7072.52, 0.118768
7082.18, 0.118795
7091.87, 0.118821
7101.58, 0.118848
7111.32, 0.119300
7121.09, 0.119433
7130.88, 0.119114
7140.71, 0.119752
7150.56, 0.120231
7160.43, 0.120258
7170.33, 0.120577
7180.27, 0.119752
7190.23, 0.119353
7200.21, 0.119965
7210.23, 0.120337
7220.27, 0.119672
7230.34, 0.119406
7240.44, 0.119433
7250.56, 0.119593
7260.72, 0.119752
7270.9, 0.120258
7281.12, 0.120311
7291.36, 0.119859
7301.63, 0.119859
7311.93, 0.119859
7322.25, 0.119859
7332.61, 0.120470
7343.0, 0.120603
7353.41, 0.120125
7363.86, 0.119832
7374.33, 0.119885
7384.83, 0.119938
7395.37, 0.119885
7405.93, 0.119965
7416.53, 0.120071
7427.15, 0.120098
7437.81, 0.120151
7448.5, 0.120284
7459.22, 0.120683
7469.96, 0.120763
7480.74, 0.120524
7491.55, 0.120364
7502.39, 0.120391
7513.27, 0.120444
7524.17, 0.120497
7535.11, 0.120524
7546.08, 0.120524
7557.08, 0.120603
7568.11, 0.120683
7579.17, 0.120816
7590.27, 0.120843
7601.4, 0.120816
7612.56, 0.120896
7623.76, 0.120896
7634.98, 0.120976
7646.24, 0.121109
7657.54, 0.121215
7668.87, 0.121322
7680.23, 0.121455
7691.62, 0.121561
7703.05, 0.121667
7714.51, 0.121800
7726.01, 0.121933
7737.54, 0.122040
7749.11, 0.122146
7760.71, 0.122279
7772.35, 0.122412
7784.02, 0.122465
7795.72, 0.122598
7807.46, 0.122705
7819.23, 0.122758
7831.04, 0.122864
7842.89, 0.122997
7854.77, 0.123051
7866.69, 0.123184
7878.65, 0.123237
7890.64, 0.123370
7902.67, 0.123450
7914.74, 0.123529
7926.84, 0.123583
7938.98, 0.123662
7951.16, 0.123689
7963.37, 0.123795
7975.62, 0.123875
7987.91, 0.123982
8000.24, 0.124035
8012.6, 0.124061
8025.01, 0.123982
8037.45, 0.123928
8049.93, 0.123902
8062.45, 0.123875
8075.01, 0.123875
8087.61, 0.123875
8100.24, 0.123928
8112.91, 0.124035
8125.63, 0.124115
8138.39, 0.124221
8151.18, 0.124301
8164.02, 0.124407
8176.9, 0.124434
8189.81, 0.124487
8202.77, 0.124460
8215.77, 0.124487
8228.82, 0.124514
8241.9, 0.124567
8255.02, 0.124620
8268.19, 0.124700
8281.39, 0.124673
8294.65, 0.124726
8307.94, 0.124726
8321.28, 0.124780
8334.66, 0.124859
8348.08, 0.124886
8361.54, 0.124886
8375.05, 0.124913
8388.6, 0.124913
8402.2, 0.124939
8415.84, 0.125019
8429.52, 0.125099
8443.25, 0.125179
8457.02, 0.125205
8470.84, 0.125179
8484.7, 0.125232
8498.61, 0.125258
8512.57, 0.125312
8526.57, 0.125258
8540.62, 0.125258
8554.71, 0.125312
8568.85, 0.125445
8583.04, 0.125471
8597.27, 0.125418
8611.55, 0.125418
8625.88, 0.125418
8640.26, 0.125418
8654.68, 0.125524
8669.16, 0.125578
8683.68, 0.125657
8698.25, 0.125737
8712.87, 0.125790
8727.53, 0.125764
8742.25, 0.125870
8757.02, 0.125844
8771.83, 0.125764
8786.7, 0.125790
8801.62, 0.125817
8816.59, 0.125844
8831.61, 0.125870
8846.68, 0.125897
8861.8, 0.126003
8876.97, 0.126056
8892.2, 0.126083
8907.48, 0.126083
8922.81, 0.126109
8938.2, 0.126109
8953.63, 0.126109
8969.13, 0.126109
8984.67, 0.126189
9000.27, 0.126216
9015.92, 0.126189
9031.63, 0.126163
9047.39, 0.126216
9063.21, 0.126242
9079.08, 0.126216
9095.01, 0.126269
9111.0, 0.126402
9127.04, 0.126349
9143.13, 0.126375
9159.28, 0.126402
9175.49, 0.126402
9191.76, 0.126429
9208.09, 0.126482
9224.47, 0.126482
9240.92, 0.126588
9257.42, 0.126641
9273.98, 0.126615
9290.6, 0.126721
9307.28, 0.126801
9324.02, 0.126854
9340.82, 0.126934
9357.68, 0.127014
9374.6, 0.127120
9391.58, 0.127227
9408.62, 0.127227
9425.73, 0.127280
9442.9, 0.127333
9460.13, 0.127333
9477.42, 0.127413
9494.78, 0.127572
9512.2, 0.127652
9529.69, 0.127705
9547.24, 0.127865
9564.86, 0.127971
9582.54, 0.127998
9600.28, 0.128078
9618.1, 0.128131
9635.97, 0.128078
9653.92, 0.128131
9671.93, 0.128237
9690.01, 0.128344
9708.16, 0.128424
9726.37, 0.128530
9744.65, 0.128610
9763.0, 0.128636
9781.43, 0.128716
9799.92, 0.128902
9818.48, 0.128982
9837.1, 0.129062
9855.8, 0.129089
9874.58, 0.129089
9893.42, 0.129089
9912.34, 0.129115
9931.33, 0.129195
9950.39, 0.129222
9969.52, 0.129195
9988.74, 0.129222
10008.0, 0.129222
10027.4, 0.129275
10046.8, 0.129275
10066.3, 0.129275
10085.9, 0.129222
10105.6, 0.129248
10125.3, 0.129248
10145.1, 0.129248
10165.0, 0.129222
10185.0, 0.129248
10205.0, 0.129275
10225.2, 0.129275
10245.4, 0.129301
10265.7, 0.129301
10286.0, 0.129328
10306.5, 0.129381
10327.0, 0.129328
10347.6, 0.129355
10368.3, 0.129408
10389.1, 0.129381
10409.9, 0.129381
10430.9, 0.129434
10451.9, 0.129355
10473.0, 0.129275
10494.2, 0.129301
10515.5, 0.129275
10536.9, 0.129089
10558.4, 0.129142
10579.9, 0.129222
10601.5, 0.129301
10623.3, 0.129355
10645.1, 0.129434
10667.0, 0.129488
10689.0, 0.129567
10711.1, 0.129700
10733.2, 0.129780
10755.5, 0.129780
10777.9, 0.129887
10800.3, 0.129993
10822.9, 0.130126
10845.5, 0.130179
10868.2, 0.130259
10891.1, 0.130392
10914.0, 0.130525
10937.0, 0.130605
10960.2, 0.130631
10983.4, 0.130764
11006.7, 0.131004
11030.1, 0.131084
11053.6, 0.131190
11077.3, 0.131323
11101.0, 0.131376
11124.8, 0.131403
11148.7, 0.131562
11172.7, 0.131695
11196.9, 0.131802
11221.1, 0.131961
11245.4, 0.132121
11269.9, 0.132148
11294.4, 0.132201
11319.1, 0.132334
11343.9, 0.132493
11368.8, 0.132626
11393.7, 0.132733
11418.8, 0.132892
11444.0, 0.133025
11469.4, 0.133185
11494.8, 0.133318
11520.3, 0.133398
11546.0, 0.133557
11571.8, 0.133664
11597.7, 0.133850
11623.7, 0.134036
11649.8, 0.134089
11676.0, 0.134143
11702.4, 0.134329
11728.9, 0.134409
11755.5, 0.134542
11782.2, 0.134701
11809.0, 0.134834
11836.0, 0.134994
11863.0, 0.135127
11890.3, 0.135180
11917.6, 0.135393
11945.0, 0.135499
11972.6, 0.135552
12000.4, 0.135659
12028.2, 0.135872
12056.2, 0.136164
12084.3, 0.136324
12112.5, 0.136404
12140.9, 0.136537
12169.4, 0.136537
12198.0, 0.136643
12226.8, 0.136882
12255.7, 0.136962
12284.7, 0.136989
12313.9, 0.137122
12343.2, 0.137281
12372.7, 0.137494
12402.3, 0.137601
12432.0, 0.137680
12461.9, 0.137734
12491.9, 0.137760
12522.1, 0.137893
12552.4, 0.138000
12582.9, 0.138053
12613.5, 0.138212
12644.3, 0.138292
12675.2, 0.138452
12706.3, 0.138718
12737.5, 0.138984
12768.9, 0.139064
12800.4, 0.139250
12832.1, 0.139409
12863.9, 0.139356
12895.9, 0.139436
12928.1, 0.139782
12960.4, 0.139888
12992.9, 0.139968
13025.5, 0.140154
13058.3, 0.140207
13091.3, 0.140234
13124.4, 0.140367
13157.8, 0.140580
13191.2, 0.140660
13224.9, 0.140633
13258.7, 0.140739
13292.7, 0.140899
13326.9, 0.141085
13361.2, 0.141298
13395.7, 0.141271
13430.4, 0.141351
13465.3, 0.141644
13500.4, 0.141830
13535.7, 0.141910
13571.1, 0.142096
13606.7, 0.142362
13642.5, 0.142548
13678.5, 0.142734
13714.7, 0.142974
13751.1, 0.143266
13787.6, 0.143612
13824.4, 0.144064
13861.4, 0.144277
13898.5, 0.144490
13935.9, 0.144729
13973.5, 0.145049
14011.2, 0.145394
14049.2, 0.145793
14087.4, 0.146059
14125.8, 0.146246
14164.3, 0.146432
14203.2, 0.146857
14242.2, 0.147256
14281.4, 0.147576
14320.9, 0.147815
14360.5, 0.148028
14400.4, 0.148347
14440.5, 0.148773
14480.9, 0.149039
14521.4, 0.149304
14562.2, 0.149544
14603.3, 0.149916
14644.5, 0.150156
14686.0, 0.150528
14727.7, 0.150874
14769.7, 0.151299
14811.9, 0.151645
14854.3, 0.152071
14897.0, 0.152443
14939.9, 0.153507
14983.1, 0.154305
15026.5, 0.154225
15070.2, 0.154385
15114.2, 0.154837
15158.3, 0.155449
15202.8, 0.155981
15247.5, 0.156380
15292.5, 0.156939
15337.7, 0.157444
15383.2, 0.157949
15429.0, 0.158614
15475.1, 0.159226
15521.4, 0.159758
15568.0, 0.160503
15614.9, 0.161141
15662.1, 0.161700
15709.6, 0.162179
15757.3, 0.162551
15805.4, 0.162817
15853.7, 0.163296
15902.3, 0.163881
15951.2, 0.164546
16000.5, 0.165397
16050.0, 0.166089
16099.8, 0.166727
16150.0, 0.167419
16200.5, 0.168137
16251.3, 0.169015
16302.4, 0.169627
16353.8, 0.170372
16405.5, 0.171462
16457.6, 0.172632
16510.0, 0.173537
16562.8, 0.174681
16615.9, 0.175904
16669.3, 0.177128
16723.1, 0.178112
16777.2, 0.179522
16831.7, 0.181144
16886.5, 0.182953
16941.7, 0.184682
16997.2, 0.186411
17053.1, 0.188539
17109.4, 0.190986
17166.1, 0.193540
17223.1, 0.196466
17280.5, 0.199578
17338.3, 0.202930
17396.5, 0.206015
17455.1, 0.209367
17514.0, 0.212825
17573.4, 0.216176
17633.2, 0.219368
17693.4, 0.221603
17754.0, 0.222746
17815.0, 0.223066
17876.4, 0.222135
17938.3, 0.220193
18000.5, 0.217320
18063.3, 0.213942
18126.4, 0.210138
18190.0, 0.206281
18254.1, 0.202451
18318.6, 0.199073
18383.5, 0.195588
18449.0, 0.192769
18514.9, 0.190587
18581.2, 0.188247
18648.0, 0.186198
18715.4, 0.184842
18783.2, 0.183299
18851.5, 0.182075
18920.3, 0.180878
18989.6, 0.180054
19059.4, 0.178804
19129.7, 0.177846
19200.6, 0.177553
19272.0, 0.177181
19343.9, 0.176702
19416.3, 0.175904
19489.3, 0.175425
19562.8, 0.175452
19637.0, 0.175399
19711.6, 0.175398
19786.8, 0.175536
19862.6, 0.175443
19939.0, 0.175218
20016.0, 0.174922
20093.6, 0.174629
20171.8, 0.174514
20250.6, 0.174739
20330.0, 0.175285
20410.0, 0.176048
20490.7, 0.176780
20572.0, 0.177243
20654.0, 0.177437
20736.6, 0.177461
20819.9, 0.177573
20903.8, 0.177969
20988.5, 0.178411
21073.8, 0.178599
21159.8, 0.178479
21246.5, 0.178120
21334.0, 0.177845
21422.1, 0.177946
21511.0, 0.178275
21600.7, 0.178577
21691.0, 0.178638
21782.1, 0.178366
21874.0, 0.178139
21966.7, 0.178321
22060.2, 0.178683
22154.5, 0.178923
22249.6, 0.179113
22345.5, 0.179441
22442.2, 0.180155
22539.8, 0.181438
22638.2, 0.183078
22737.5, 0.184782
22837.7, 0.186340
22938.7, 0.187587
23040.7, 0.188447
23143.5, 0.188892
23247.3, 0.188991
23352.1, 0.188830
23457.7, 0.188447
23564.4, 0.187884
23672.0, 0.187224
23780.5, 0.186594
23890.1, 0.186227
24000.7, 0.186337
24112.3, 0.186907
24225.0, 0.187846
24338.7, 0.189014
24453.5, 0.190315
24569.4, 0.191914
24686.4, 0.193956
24804.5, 0.196218
24923.8, 0.198447
25044.2, 0.200704
25165.8, 0.203137
25288.6, 0.205914
25412.5, 0.209115
25537.7, 0.212416
25664.1, 0.215442
25791.8, 0.218080
25920.8, 0.220319
26051.1, 0.222294
26182.6, 0.224135
26315.5, 0.225761
26449.8, 0.227110
26585.4, 0.228434
26722.5, 0.230114
26860.9, 0.232693
27000.8, 0.236553
27142.1, 0.241166
27285.0, 0.245920
27429.4, 0.250907
27575.3, 0.256293
27722.7, 0.261759
27871.8, 0.266958
28022.4, 0.272000
28174.7, 0.277095
28328.7, 0.282353
28484.4, 0.287849
28641.7, 0.293614
28800.9, 0.299387
28961.8, 0.303741
29124.5, 0.305317
29289.0, 0.304534
29455.4, 0.302237
29623.8, 0.299028
29794.0, 0.295418
29966.3, 0.291732
30140.5, 0.288133
30316.7, 0.284278
30495.1, 0.279886
30675.5, 0.275533
30858.1, 0.272004
31042.8, 0.269916
31229.8, 0.269540
31419.1, 0.269825
31610.7, 0.269627
31804.6, 0.269033
32000.9, 0.268452
32199.7, 0.268240
32400.9, 0.268515
32604.8, 0.268421
32811.1, 0.267233
33020.1, 0.266019
33231.8, 0.266142
33446.2, 0.268037
33663.4, 0.271548
33883.4, 0.275060
34106.3, 0.276991
34332.1, 0.277823
34561.0, 0.278518
34792.9, 0.279635
35028.0, 0.281283
35266.3, 0.282059
35507.8, 0.280827
35752.7, 0.279499
36001.0, 0.280348
36252.8, 0.283373
36508.1, 0.287749
36767.0, 0.291778
37029.7, 0.293950
37296.1, 0.294814
37566.3, 0.295466
37840.5, 0.296830
38118.8, 0.299426
38401.2, 0.302109
38687.8, 0.303486
38978.6, 0.303242
39273.9, 0.301645
39573.7, 0.300206
39878.1, 0.300299
40187.3, 0.300999
40501.2, 0.301272
40820.0, 0.302427
41144.0, 0.305873
41473.2, 0.310514
41807.6, 0.314703
42147.5, 0.317651
42493.0, 0.318939
42844.2, 0.318897
43201.2, 0.317907
43564.3, 0.315635
43933.5, 0.312050
44309.0, 0.309291
44691.0, 0.309585
45079.6, 0.312531
45475.0, 0.316888
45877.5, 0.321027
46287.1, 0.323448
46704.2, 0.324017
47128.7, 0.323183
47561.1, 0.322273
48001.5, 0.322460
48450.1, 0.322930
48907.2, 0.322668
49373.0, 0.322363
49847.7, 0.322844
50331.5, 0.323360
50825.0, 0.323101
51328.2, 0.323043
51841.5, 0.324255
52365.1, 0.325807
52899.4, 0.326383
53444.8, 0.325671
54001.5, 0.323881
54570.1, 0.322318
55150.6, 0.322071
55743.6, 0.321639
56349.5, 0.319423
56968.7, 0.316972
57601.7, 0.316258
58248.9, 0.316835
58910.9, 0.317810
59588.1, 0.319486
60281.0, 0.322274
60990.2, 0.325490
61716.3, 0.328083
62459.8, 0.329001
63221.6, 0.327489
64002.1, 0.324380
64802.1, 0.320881
65622.1, 0.317538
66463.4, 0.315108
67326.6, 0.315929
68212.4, 0.321619
69121.9, 0.327958
70056.0, 0.329934
71015.7, 0.327982
72002.0, 0.324270
73016.3, 0.321321
74059.4, 0.321062
75132.7, 0.321434
76237.6, 0.320002
77375.5, 0.318625
78547.9, 0.319680
79756.3, 0.321480
81002.5, 0.321703
82288.5, 0.321253
83615.7, 0.321905
84986.5, 0.324607
86402.9, 0.329648
87867.4, 0.335143
89382.4, 0.338684
90950.5, 0.339354
92574.6, 0.337009
94257.2, 0.333259
96002.7, 0.330011
97814.1, 0.327212
99695.1, 0.324565
101650.0, 0.323428
103683.0, 0.325193
105799.0, 0.328412
108003.0, 0.330945
110301.0, 0.332445
112699.0, 0.333112
115204.0, 0.333215
117822.0, 0.332871
120562.0, 0.331221
123433.0, 0.327589
126443.0, 0.324107
129604.0, 0.323258
132926.0, 0.323428
136424.0, 0.322121
140111.0, 0.320347
144003.0, 0.320131
148118.0, 0.321888
152474.0, 0.325189
157095.0, 0.328050
162004.0, 0.328182
167231.0, 0.326215
172805.0, 0.326215
178764.0, 0.326215
185148.0, 0.326215
192005.0, 0.326215
199390.0, 0.326215
207366.0, 0.326215
216006.0, 0.326215
