Database of Origin, USGS Spectral Database
Sample Description, See USGS database for additional info
Date Added,2016-08-10 05:02:56.749200

Data ID,USGS_lep03          
Sample ID, lepidolite_hs167.12655
Mineral Name, lepidolite
Material Class,Phyllosilicate

Wavelength
221.1, 0.185077
229.1, 0.186200
236.1, 0.181512
242.1, 0.180258
248.1, 0.181299
253.6, 0.184025
258.6, 0.187708
263.6, 0.192649
268.6, 0.199034
273.1, 0.206159
277.1, 0.210634
281.1, 0.221524
285.1, 0.230540
289.1, 0.243574
293.1, 0.258263
297.1, 0.274366
301.1, 0.291385
305.1, 0.319013
309.1, 0.339850
313.1, 0.366851
317.1, 0.396140
321.1, 0.422235
325.1, 0.450321
329.1, 0.475584
333.1, 0.496802
337.1, 0.525679
341.1, 0.543121
345.1, 0.562427
349.1, 0.592466
353.1, 0.600319
357.1, 0.614792
360.6, 0.627752
363.6, 0.639413
366.6, 0.649519
369.6, 0.659715
372.6, 0.668405
375.6, 0.673584
378.6, 0.675865
381.1, 0.681682
383.1, 0.682284
385.1, 0.687592
387.1, 0.688268
389.1, 0.688420
391.1, 0.693124
393.1, 0.690012
395.1, 0.691537
397.1, 0.690583
399.1, 0.690355
401.1, 0.690808
403.1, 0.686579
405.1, 0.685893
407.1, 0.680727
409.1, 0.681086
411.1, 0.681380
412.8, 0.675892
415.8, 0.672940
418.8, 0.672001
421.8, 0.671338
424.8, 0.666929
427.8, 0.662339
430.8, 0.661198
433.8, 0.654764
436.8, 0.654574
439.8, 0.655312
442.8, 0.651143
445.8, 0.653291
448.8, 0.651238
451.3, 0.654348
453.3, 0.648820
455.3, 0.652449
457.3, 0.654949
459.3, 0.653466
461.3, 0.656405
463.3, 0.656237
465.3, 0.653095
467.3, 0.657049
469.3, 0.655182
471.3, 0.659577
473.3, 0.659272
475.3, 0.660785
477.3, 0.660340
479.3, 0.663357
481.3, 0.662755
483.3, 0.663549
485.3, 0.665907
487.3, 0.666688
489.3, 0.668432
491.3, 0.668201
493.3, 0.670057
495.3, 0.670615
497.3, 0.670441
499.3, 0.670483
501.3, 0.668978
503.3, 0.669177
505.3, 0.669261
507.3, 0.663379
509.3, 0.663799
511.3, 0.663174
513.3, 0.663840
515.3, 0.663637
517.3, 0.663033
519.3, 0.662358
521.3, 0.659358
523.3, 0.661093
525.3, 0.660591
527.3, 0.660955
529.3, 0.662051
531.3, 0.652799
533.3, 0.658847
535.3, 0.657803
537.3, 0.658140
539.3, 0.658397
541.3, 0.660145
543.3, 0.659347
545.3, 0.655741
547.3, 0.662123
549.3, 0.655995
551.3, 0.658769
553.3, 0.656858
555.3, 0.659830
557.3, 0.658836
559.3, 0.660039
561.3, 0.659991
563.3, 0.662513
565.3, 0.661312
567.3, 0.664496
569.3, 0.664455
571.3, 0.664871
573.3, 0.667039
575.3, 0.664858
577.3, 0.671722
579.3, 0.670170
581.3, 0.676416
583.3, 0.679516
585.3, 0.678284
587.3, 0.683309
589.3, 0.683542
591.3, 0.690199
593.3, 0.689088
595.3, 0.693664
597.3, 0.696666
599.3, 0.693769
601.1, 0.695057
602.7, 0.702562
604.3, 0.703296
605.9, 0.708894
607.5, 0.704728
609.1, 0.707589
610.7, 0.714144
612.3, 0.716073
613.9, 0.714052
615.5, 0.716778
617.1, 0.717600
618.7, 0.717628
620.3, 0.718833
621.9, 0.722566
623.5, 0.720686
625.1, 0.726517
626.7, 0.728010
628.3, 0.729548
629.9, 0.725817
631.7, 0.730837
633.7, 0.729555
635.7, 0.731342
637.7, 0.732521
639.7, 0.732511
641.7, 0.735212
643.7, 0.733069
645.7, 0.733273
647.7, 0.735588
649.7, 0.736218
651.7, 0.734865
653.7, 0.737043
655.7, 0.733953
657.7, 0.737325
659.7, 0.733199
661.7, 0.735622
663.7, 0.735508
665.7, 0.736282
667.7, 0.734863
670.2, 0.730636
673.2, 0.735926
676.2, 0.734898
679.2, 0.732566
682.2, 0.736160
685.2, 0.734025
688.2, 0.730676
691.2, 0.730548
694.2, 0.732280
697.2, 0.725157
700.2, 0.729357
702.0, 0.725502
704.0, 0.725977
706.0, 0.727472
708.0, 0.726684
710.0, 0.728495
712.0, 0.725941
714.0, 0.727551
716.0, 0.724812
718.0, 0.724836
720.0, 0.723964
722.0, 0.726144
724.0, 0.722404
726.0, 0.724012
728.0, 0.721905
730.0, 0.720049
732.0, 0.726064
734.0, 0.723053
736.0, 0.722577
738.0, 0.720503
740.0, 0.725259
742.0, 0.725787
744.0, 0.722880
746.0, 0.724171
748.0, 0.722261
750.5, 0.717599
753.5, 0.721500
756.5, 0.724652
759.5, 0.723840
762.5, 0.723165
765.5, 0.723662
768.5, 0.722994
771.5, 0.725608
774.5, 0.723472
777.5, 0.726088
781.0, 0.722508
785.0, 0.724348
789.0, 0.727969
793.0, 0.727557
797.0, 0.727068
801.5, 0.731472
806.5, 0.725965
811.5, 0.731423
816.5, 0.730673
822.0, 0.732237
828.0, 0.736830
835.0, 0.734949
843.0, 0.738674
851.0, 0.745492
859.0, 0.751865
871.0, 0.752134
883.0, 0.752773
894.0, 0.753887
904.0, 0.758420
914.0, 0.763020
924.0, 0.765567
933.0, 0.770283
941.0, 0.764455
949.0, 0.764287
957.0, 0.769568
964.0, 0.776380
970.0, 0.780641
976.0, 0.781289
982.0, 0.783745
988.0, 0.786983
994.0, 0.788598
1000.0, 0.789732
1006.0, 0.794154
1012.0, 0.791332
1018.0, 0.798515
1023.5, 0.795169
1028.5, 0.795975
1033.5, 0.796669
1038.5, 0.802523
1043.5, 0.802277
1048.5, 0.808569
1053.5, 0.803326
1058.5, 0.808114
1063.5, 0.810148
1068.5, 0.813313
1073.5, 0.813730
1078.5, 0.812504
1083.5, 0.814418
1088.5, 0.811607
1093.5, 0.817336
1098.5, 0.819289
1103.5, 0.822803
1108.5, 0.822649
1113.5, 0.821378
1118.5, 0.824980
1123.5, 0.824234
1128.5, 0.825896
1133.5, 0.829618
1138.5, 0.829515
1143.5, 0.830187
1148.5, 0.832248
1153.5, 0.831840
1158.5, 0.831355
1163.5, 0.833036
1168.5, 0.835979
1173.5, 0.839970
1178.5, 0.839058
1183.5, 0.839444
1188.5, 0.842525
1193.5, 0.835465
1198.5, 0.836279
1203.5, 0.841977
1208.5, 0.840698
1213.5, 0.843613
1218.5, 0.841754
1223.5, 0.842032
1228.5, 0.842127
1233.5, 0.841973
1238.5, 0.843027
1243.5, 0.841936
1248.5, 0.845853
1253.5, 0.848676
1258.5, 0.848127
1263.5, 0.850052
1268.5, 0.850318
1273.5, 0.848200
1278.5, 0.848735
1283.5, 0.843890
1288.5, 0.848223
1293.5, 0.844513
1298.5, 0.843823
1303.5, 0.840840
1308.5, 0.843763
1313.5, 0.844300
1318.5, 0.841925
1323.5, 0.843732
1328.5, 0.844284
1333.5, 0.848022
1338.5, 0.849350
1343.5, 0.848069
1348.5, 0.846003
1353.5, 0.844450
1358.5, 0.841111
1363.5, 0.835642
1368.5, 0.826429
1373.5, 0.799020
1378.5, 0.784544
1383.5, 0.758087
1388.5, 0.691201
1393.5, 0.635699
1398.5, 0.610874
1403.5, 0.596502
1408.5, 0.646844
1413.5, 0.738393
1418.5, 0.789012
1423.5, 0.813700
1428.5, 0.828790
1433.5, 0.836955
1438.5, 0.842714
1443.5, 0.847282
1448.5, 0.851569
1453.5, 0.851332
1458.5, 0.854218
1463.5, 0.856102
1468.5, 0.858962
1473.5, 0.862382
1478.5, 0.856660
1483.5, 0.859679
1488.5, 0.860605
1493.5, 0.866152
1498.5, 0.862000
1503.5, 0.860204
1508.5, 0.858605
1513.5, 0.864117
1518.5, 0.863208
1523.5, 0.863286
1528.5, 0.863328
1534.0, 0.865253
1540.0, 0.865044
1546.0, 0.861128
1552.0, 0.864267
1558.0, 0.865823
1564.0, 0.865719
1570.5, 0.864622
1577.5, 0.870126
1584.5, 0.868123
1591.5, 0.869937
1598.5, 0.869170
1605.5, 0.869061
1612.5, 0.868792
1619.5, 0.871498
1626.5, 0.872750
1633.5, 0.870149
1640.5, 0.874952
1647.5, 0.869347
1654.5, 0.868316
1661.5, 0.869656
1668.5, 0.874166
1676.0, 0.870165
1684.0, 0.875305
1692.0, 0.871365
1700.0, 0.872092
1708.0, 0.875581
1716.0, 0.864312
1724.0, 0.872565
1732.0, 0.870826
1740.0, 0.868815
1748.0, 0.868562
1756.0, 0.870930
1764.0, 0.865009
1772.0, 0.871674
1780.0, 0.866049
1788.0, 0.865500
1796.0, 0.872474
1805.0, 0.863926
1815.0, 0.860190
1825.0, 0.858217
1835.0, 0.856863
1845.0, 0.854785
1855.0, 0.855658
1865.0, 0.854753
1875.0, 0.848846
1885.0, 0.840114
1895.0, 0.832894
1905.0, 0.823215
1915.0, 0.815385
1925.0, 0.816225
1935.0, 0.819767
1945.0, 0.823209
1955.0, 0.818276
1965.0, 0.820198
1975.0, 0.817829
1985.0, 0.813787
1995.0, 0.808956
2005.0, 0.800315
2015.0, 0.806583
2025.0, 0.805025
2035.0, 0.804928
2045.0, 0.805879
2055.0, 0.803071
2065.0, 0.790913
2075.0, 0.784285
2085.0, 0.767392
2095.0, 0.760708
2105.0, 0.746504
2115.0, 0.742576
2125.0, 0.739728
2135.0, 0.732157
2145.0, 0.728322
2155.0, 0.704299
2165.0, 0.666159
2175.0, 0.596873
2185.0, 0.498537
2195.0, 0.460381
2205.0, 0.510411
2215.0, 0.604050
2225.0, 0.666153
2235.0, 0.687371
2245.0, 0.697707
2255.0, 0.707097
2265.0, 0.710354
2275.0, 0.708188
2285.0, 0.701048
2295.0, 0.683600
2305.0, 0.663496
2315.0, 0.623032
2325.0, 0.587832
2335.0, 0.555034
2345.0, 0.541503
2355.0, 0.542163
2365.0, 0.557007
2375.0, 0.565150
2386.0, 0.559786
2400.0, 0.555978
2418.0, 0.518463
2440.0, 0.492954
2466.0, 0.505426
2496.0, 0.532328
2528.0, 0.556712
2560.0, 0.551429
2592.0, 0.531670
2624.0, 0.510938
2656.0, 0.489794
2688.0, 0.367399
2720.0, 0.158761
2752.0, 0.0724340
2784.0, 0.127191
2816.0, 0.207714
2848.0, 0.249655
2880.0, 0.277209
2912.0, 0.274541
2944.0, 0.277585
2976.0, 0.286596
