Database of Origin,USGS Spectral Database
Sample Description,See USGS database for additional info
Date Added,2017-02-22 02:49:13.565945

Data ID,USGS_top24          
Sample ID,topaz_42.22081
Mineral Name,topaz

Wavelength
229.1, 0.533104
236.1, 0.532946
242.1, 0.536525
248.1, 0.546548
253.6, 0.563105
258.6, 0.578043
263.6, 0.590882
268.6, 0.604551
273.1, 0.613493
277.1, 0.622444
281.1, 0.630459
285.1, 0.638000
289.1, 0.646357
293.1, 0.653031
297.1, 0.659839
301.1, 0.664332
305.1, 0.667093
309.1, 0.672794
313.1, 0.676520
317.1, 0.684268
321.1, 0.686884
325.1, 0.692112
329.1, 0.697727
333.1, 0.701761
337.1, 0.706030
341.1, 0.712094
345.1, 0.715677
349.1, 0.718845
353.1, 0.712038
357.1, 0.714285
360.6, 0.714294
363.6, 0.718773
366.6, 0.716205
369.6, 0.718213
372.6, 0.718749
375.6, 0.719584
378.6, 0.717295
381.1, 0.719589
383.1, 0.719646
385.1, 0.718514
387.1, 0.717095
389.1, 0.717735
391.1, 0.718390
393.1, 0.716538
395.1, 0.716597
397.1, 0.717475
399.1, 0.718219
401.1, 0.718246
403.1, 0.715599
405.1, 0.716444
407.1, 0.717055
409.1, 0.715723
411.1, 0.716455
412.8, 0.717071
415.8, 0.717372
418.8, 0.718201
421.8, 0.719205
424.8, 0.719869
427.8, 0.720869
430.8, 0.720544
433.8, 0.723977
436.8, 0.722682
439.8, 0.722720
442.8, 0.725410
445.8, 0.725754
448.8, 0.728745
451.3, 0.731805
453.3, 0.728976
455.3, 0.732316
457.3, 0.730822
459.3, 0.732667
461.3, 0.732322
463.3, 0.731577
465.3, 0.732636
467.3, 0.734418
469.3, 0.734851
471.3, 0.733804
473.3, 0.734378
475.3, 0.735671
477.3, 0.735803
479.3, 0.738045
481.3, 0.736951
483.3, 0.736936
485.3, 0.737106
487.3, 0.735399
489.3, 0.736771
491.3, 0.738496
493.3, 0.738540
495.3, 0.739199
497.3, 0.739734
499.3, 0.738951
501.3, 0.739002
503.3, 0.740532
505.3, 0.739217
507.3, 0.740351
509.3, 0.740148
511.3, 0.741647
513.3, 0.738947
515.3, 0.740908
517.3, 0.741731
519.3, 0.741522
521.3, 0.741290
523.3, 0.741814
525.3, 0.741873
527.3, 0.740370
529.3, 0.743395
531.3, 0.741573
533.3, 0.744723
535.3, 0.742560
537.3, 0.742961
539.3, 0.743572
541.3, 0.741984
543.3, 0.743347
545.3, 0.741749
547.3, 0.741379
549.3, 0.743632
551.3, 0.741725
553.3, 0.742082
555.3, 0.742092
557.3, 0.742844
559.3, 0.741494
561.3, 0.739649
563.3, 0.739840
565.3, 0.740504
567.3, 0.740688
569.3, 0.741699
571.3, 0.741189
573.3, 0.742994
575.3, 0.741727
577.3, 0.744693
579.3, 0.747278
581.3, 0.748415
583.3, 0.748858
585.3, 0.751012
587.3, 0.750976
589.3, 0.752895
591.3, 0.751884
593.3, 0.753325
595.3, 0.754728
597.3, 0.752816
599.3, 0.753011
601.1, 0.754823
602.7, 0.754209
604.3, 0.752819
605.9, 0.753764
607.5, 0.754708
609.1, 0.753825
610.7, 0.754669
612.3, 0.754084
613.9, 0.752676
615.5, 0.754727
617.1, 0.753972
618.7, 0.754215
620.3, 0.755476
621.9, 0.754769
623.5, 0.755346
625.1, 0.755567
626.7, 0.754716
628.3, 0.756553
629.9, 0.756047
631.7, 0.755145
633.7, 0.755797
635.7, 0.758068
637.7, 0.757730
639.7, 0.759110
641.7, 0.759702
643.7, 0.757905
645.7, 0.759753
647.7, 0.758026
649.7, 0.759579
651.7, 0.760298
653.7, 0.760089
655.7, 0.760144
657.7, 0.760734
659.7, 0.760716
661.7, 0.763141
663.7, 0.765089
665.7, 0.762559
667.7, 0.761887
670.2, 0.763316
673.2, 0.764312
676.2, 0.765659
679.2, 0.762716
682.2, 0.765317
685.2, 0.766468
688.2, 0.765400
691.2, 0.767303
694.2, 0.767774
697.2, 0.767041
700.2, 0.768167
702.0, 0.771066
704.0, 0.771480
706.0, 0.769350
708.0, 0.770510
710.0, 0.771018
712.0, 0.771650
714.0, 0.774231
716.0, 0.771863
718.0, 0.770959
720.0, 0.772175
722.0, 0.772137
724.0, 0.770976
726.0, 0.771641
728.0, 0.771477
730.0, 0.770715
732.0, 0.769768
734.0, 0.772205
736.0, 0.773470
738.0, 0.771952
740.0, 0.772454
742.0, 0.772736
744.0, 0.772404
746.0, 0.773817
748.0, 0.774440
750.5, 0.774730
753.5, 0.772153
756.5, 0.773538
759.5, 0.775418
762.5, 0.774417
765.5, 0.772485
768.5, 0.774863
771.5, 0.774173
774.5, 0.776177
777.5, 0.774158
781.0, 0.775335
785.0, 0.777644
789.0, 0.775898
793.0, 0.775315
797.0, 0.779259
801.5, 0.777221
806.5, 0.777845
811.5, 0.778013
816.5, 0.776035
822.0, 0.777881
828.0, 0.779578
835.0, 0.780962
843.0, 0.776440
851.0, 0.767379
859.0, 0.769817
871.0, 0.769710
883.0, 0.775379
894.0, 0.780251
904.0, 0.775804
914.0, 0.778643
924.0, 0.779388
933.0, 0.781811
941.0, 0.787626
949.0, 0.781533
957.0, 0.779555
964.0, 0.786842
970.0, 0.781058
976.0, 0.790264
982.0, 0.785652
988.0, 0.789656
994.0, 0.791280
1000.0, 0.787466
1006.0, 0.791111
1012.0, 0.792534
1018.0, 0.791820
1023.5, 0.791367
1028.5, 0.793789
1033.5, 0.792520
1038.5, 0.796123
1043.5, 0.798366
1048.5, 0.794172
1053.5, 0.796910
1058.5, 0.799028
1063.5, 0.794208
1068.5, 0.801875
1073.5, 0.799489
1078.5, 0.798149
1083.5, 0.803314
1088.5, 0.802870
1093.5, 0.799657
1098.5, 0.802450
1103.5, 0.797984
1108.5, 0.805754
1113.5, 0.801749
1118.5, 0.805392
1123.5, 0.804019
1128.5, 0.807397
1133.5, 0.803973
1138.5, 0.806420
1143.5, 0.804847
1148.5, 0.803068
1153.5, 0.809095
1158.5, 0.810348
1163.5, 0.806537
1168.5, 0.805058
1173.5, 0.805274
1178.5, 0.804116
1183.5, 0.809170
1188.5, 0.807550
1193.5, 0.807943
1198.5, 0.810326
1203.5, 0.807862
1208.5, 0.805807
1213.5, 0.805726
1218.5, 0.811548
1223.5, 0.811821
1228.5, 0.807808
1233.5, 0.812366
1238.5, 0.810855
1243.5, 0.813478
1248.5, 0.813414
1253.5, 0.812686
1258.5, 0.809901
1263.5, 0.808901
1268.5, 0.811105
1273.5, 0.813086
1278.5, 0.812419
1283.5, 0.813907
1288.5, 0.810411
1293.5, 0.812891
1298.5, 0.813228
1303.5, 0.814180
1308.5, 0.811779
1313.5, 0.813872
1318.5, 0.815161
1323.5, 0.815707
1328.5, 0.814131
1333.5, 0.811902
1338.5, 0.813155
1343.5, 0.811405
1348.5, 0.808398
1353.5, 0.809368
1358.5, 0.806129
1363.5, 0.809408
1368.5, 0.810983
1373.5, 0.807916
1378.5, 0.812028
1383.5, 0.807160
1388.5, 0.806198
1393.5, 0.807445
1398.5, 0.798051
1403.5, 0.734327
1408.5, 0.741728
1413.5, 0.799270
1418.5, 0.810417
1423.5, 0.810548
1428.5, 0.809295
1433.5, 0.815340
1438.5, 0.817900
1443.5, 0.816600
1448.5, 0.815244
1453.5, 0.817689
1458.5, 0.818160
1463.5, 0.817219
1468.5, 0.818817
1473.5, 0.813488
1478.5, 0.818872
1483.5, 0.824380
1488.5, 0.816731
1493.5, 0.822934
1498.5, 0.818630
1503.5, 0.819898
1508.5, 0.819426
1513.5, 0.820748
1518.5, 0.821755
1523.5, 0.820733
1528.5, 0.818387
1534.0, 0.819572
1540.0, 0.822725
1546.0, 0.817349
1552.0, 0.825471
1558.0, 0.822781
1564.0, 0.825722
1570.5, 0.824392
1577.5, 0.822397
1584.5, 0.824256
1591.5, 0.827607
1598.5, 0.820801
1605.5, 0.825398
1612.5, 0.822878
1619.5, 0.822650
1626.5, 0.827427
1633.5, 0.823162
1640.5, 0.828303
1647.5, 0.824199
1654.5, 0.824159
1661.5, 0.825182
1668.5, 0.824310
1676.0, 0.821284
1684.0, 0.813296
1692.0, 0.822093
1700.0, 0.820889
1708.0, 0.821190
1716.0, 0.824561
1724.0, 0.821372
1732.0, 0.827211
1740.0, 0.821370
1748.0, 0.826095
1756.0, 0.826792
1764.0, 0.828732
1772.0, 0.830207
1780.0, 0.831347
1788.0, 0.832962
1796.0, 0.828670
1805.0, 0.831010
1815.0, 0.832423
1825.0, 0.829963
1835.0, 0.824647
1845.0, 0.827074
1855.0, 0.831267
1865.0, 0.828838
1875.0, 0.826651
1885.0, 0.828066
1895.0, 0.826074
1905.0, 0.824270
1915.0, 0.823164
1925.0, 0.814762
1935.0, 0.818341
1945.0, 0.817008
1955.0, 0.819695
1965.0, 0.819467
1975.0, 0.819934
1985.0, 0.828464
1995.0, 0.826737
2005.0, 0.822629
2015.0, 0.822815
2025.0, 0.821049
2035.0, 0.824276
2045.0, 0.818890
2055.0, 0.810712
2065.0, 0.789141
2075.0, 0.702826
2085.0, 0.585681
2095.0, 0.723491
2105.0, 0.783520
2115.0, 0.802678
2125.0, 0.807648
2135.0, 0.794788
2145.0, 0.774082
2155.0, 0.769922
2165.0, 0.780781
2175.0, 0.785036
2185.0, 0.786920
2195.0, 0.790434
2205.0, 0.782237
2215.0, 0.786635
2225.0, 0.801647
2235.0, 0.805699
2245.0, 0.810490
2255.0, 0.792795
2265.0, 0.788963
2275.0, 0.798481
2285.0, 0.806503
2295.0, 0.781102
2305.0, 0.775280
2315.0, 0.774000
2325.0, 0.773040
2335.0, 0.775133
2345.0, 0.773149
2355.0, 0.771149
2365.0, 0.762751
2375.0, 0.763493
2386.0, 0.769109
2400.0, 0.760292
2418.0, 0.750290
2440.0, 0.751130
2466.0, 0.730585
2496.0, 0.689639
2528.0, 0.634797
2560.0, 0.629482
2592.0, 0.680314
2624.0, 0.690943
2656.0, 0.723653
2688.0, 0.702379
2720.0, 0.579706
2752.0, 0.397530
2784.0, 0.558134
2816.0, 0.554396
2848.0, 0.592370
2880.0, 0.600294
2912.0, 0.596017
2944.0, 0.573183
2976.0, 0.615589
