Database of Origin,USGS Spectral Database
Sample Description,See USGS database for additional info
Date Added,2017-07-03 05:41:55.175146

Data ID,USGS_pro05          
Sample ID,prochlorite_smr14.18351
Mineral Name,prochlorite
Material Class,Phyllosilicate

Wavelength
1299.94, 0.0952560
1300.26, 0.0964320
1300.59, 0.0979610
1300.92, 0.0984900
1301.24, 0.0988430
1301.57, 0.0991370
1301.9, 0.0996660
1302.22, 0.100842
1302.55, 0.101254
1302.88, 0.101371
1303.21, 0.102312
1303.53, 0.103018
1303.86, 0.103958
1304.19, 0.105017
1304.52, 0.105428
1304.85, 0.105605
1305.17, 0.106840
1305.5, 0.107839
1305.83, 0.108545
1306.16, 0.108662
1306.49, 0.108898
1306.82, 0.110544
1307.15, 0.112073
1307.48, 0.112720
1307.81, 0.113249
1308.14, 0.113014
1308.47, 0.113425
1308.8, 0.114719
1309.13, 0.115248
1309.46, 0.115660
1309.79, 0.116365
1310.12, 0.116365
1310.45, 0.116953
1310.79, 0.117482
1311.12, 0.118070
1311.45, 0.119188
1311.78, 0.119540
1312.11, 0.120128
1312.44, 0.121246
1312.78, 0.121363
1313.11, 0.121951
1313.44, 0.122716
1313.77, 0.123539
1314.11, 0.124009
1314.44, 0.124127
1314.77, 0.124480
1315.11, 0.125597
1315.44, 0.125773
1315.78, 0.126008
1316.11, 0.126832
1316.44, 0.127478
1316.78, 0.127772
1317.11, 0.128184
1317.45, 0.128478
1317.78, 0.128948
1318.12, 0.129889
1318.45, 0.130830
1318.79, 0.131477
1319.12, 0.131594
1319.46, 0.132241
1319.8, 0.132712
1320.13, 0.132947
1320.47, 0.133946
1320.8, 0.134299
1321.14, 0.134887
1321.48, 0.134828
1321.81, 0.135005
1322.15, 0.136357
1322.49, 0.136710
1322.83, 0.136710
1323.16, 0.137533
1323.5, 0.138415
1323.84, 0.139532
1324.18, 0.140003
1324.52, 0.140414
1324.85, 0.141061
1325.19, 0.140826
1325.53, 0.140473
1325.87, 0.140356
1326.21, 0.140532
1326.55, 0.141414
1326.89, 0.142884
1327.23, 0.143237
1327.57, 0.142825
1327.91, 0.143002
1328.25, 0.144001
1328.59, 0.144648
1328.93, 0.144707
1329.27, 0.144824
1329.61, 0.145354
1329.95, 0.146118
1330.29, 0.146941
1330.64, 0.147412
1330.98, 0.147294
1331.32, 0.147353
1331.66, 0.148705
1332.0, 0.148999
1332.34, 0.148705
1332.69, 0.148999
1333.03, 0.149176
1333.37, 0.149293
1333.72, 0.149764
1334.06, 0.150293
1334.4, 0.151292
1334.75, 0.152468
1335.09, 0.152351
1335.43, 0.152174
1335.78, 0.152057
1336.12, 0.152174
1336.47, 0.152939
1336.81, 0.153821
1337.16, 0.154409
1337.5, 0.154350
1337.85, 0.153938
1338.19, 0.154997
1338.54, 0.155644
1338.88, 0.155467
1339.23, 0.155467
1339.58, 0.155761
1339.92, 0.156055
1340.27, 0.156173
1340.61, 0.156584
1340.96, 0.156996
1341.31, 0.157172
1341.66, 0.157525
1342.0, 0.157996
1342.35, 0.158348
1342.7, 0.158819
1343.05, 0.159407
1343.39, 0.159936
1343.74, 0.159583
1344.09, 0.158995
1344.44, 0.159524
1344.79, 0.160465
1345.14, 0.160289
1345.48, 0.160642
1345.83, 0.161288
1346.18, 0.162170
1346.53, 0.162700
1346.88, 0.162229
1347.23, 0.162053
1347.58, 0.162347
1347.93, 0.162994
1348.28, 0.163170
1348.64, 0.163523
1348.99, 0.163582
1349.34, 0.163876
1349.69, 0.163876
1350.04, 0.163876
1350.39, 0.164052
1350.74, 0.164758
1351.1, 0.165110
1351.45, 0.164875
1351.8, 0.164993
1352.15, 0.165346
1352.51, 0.165640
1352.86, 0.165816
1353.21, 0.165934
1353.56, 0.166051
1353.92, 0.166110
1354.27, 0.166580
1354.63, 0.167051
1354.98, 0.166933
1355.33, 0.167051
1355.69, 0.167639
1356.04, 0.167992
1356.4, 0.168050
1356.75, 0.168227
1357.11, 0.168109
1357.46, 0.167992
1357.82, 0.168168
1358.18, 0.168168
1358.53, 0.168286
1358.89, 0.168991
1359.24, 0.169520
1359.6, 0.169344
1359.96, 0.169050
1360.31, 0.169462
1360.67, 0.169932
1361.03, 0.170344
1361.39, 0.170520
1361.74, 0.170814
1362.1, 0.171343
1362.46, 0.170990
1362.82, 0.170814
1363.18, 0.170814
1363.53, 0.170755
1363.89, 0.171049
1364.25, 0.171578
1364.61, 0.171637
1364.97, 0.171226
1365.33, 0.171167
1365.69, 0.171814
1366.05, 0.172578
1366.41, 0.172225
1366.77, 0.172166
1367.13, 0.172166
1367.49, 0.172578
1367.85, 0.172931
1368.21, 0.173225
1368.57, 0.173519
1368.93, 0.173342
1369.3, 0.173166
1369.66, 0.173578
1370.02, 0.173636
1370.38, 0.173813
1370.74, 0.174460
1371.11, 0.174342
1371.47, 0.174224
1371.83, 0.174401
1372.19, 0.174577
1372.56, 0.174518
1372.92, 0.174695
1373.29, 0.174871
1373.65, 0.174989
1374.01, 0.174812
1374.38, 0.174695
1374.74, 0.174871
1375.11, 0.175342
1375.47, 0.175518
1375.84, 0.175694
1376.2, 0.176165
1376.57, 0.176635
1376.93, 0.176224
1377.3, 0.176106
1377.67, 0.176341
1378.03, 0.176459
1378.4, 0.176106
1378.76, 0.176047
1379.13, 0.176282
1379.5, 0.176812
1379.87, 0.177517
1380.23, 0.178399
1380.6, 0.178634
1380.97, 0.177811
1381.34, 0.177341
1381.7, 0.177517
1382.07, 0.178164
1382.44, 0.178634
1382.81, 0.178340
1383.18, 0.178046
1383.55, 0.178399
1383.92, 0.178517
1384.29, 0.178223
1384.66, 0.178399
1385.03, 0.178634
1385.4, 0.178340
1385.77, 0.178164
1386.14, 0.177752
1386.51, 0.177400
1386.88, 0.177694
1387.25, 0.177458
1387.62, 0.177223
1387.99, 0.177400
1388.36, 0.176988
1388.74, 0.176400
1389.11, 0.175636
1389.48, 0.175165
1389.85, 0.174930
1390.23, 0.174930
1390.6, 0.174754
1390.97, 0.174930
1391.35, 0.174460
1391.72, 0.174224
1392.09, 0.174695
1392.47, 0.174636
1392.84, 0.174048
1393.21, 0.173813
1393.59, 0.173989
1393.96, 0.173578
1394.34, 0.173519
1394.71, 0.173695
1395.09, 0.173578
1395.46, 0.173813
1395.84, 0.174048
1396.22, 0.173813
1396.59, 0.173342
1396.97, 0.173460
1397.35, 0.173930
1397.72, 0.174048
1398.1, 0.173813
1398.48, 0.174107
1398.85, 0.174636
1399.23, 0.174989
1399.61, 0.174989
1399.99, 0.174989
1400.37, 0.175459
1400.74, 0.175459
1401.12, 0.175400
1401.5, 0.175224
1401.88, 0.175165
1402.26, 0.175342
1402.64, 0.175694
1403.02, 0.175930
1403.4, 0.175988
1403.78, 0.175930
1404.16, 0.175812
1404.54, 0.176106
1404.92, 0.176518
1405.3, 0.176106
1405.68, 0.175694
1406.06, 0.175753
1406.44, 0.176224
1406.83, 0.176518
1407.21, 0.176929
1407.59, 0.177106
1407.97, 0.177047
1408.35, 0.177106
1408.74, 0.177752
1409.12, 0.178223
1409.5, 0.178105
1409.89, 0.178105
1410.27, 0.178458
1410.65, 0.178340
1411.04, 0.178399
1411.42, 0.178634
1411.81, 0.178928
1412.19, 0.179340
1412.58, 0.179575
1412.96, 0.179281
1413.35, 0.179105
1413.73, 0.179281
1414.12, 0.179693
1414.5, 0.179987
1414.89, 0.180163
1415.28, 0.180281
1415.66, 0.180692
1416.05, 0.180986
1416.44, 0.180928
1416.82, 0.181280
1417.21, 0.181868
1417.6, 0.182221
1417.98, 0.182339
1418.37, 0.182339
1418.76, 0.182633
1419.15, 0.182633
1419.54, 0.182692
1419.93, 0.182986
1420.32, 0.183280
1420.71, 0.183280
1421.09, 0.183338
1421.48, 0.183632
1421.88, 0.183809
1422.27, 0.184103
1422.66, 0.184279
1423.05, 0.184220
1423.44, 0.183868
1423.83, 0.183985
1424.22, 0.184162
1424.61, 0.184103
1425.0, 0.184220
1425.39, 0.184220
1425.78, 0.184456
1426.18, 0.184867
1426.57, 0.185220
1426.96, 0.185338
1427.36, 0.185396
1427.75, 0.185396
1428.14, 0.185338
1428.54, 0.185161
1428.93, 0.185044
1429.32, 0.185161
1429.72, 0.185338
1430.11, 0.185749
1430.51, 0.186043
1430.9, 0.185867
1431.3, 0.185514
1431.69, 0.185749
1432.09, 0.186102
1432.48, 0.185867
1432.88, 0.185984
1433.28, 0.186043
1433.67, 0.185984
1434.07, 0.186102
1434.46, 0.186102
1434.86, 0.186102
1435.26, 0.186396
1435.66, 0.186690
1436.05, 0.186925
1436.45, 0.186631
1436.85, 0.186514
1437.25, 0.186396
1437.65, 0.186514
1438.05, 0.186984
1438.44, 0.187102
1438.84, 0.186808
1439.24, 0.187043
1439.64, 0.187337
1440.04, 0.187278
1440.44, 0.187454
1440.84, 0.187513
1441.24, 0.187513
1441.65, 0.187454
1442.05, 0.187513
1442.45, 0.187572
1442.85, 0.187396
1443.25, 0.187102
1443.65, 0.187690
1444.05, 0.188101
1444.46, 0.187984
1444.86, 0.187925
1445.26, 0.187925
1445.67, 0.188395
1446.07, 0.188630
1446.47, 0.188395
1446.88, 0.188219
1447.28, 0.188689
1447.68, 0.188983
1448.09, 0.189042
1448.49, 0.188630
1448.9, 0.188454
1449.3, 0.188572
1449.71, 0.188866
1450.11, 0.189042
1450.52, 0.189395
1450.93, 0.189336
1451.33, 0.189512
1451.74, 0.189865
1452.14, 0.189630
1452.55, 0.189571
1452.96, 0.189630
1453.36, 0.189924
1453.77, 0.190100
1454.18, 0.190159
1454.59, 0.190512
1455.0, 0.190688
1455.41, 0.190277
1455.81, 0.190394
1456.22, 0.190806
1456.63, 0.191041
1457.04, 0.190806
1457.45, 0.190924
1457.86, 0.191218
1458.27, 0.191335
1458.68, 0.191453
1459.09, 0.191629
1459.5, 0.191747
1459.91, 0.191864
1460.32, 0.191982
1460.74, 0.192100
1461.15, 0.192100
1461.56, 0.191923
1461.97, 0.191806
1462.39, 0.191982
1462.8, 0.192276
1463.21, 0.192335
1463.62, 0.192452
1464.04, 0.192688
1464.45, 0.192923
1464.86, 0.193040
1465.28, 0.193158
1465.69, 0.193393
1466.11, 0.193687
1466.52, 0.193628
1466.94, 0.193570
1467.35, 0.193570
1467.77, 0.193864
1468.18, 0.194158
1468.6, 0.194040
1469.02, 0.193864
1469.43, 0.194040
1469.85, 0.194452
1470.27, 0.194510
1470.68, 0.194393
1471.1, 0.194628
1471.52, 0.195098
1471.94, 0.195334
1472.35, 0.195510
1472.77, 0.195569
1473.19, 0.195334
1473.61, 0.195275
1474.03, 0.195451
1474.45, 0.196216
1474.87, 0.196627
1475.29, 0.196627
1475.71, 0.196745
1476.13, 0.196745
1476.55, 0.196686
1476.97, 0.196686
1477.39, 0.196392
1477.81, 0.196451
1478.23, 0.196568
1478.65, 0.196921
1479.07, 0.197274
1479.5, 0.197215
1479.92, 0.197686
1480.34, 0.197921
1480.76, 0.197744
1481.19, 0.198038
1481.61, 0.198038
1482.03, 0.197980
1482.46, 0.197921
1482.88, 0.198097
1483.31, 0.198215
1483.73, 0.198509
1484.16, 0.198332
1484.58, 0.198685
1485.01, 0.199332
1485.43, 0.199097
1485.86, 0.198744
1486.28, 0.199038
1486.71, 0.199450
1487.14, 0.199802
1487.56, 0.199861
1487.99, 0.199861
1488.42, 0.199802
1488.84, 0.200038
1489.27, 0.200214
1489.7, 0.200332
1490.13, 0.200449
1490.56, 0.200508
1490.98, 0.200390
1491.41, 0.200449
1491.84, 0.200626
1492.27, 0.200861
1492.7, 0.201037
1493.13, 0.201214
1493.56, 0.201214
1493.99, 0.201155
1494.42, 0.201272
1494.85, 0.201743
1495.29, 0.201919
1495.72, 0.201802
1496.15, 0.201566
1496.58, 0.201919
1497.01, 0.202331
1497.44, 0.202331
1497.88, 0.202331
1498.31, 0.202625
1498.74, 0.202860
1499.18, 0.203095
1499.61, 0.203330
1500.04, 0.203389
1500.48, 0.203213
1500.91, 0.203154
1501.35, 0.203272
1501.78, 0.203330
1502.22, 0.203507
1502.65, 0.203742
1503.09, 0.203918
1503.53, 0.203742
1503.96, 0.203683
1504.4, 0.204095
1504.83, 0.204095
1505.27, 0.204212
1505.71, 0.204506
1506.15, 0.204565
1506.58, 0.204683
1507.02, 0.204977
1507.46, 0.205330
1507.9, 0.205330
1508.34, 0.205153
1508.78, 0.205153
1509.21, 0.205388
1509.66, 0.205800
1510.09, 0.205976
1510.53, 0.206035
1510.97, 0.205918
1511.42, 0.206035
1511.86, 0.206212
1512.3, 0.206329
1512.74, 0.206447
1513.18, 0.206564
1513.62, 0.206623
1514.06, 0.206506
1514.51, 0.206388
1514.95, 0.206506
1515.39, 0.206623
1515.83, 0.206741
1516.28, 0.207094
1516.72, 0.207505
1517.16, 0.207446
1517.61, 0.207152
1518.05, 0.207094
1518.5, 0.207270
1518.94, 0.207623
1519.39, 0.207740
1519.83, 0.207799
1520.28, 0.208093
1520.73, 0.208211
1521.17, 0.208270
1521.62, 0.208328
1522.07, 0.208505
1522.51, 0.208799
1522.96, 0.209034
1523.41, 0.208799
1523.85, 0.208858
1524.3, 0.209210
1524.75, 0.209093
1525.2, 0.208975
1525.65, 0.209152
1526.1, 0.209446
1526.55, 0.209681
1527.0, 0.209798
1527.45, 0.209857
1527.9, 0.210092
1528.35, 0.210386
1528.8, 0.210386
1529.25, 0.210445
1529.7, 0.210680
1530.15, 0.210974
1530.6, 0.210974
1531.05, 0.210857
1531.51, 0.210857
1531.96, 0.210857
1532.41, 0.210974
1532.87, 0.211327
1533.32, 0.211504
1533.77, 0.211562
1534.23, 0.211739
1534.68, 0.211974
1535.14, 0.212092
1535.59, 0.212150
1536.05, 0.212386
1536.5, 0.212503
1536.96, 0.212621
1537.41, 0.212680
1537.87, 0.212974
1538.32, 0.212974
1538.78, 0.213150
1539.24, 0.213444
1539.7, 0.213562
1540.15, 0.213738
1540.61, 0.213797
1541.07, 0.213914
1541.53, 0.213973
1541.98, 0.214032
1542.44, 0.213973
1542.9, 0.214032
1543.36, 0.214620
1543.82, 0.214914
1544.28, 0.214796
1544.74, 0.215032
1545.2, 0.215090
1545.66, 0.215208
1546.12, 0.215502
1546.59, 0.216031
1547.05, 0.215914
1547.51, 0.215737
1547.97, 0.215914
1548.43, 0.216208
1548.9, 0.216384
1549.36, 0.216737
1549.82, 0.216854
1550.29, 0.217090
1550.75, 0.217207
1551.21, 0.217031
1551.68, 0.217148
1552.14, 0.217501
1552.61, 0.217913
1553.07, 0.217854
1553.54, 0.218207
1554.0, 0.218442
1554.47, 0.218324
1554.93, 0.218501
1555.4, 0.218677
1555.87, 0.218912
1556.34, 0.219030
1556.8, 0.219265
1557.27, 0.219206
1557.74, 0.219148
1558.21, 0.219148
1558.68, 0.219442
1559.14, 0.220030
1559.61, 0.220147
1560.08, 0.220088
1560.55, 0.220324
1561.02, 0.220147
1561.49, 0.220324
1561.96, 0.220559
1562.43, 0.220853
1562.9, 0.221147
1563.38, 0.221323
1563.85, 0.221323
1564.32, 0.221264
1564.79, 0.221500
1565.26, 0.221852
1565.74, 0.221970
1566.21, 0.222146
1566.68, 0.222205
1567.16, 0.222382
1567.63, 0.222499
1568.1, 0.222676
1568.58, 0.222793
1569.05, 0.223087
1569.53, 0.223381
1570.0, 0.223499
1570.48, 0.223499
1570.96, 0.223675
1571.43, 0.223969
1571.91, 0.224087
1572.39, 0.224263
1572.86, 0.224675
1573.34, 0.225086
1573.82, 0.225028
1574.3, 0.224851
1574.77, 0.224969
1575.25, 0.225028
1575.73, 0.225028
1576.21, 0.225145
1576.69, 0.225263
1577.17, 0.225498
1577.65, 0.225792
1578.13, 0.225910
1578.61, 0.225851
1579.09, 0.226086
1579.57, 0.226556
1580.05, 0.226850
1580.54, 0.227027
1581.02, 0.227086
1581.5, 0.227144
1581.98, 0.227086
1582.47, 0.227262
1582.95, 0.227556
1583.43, 0.227732
1583.92, 0.227850
1584.4, 0.228026
1584.88, 0.228026
1585.37, 0.228262
1585.85, 0.228438
1586.34, 0.228556
1586.82, 0.228850
1587.31, 0.229085
1587.8, 0.229026
1588.28, 0.229144
1588.77, 0.229673
1589.26, 0.229790
1589.74, 0.229790
1590.23, 0.229849
1590.72, 0.229849
1591.21, 0.229908
1591.7, 0.230026
1592.19, 0.230202
1592.67, 0.230731
1593.16, 0.231084
1593.65, 0.231025
1594.14, 0.231260
1594.63, 0.231496
1595.12, 0.231437
1595.61, 0.231496
1596.11, 0.231848
1596.6, 0.232142
1597.09, 0.232319
1597.58, 0.232436
1598.08, 0.232554
1598.57, 0.232789
1599.06, 0.232907
1599.55, 0.233083
1600.05, 0.233318
1600.54, 0.233377
1601.04, 0.233436
1601.53, 0.233730
1602.03, 0.233789
1602.52, 0.234083
1603.02, 0.234318
1603.51, 0.234436
1604.01, 0.234788
1604.5, 0.234906
1605.0, 0.235024
1605.5, 0.235082
1606.0, 0.235259
1606.49, 0.235494
1606.99, 0.235612
1607.49, 0.235847
1607.99, 0.235906
1608.49, 0.235906
1608.99, 0.236317
1609.49, 0.236552
1609.99, 0.236670
1610.49, 0.236788
1610.99, 0.236964
1611.49, 0.237434
1611.99, 0.237670
1612.49, 0.237670
1612.99, 0.237787
1613.49, 0.238140
1614.0, 0.238258
1614.5, 0.238140
1615.0, 0.238081
1615.51, 0.238375
1616.01, 0.238787
1616.51, 0.238846
1617.02, 0.238904
1617.52, 0.239081
1618.03, 0.239198
1618.53, 0.239492
1619.04, 0.239904
1619.54, 0.239904
1620.05, 0.240080
1620.55, 0.240551
1621.06, 0.240610
1621.57, 0.240845
1622.08, 0.241139
1622.58, 0.241256
1623.09, 0.241256
1623.6, 0.241256
1624.11, 0.241315
1624.62, 0.241374
1625.13, 0.241433
1625.64, 0.241903
1626.15, 0.242197
1626.66, 0.242256
1627.17, 0.242550
1627.68, 0.242903
1628.19, 0.243020
1628.7, 0.243256
1629.21, 0.243432
1629.72, 0.243373
1630.24, 0.243550
1630.75, 0.243902
1631.26, 0.244138
1631.78, 0.244255
1632.29, 0.244432
1632.8, 0.244490
1633.32, 0.244549
1633.83, 0.244843
1634.35, 0.245314
1634.86, 0.245490
1635.38, 0.245490
1635.9, 0.245372
1636.41, 0.245490
1636.93, 0.245725
1637.45, 0.246137
1637.96, 0.246372
1638.48, 0.246548
1639.0, 0.246725
1639.52, 0.246607
1640.04, 0.246607
1640.56, 0.246960
1641.08, 0.247372
1641.59, 0.247607
1642.11, 0.247724
1642.63, 0.247666
1643.16, 0.247666
1643.68, 0.247842
1644.2, 0.247901
1644.72, 0.247960
1645.24, 0.248136
1645.76, 0.248489
1646.29, 0.248606
1646.81, 0.248724
1647.33, 0.248783
1647.86, 0.249018
1648.38, 0.249371
1648.9, 0.249488
1649.43, 0.249606
1649.95, 0.249665
1650.48, 0.249547
1651.0, 0.249841
1651.53, 0.249959
1652.06, 0.249959
1652.58, 0.250253
1653.11, 0.250547
1653.64, 0.250723
1654.17, 0.251017
1654.69, 0.251135
1655.22, 0.251194
1655.75, 0.251488
1656.28, 0.251546
1656.81, 0.251488
1657.34, 0.251546
1657.87, 0.251958
1658.4, 0.252487
1658.93, 0.252605
1659.46, 0.252487
1659.99, 0.252487
1660.52, 0.252546
1661.05, 0.252546
1661.59, 0.252958
1662.12, 0.253193
1662.65, 0.253075
1663.19, 0.253134
1663.72, 0.253428
1664.26, 0.253840
1664.79, 0.253898
1665.32, 0.253898
1665.86, 0.254192
1666.39, 0.254428
1666.93, 0.254486
1667.47, 0.254486
1668.0, 0.254839
1668.54, 0.255016
1669.08, 0.255016
1669.61, 0.255310
1670.15, 0.255486
1670.69, 0.255780
1671.23, 0.255956
1671.77, 0.256015
1672.31, 0.256192
1672.85, 0.256192
1673.39, 0.256368
1673.93, 0.256721
1674.47, 0.257015
1675.01, 0.257132
1675.55, 0.257250
1676.09, 0.257426
1676.64, 0.257662
1677.18, 0.257956
1677.72, 0.257956
1678.26, 0.258073
1678.81, 0.258132
1679.35, 0.258250
1679.89, 0.258367
1680.44, 0.258779
1680.98, 0.259190
1681.53, 0.259132
1682.07, 0.259249
1682.62, 0.259308
1683.17, 0.259602
1683.71, 0.259837
1684.26, 0.259778
1684.81, 0.259720
1685.36, 0.260131
1685.9, 0.260543
1686.45, 0.260719
1687.0, 0.261013
1687.55, 0.260896
1688.1, 0.260778
1688.65, 0.260837
1689.2, 0.261190
1689.75, 0.261542
1690.3, 0.261601
1690.85, 0.261601
1691.41, 0.261836
1691.96, 0.262130
1692.51, 0.262307
1693.06, 0.262718
1693.61, 0.262836
1694.17, 0.262777
1694.72, 0.262895
1695.28, 0.263189
1695.83, 0.263424
1696.39, 0.263483
1696.94, 0.263542
1697.5, 0.263718
1698.05, 0.263953
1698.61, 0.264071
1699.17, 0.264365
1699.72, 0.264482
1700.28, 0.264424
1700.84, 0.264659
1701.4, 0.264600
1701.95, 0.264600
1702.51, 0.264835
1703.07, 0.265129
1703.63, 0.265188
1704.19, 0.265423
1704.75, 0.265776
1705.31, 0.265776
1705.88, 0.265835
1706.44, 0.265894
1707.0, 0.266129
1707.56, 0.266305
1708.12, 0.266188
1708.69, 0.266364
1709.25, 0.266717
1709.81, 0.266893
1710.38, 0.267011
1710.94, 0.267187
1711.51, 0.267422
1712.07, 0.267481
1712.64, 0.267364
1713.2, 0.267481
1713.77, 0.267775
1714.34, 0.268069
1714.9, 0.268128
1715.47, 0.268246
1716.04, 0.268422
1716.61, 0.268657
1717.18, 0.268775
1717.74, 0.268716
1718.31, 0.268716
1718.88, 0.268775
1719.45, 0.269128
1720.02, 0.269186
1720.59, 0.269186
1721.17, 0.269422
1721.74, 0.269657
1722.31, 0.269892
1722.88, 0.270010
1723.45, 0.270010
1724.03, 0.270068
1724.6, 0.270362
1725.18, 0.270656
1725.75, 0.270598
1726.33, 0.270950
1726.9, 0.271009
1727.48, 0.271009
1728.05, 0.271068
1728.63, 0.271303
1729.2, 0.271480
1729.78, 0.271538
1730.36, 0.271774
1730.94, 0.271950
1731.51, 0.272126
1732.09, 0.272479
1732.67, 0.272420
1733.25, 0.272362
1733.83, 0.272656
1734.41, 0.272773
1734.99, 0.272891
1735.57, 0.273244
1736.15, 0.273420
1736.73, 0.273538
1737.32, 0.273655
1737.9, 0.273479
1738.48, 0.273185
1739.07, 0.273479
1739.65, 0.274008
1740.23, 0.274184
1740.82, 0.274243
1741.4, 0.274243
1741.99, 0.274243
1742.57, 0.274537
1743.16, 0.274949
1743.74, 0.275125
1744.33, 0.275302
1744.92, 0.275478
1745.51, 0.275654
1746.09, 0.275772
1746.68, 0.275890
1747.27, 0.275948
1747.86, 0.276125
1748.45, 0.276184
1749.04, 0.276360
1749.63, 0.276360
1750.22, 0.276478
1750.81, 0.276478
1751.4, 0.276654
1751.99, 0.277007
1752.59, 0.277124
1753.18, 0.277301
1753.77, 0.277536
1754.37, 0.277477
1754.96, 0.277418
1755.56, 0.277654
1756.15, 0.278006
1756.74, 0.278242
1757.34, 0.278359
1757.94, 0.278359
1758.53, 0.278536
1759.13, 0.278477
1759.73, 0.278594
1760.32, 0.278771
1760.92, 0.278947
1761.52, 0.279065
1762.12, 0.279124
1762.72, 0.279359
1763.32, 0.279712
1763.92, 0.279712
1764.52, 0.280006
1765.12, 0.280241
1765.72, 0.280300
1766.32, 0.280300
1766.92, 0.280535
1767.53, 0.280829
1768.13, 0.281005
1768.73, 0.281299
1769.34, 0.281299
1769.94, 0.281123
1770.55, 0.281417
1771.15, 0.281652
1771.76, 0.281593
1772.36, 0.281828
1772.97, 0.282122
1773.57, 0.282181
1774.18, 0.282299
1774.79, 0.282358
1775.4, 0.282534
1776.0, 0.282593
1776.61, 0.282769
1777.22, 0.282887
1777.83, 0.282887
1778.44, 0.282946
1779.05, 0.283063
1779.66, 0.283240
1780.27, 0.283534
1780.88, 0.283769
1781.5, 0.284004
1782.11, 0.284004
1782.72, 0.284063
1783.33, 0.284063
1783.95, 0.284122
1784.56, 0.284416
1785.18, 0.284592
1785.79, 0.284592
1786.41, 0.284827
1787.02, 0.285062
1787.64, 0.285062
1788.26, 0.285062
1788.87, 0.285239
1789.49, 0.285356
1790.11, 0.285415
1790.73, 0.285415
1791.35, 0.285533
1791.96, 0.285886
1792.58, 0.285944
1793.21, 0.286062
1793.83, 0.286180
1794.45, 0.286180
1795.07, 0.286180
1795.69, 0.286238
1796.31, 0.286532
1796.93, 0.286709
1797.56, 0.286768
1798.18, 0.286944
1798.8, 0.287179
1799.43, 0.287179
1800.05, 0.287179
1800.68, 0.287297
1801.3, 0.287356
1801.93, 0.287414
1802.56, 0.287473
1803.18, 0.287532
1803.81, 0.287767
1804.44, 0.287708
1805.07, 0.287767
1805.7, 0.288238
1806.33, 0.288296
1806.95, 0.288120
1807.58, 0.288473
1808.22, 0.288767
1808.85, 0.288884
1809.48, 0.288943
1810.11, 0.288884
1810.74, 0.288943
1811.38, 0.289061
1812.01, 0.289178
1812.64, 0.289414
1813.28, 0.289590
1813.91, 0.289708
1814.55, 0.289766
1815.18, 0.289884
1815.82, 0.289884
1816.45, 0.290060
1817.09, 0.290119
1817.73, 0.290060
1818.36, 0.290119
1819.0, 0.290354
1819.64, 0.290825
1820.28, 0.291413
1820.92, 0.291178
1821.56, 0.291354
1822.2, 0.291472
1822.84, 0.291178
1823.48, 0.291119
1824.12, 0.291354
1824.76, 0.291472
1825.41, 0.292001
1826.05, 0.292824
1826.69, 0.292354
1827.34, 0.291883
1827.98, 0.292118
1828.63, 0.292354
1829.27, 0.292589
1829.92, 0.292824
1830.56, 0.293294
1831.21, 0.293353
1831.86, 0.292883
1832.5, 0.293000
1833.15, 0.292942
1833.8, 0.293059
1834.45, 0.293765
1835.1, 0.294000
1835.75, 0.294470
1836.4, 0.294588
1837.05, 0.294706
1837.7, 0.294882
1838.35, 0.294176
1839.01, 0.294588
1839.66, 0.295411
1840.31, 0.295058
1840.96, 0.295058
1841.62, 0.295999
1842.27, 0.295646
1842.93, 0.294823
1843.58, 0.294706
1844.24, 0.294588
1844.9, 0.294529
1845.55, 0.294823
1846.21, 0.295823
1846.87, 0.296940
1847.53, 0.296881
1848.18, 0.296646
1848.84, 0.295999
1849.5, 0.295882
1850.16, 0.296117
1850.82, 0.295940
1851.48, 0.295705
1852.14, 0.296176
1852.81, 0.296764
1853.47, 0.297587
1854.13, 0.297410
1854.8, 0.296528
1855.46, 0.296411
1856.12, 0.296940
1856.79, 0.297058
1857.45, 0.296705
1858.12, 0.296587
1858.79, 0.297116
1859.45, 0.298292
1860.12, 0.297998
1860.79, 0.297293
1861.46, 0.296881
1862.12, 0.296764
1862.79, 0.296881
1863.46, 0.297234
1864.13, 0.297352
1864.8, 0.297234
1865.48, 0.297116
1866.15, 0.297234
1866.82, 0.297940
1867.49, 0.299116
1868.16, 0.298763
1868.84, 0.297881
1869.51, 0.298116
1870.19, 0.299233
1870.86, 0.299998
1871.54, 0.298763
1872.21, 0.298822
1872.89, 0.299821
1873.56, 0.299174
1874.24, 0.298410
1874.92, 0.298586
1875.6, 0.298704
1876.28, 0.298880
1876.96, 0.299116
1877.64, 0.298704
1878.32, 0.298586
1879.0, 0.298410
1879.68, 0.298292
1880.36, 0.298410
1881.04, 0.298586
1881.73, 0.298645
1882.41, 0.298528
1883.09, 0.298822
1883.78, 0.299527
1884.46, 0.299351
1885.15, 0.299116
1885.83, 0.299174
1886.52, 0.299410
1887.21, 0.299351
1887.89, 0.299527
1888.58, 0.299762
1889.27, 0.300292
1889.96, 0.300938
1890.65, 0.300586
1891.34, 0.300703
1892.03, 0.300938
1892.72, 0.300703
1893.41, 0.300880
1894.1, 0.300997
1894.79, 0.301174
1895.49, 0.301291
1896.18, 0.301115
1896.87, 0.301291
1897.57, 0.301997
1898.26, 0.302467
1898.96, 0.303349
1899.65, 0.303702
1900.35, 0.303173
1901.05, 0.302761
1901.74, 0.302938
1902.44, 0.303702
1903.14, 0.303702
1903.84, 0.303173
1904.54, 0.304055
1905.24, 0.304878
1905.94, 0.304643
1906.64, 0.304525
1907.34, 0.304114
1908.04, 0.303937
1908.75, 0.304114
1909.45, 0.304231
1910.15, 0.304525
1910.86, 0.304819
1911.56, 0.304878
1912.27, 0.304760
1912.97, 0.305642
1913.68, 0.306054
1914.39, 0.305584
1915.09, 0.305407
1915.8, 0.305466
1916.51, 0.305466
1917.22, 0.305290
1917.93, 0.305407
1918.64, 0.305760
1919.35, 0.306760
1920.06, 0.307524
1920.77, 0.307406
1921.48, 0.306583
1922.19, 0.306054
1922.91, 0.306172
1923.62, 0.306877
1924.33, 0.306936
1925.05, 0.306642
1925.76, 0.306642
1926.48, 0.306936
1927.19, 0.307289
1927.91, 0.307583
1928.63, 0.307642
1929.35, 0.307406
1930.07, 0.307524
1930.78, 0.307524
1931.5, 0.307524
1932.22, 0.307818
1932.94, 0.307994
1933.66, 0.308112
1934.39, 0.307877
1935.11, 0.307700
1935.83, 0.308171
1936.55, 0.308230
1937.28, 0.308171
1938.0, 0.308171
1938.73, 0.308288
1939.45, 0.308406
1940.18, 0.308406
1940.9, 0.308406
1941.63, 0.308582
1942.36, 0.308700
1943.09, 0.308582
1943.81, 0.308465
1944.54, 0.308582
1945.27, 0.308465
1946.0, 0.308288
1946.73, 0.308288
1947.47, 0.308406
1948.2, 0.308524
1948.93, 0.308524
1949.66, 0.308641
1950.4, 0.308700
1951.13, 0.308641
1951.86, 0.308406
1952.6, 0.308347
1953.34, 0.308524
1954.07, 0.308524
1954.81, 0.308347
1955.55, 0.308406
1956.29, 0.308465
1957.02, 0.308582
1957.76, 0.308641
1958.5, 0.308524
1959.24, 0.308641
1959.98, 0.308641
1960.72, 0.308700
1961.47, 0.308759
1962.21, 0.308641
1962.95, 0.308641
1963.7, 0.308818
1964.44, 0.309053
1965.18, 0.309170
1965.93, 0.309053
1966.67, 0.308994
1967.42, 0.308994
1968.17, 0.309053
1968.92, 0.308935
1969.66, 0.308759
1970.41, 0.308759
1971.16, 0.308876
1971.91, 0.308994
1972.66, 0.308994
1973.41, 0.309112
1974.16, 0.309053
1974.92, 0.308818
1975.67, 0.308876
1976.42, 0.308641
1977.18, 0.308465
1977.93, 0.308465
1978.69, 0.308582
1979.44, 0.308524
1980.2, 0.308465
1980.95, 0.308524
1981.71, 0.308582
1982.47, 0.308347
1983.23, 0.308053
1983.99, 0.307994
1984.74, 0.308406
1985.51, 0.308582
1986.27, 0.308465
1987.03, 0.308288
1987.79, 0.308347
1988.55, 0.308347
1989.32, 0.308406
1990.08, 0.308465
1990.84, 0.308406
1991.61, 0.308112
1992.37, 0.307994
1993.14, 0.308171
1993.9, 0.308406
1994.67, 0.308524
1995.44, 0.308582
1996.21, 0.308935
1996.98, 0.308994
1997.75, 0.308700
1998.52, 0.308700
1999.29, 0.308935
2000.06, 0.309053
2000.83, 0.309229
2001.6, 0.309406
2002.38, 0.309406
2003.15, 0.309523
2003.93, 0.309641
2004.7, 0.309817
2005.48, 0.309994
2006.25, 0.310229
2007.03, 0.310288
2007.81, 0.310170
2008.58, 0.310346
2009.36, 0.310758
2010.14, 0.310993
2010.92, 0.311228
2011.7, 0.311346
2012.48, 0.311464
2013.26, 0.311581
2014.05, 0.311758
2014.83, 0.312110
2015.61, 0.312404
2016.4, 0.312698
2017.18, 0.313051
2017.97, 0.313169
2018.75, 0.313404
2019.54, 0.313580
2020.32, 0.313874
2021.11, 0.314168
2021.9, 0.314580
2022.69, 0.315168
2023.48, 0.315168
2024.27, 0.315344
2025.06, 0.315756
2025.85, 0.315932
2026.64, 0.316109
2027.44, 0.316520
2028.23, 0.316756
2029.02, 0.317226
2029.82, 0.317402
2030.61, 0.317755
2031.41, 0.318226
2032.2, 0.318696
2033.0, 0.318814
2033.8, 0.318637
2034.6, 0.318872
2035.4, 0.319049
2036.2, 0.319166
2037.0, 0.319519
2037.8, 0.319813
2038.6, 0.320107
2039.4, 0.320401
2040.2, 0.320813
2041.01, 0.321107
2041.81, 0.321224
2042.61, 0.321342
2043.42, 0.321577
2044.22, 0.321812
2045.03, 0.321871
2045.84, 0.321989
2046.65, 0.322165
2047.46, 0.322459
2048.26, 0.322577
2049.07, 0.322694
2049.88, 0.322753
2050.69, 0.322988
2051.51, 0.323341
2052.32, 0.323576
2053.13, 0.323635
2053.94, 0.323870
2054.76, 0.323929
2055.57, 0.323988
2056.39, 0.323929
2057.2, 0.324047
2058.02, 0.324282
2058.84, 0.324635
2059.66, 0.324752
2060.48, 0.324870
2061.29, 0.325046
2062.11, 0.325046
2062.94, 0.325223
2063.76, 0.325340
2064.58, 0.325399
2065.4, 0.325458
2066.22, 0.325634
2067.05, 0.325634
2067.87, 0.325634
2068.7, 0.325752
2069.52, 0.325870
2070.35, 0.325987
2071.18, 0.326105
2072.0, 0.326046
2072.83, 0.326281
2073.66, 0.326516
2074.49, 0.326516
2075.32, 0.326399
2076.15, 0.326458
2076.98, 0.326634
2077.82, 0.326575
2078.65, 0.326634
2079.48, 0.326869
2080.32, 0.327046
2081.15, 0.327046
2081.99, 0.326987
2082.83, 0.327046
2083.66, 0.327222
2084.5, 0.327340
2085.34, 0.327163
2086.18, 0.327046
2087.02, 0.327398
2087.86, 0.327575
2088.7, 0.327692
2089.54, 0.327751
2090.39, 0.327869
2091.23, 0.327928
2092.07, 0.327928
2092.92, 0.327869
2093.76, 0.327810
2094.61, 0.327869
2095.45, 0.327986
2096.3, 0.327810
2097.15, 0.327692
2098.0, 0.327751
2098.85, 0.327986
2099.7, 0.327986
2100.55, 0.327810
2101.4, 0.327810
2102.25, 0.327986
2103.1, 0.328104
2103.96, 0.328045
2104.81, 0.327869
2105.67, 0.327810
2106.52, 0.327810
2107.38, 0.327751
2108.24, 0.327692
2109.09, 0.327634
2109.95, 0.327810
2110.81, 0.327986
2111.67, 0.327869
2112.53, 0.327869
2113.39, 0.327869
2114.25, 0.327869
2115.12, 0.327986
2115.98, 0.328163
2116.84, 0.328280
2117.71, 0.328280
2118.58, 0.328339
2119.44, 0.328457
2120.31, 0.328457
2121.18, 0.328457
2122.04, 0.328516
2122.91, 0.328633
2123.78, 0.328692
2124.65, 0.328751
2125.52, 0.328927
2126.4, 0.329162
2127.27, 0.329280
2128.14, 0.329221
2129.02, 0.329339
2129.89, 0.329515
2130.77, 0.329515
2131.64, 0.329809
2132.52, 0.329986
2133.4, 0.329986
2134.27, 0.330162
2135.15, 0.330221
2136.03, 0.330221
2136.91, 0.330397
2137.79, 0.330691
2138.68, 0.330868
2139.56, 0.330926
2140.44, 0.331103
2141.33, 0.331162
2142.21, 0.331220
2143.1, 0.331338
2143.99, 0.331397
2144.87, 0.331456
2145.76, 0.331397
2146.65, 0.331573
2147.54, 0.331867
2148.43, 0.331750
2149.32, 0.331808
2150.21, 0.331750
2151.1, 0.331750
2151.99, 0.331750
2152.89, 0.331750
2153.78, 0.331750
2154.68, 0.331867
2155.57, 0.332044
2156.47, 0.332279
2157.37, 0.332161
2158.27, 0.332044
2159.16, 0.331985
2160.06, 0.332102
2160.96, 0.332220
2161.86, 0.332161
2162.77, 0.332102
2163.67, 0.332220
2164.57, 0.332279
2165.48, 0.332220
2166.38, 0.332279
2167.29, 0.332338
2168.2, 0.332279
2169.1, 0.332279
2170.01, 0.332279
2170.92, 0.332396
2171.83, 0.332220
2172.74, 0.332102
2173.65, 0.331985
2174.56, 0.331808
2175.47, 0.331632
2176.39, 0.331867
2177.3, 0.332044
2178.22, 0.332044
2179.13, 0.331985
2180.05, 0.331750
2180.96, 0.331632
2181.88, 0.331750
2182.8, 0.331573
2183.72, 0.331338
2184.64, 0.331220
2185.56, 0.331162
2186.48, 0.330985
2187.41, 0.331103
2188.33, 0.331103
2189.25, 0.330926
2190.18, 0.330574
2191.1, 0.330280
2192.03, 0.330103
2192.96, 0.330103
2193.89, 0.330044
2194.82, 0.329927
2195.74, 0.329633
2196.68, 0.329515
2197.61, 0.329515
2198.54, 0.329398
2199.47, 0.329221
2200.4, 0.329045
2201.34, 0.328927
2202.28, 0.328751
2203.21, 0.328633
2204.15, 0.328398
2205.08, 0.328163
2206.02, 0.327869
2206.96, 0.327810
2207.9, 0.327810
2208.84, 0.327692
2209.78, 0.327634
2210.73, 0.327457
2211.67, 0.327163
2212.61, 0.326869
2213.56, 0.326752
2214.5, 0.326634
2215.45, 0.326340
2216.4, 0.326046
2217.35, 0.325811
2218.3, 0.325693
2219.24, 0.325399
2220.2, 0.324811
2221.15, 0.324400
2222.1, 0.323988
2223.05, 0.323576
2224.0, 0.323165
2224.96, 0.322753
2225.91, 0.322165
2226.87, 0.321460
2227.83, 0.320754
2228.79, 0.319931
2229.74, 0.319049
2230.7, 0.318343
2231.66, 0.317638
2232.63, 0.316756
2233.59, 0.315756
2234.55, 0.314639
2235.51, 0.313286
2236.48, 0.311875
2237.44, 0.310405
2238.41, 0.308876
2239.38, 0.307171
2240.34, 0.305525
2241.31, 0.303761
2242.28, 0.301762
2243.25, 0.299762
2244.22, 0.297763
2245.19, 0.295940
2246.17, 0.294294
2247.14, 0.292765
2248.12, 0.291648
2249.09, 0.290590
2250.07, 0.289825
2251.04, 0.289355
2252.02, 0.289120
2253.0, 0.289178
2253.98, 0.289296
2254.96, 0.289531
2255.94, 0.289943
2256.92, 0.290354
2257.91, 0.290825
2258.89, 0.291413
2259.88, 0.292060
2260.86, 0.292648
2261.85, 0.293177
2262.83, 0.293882
2263.82, 0.294470
2264.81, 0.294882
2265.8, 0.295470
2266.79, 0.295940
2267.78, 0.296470
2268.78, 0.296881
2269.77, 0.297175
2270.76, 0.297528
2271.76, 0.297940
2272.75, 0.298116
2273.75, 0.298234
2274.75, 0.298469
2275.75, 0.298704
2276.75, 0.298645
2277.75, 0.298645
2278.75, 0.298704
2279.75, 0.298586
2280.75, 0.298292
2281.76, 0.297940
2282.76, 0.297528
2283.77, 0.296881
2284.77, 0.296352
2285.78, 0.295764
2286.79, 0.294941
2287.8, 0.294235
2288.81, 0.293412
2289.82, 0.292530
2290.83, 0.291824
2291.84, 0.291060
2292.86, 0.290296
2293.87, 0.289590
2294.89, 0.288884
2295.91, 0.288179
2296.92, 0.287532
2297.94, 0.286944
2298.96, 0.286356
2299.98, 0.285944
2301.0, 0.285650
2302.02, 0.285298
2303.04, 0.284768
2304.07, 0.284474
2305.09, 0.284298
2306.12, 0.284180
2307.15, 0.283828
2308.17, 0.283416
2309.2, 0.283063
2310.23, 0.282652
2311.26, 0.282416
2312.29, 0.282122
2313.32, 0.281887
2314.35, 0.281417
2315.39, 0.280711
2316.42, 0.280300
2317.46, 0.279770
2318.5, 0.279124
2319.53, 0.278477
2320.57, 0.278124
2321.61, 0.277595
2322.65, 0.277007
2323.69, 0.276301
2324.73, 0.275713
2325.78, 0.275184
2326.82, 0.274596
2327.86, 0.273832
2328.91, 0.273126
2329.96, 0.272479
2331.01, 0.272126
2332.05, 0.271597
2333.1, 0.271127
2334.15, 0.270480
2335.21, 0.269833
2336.26, 0.269186
2337.31, 0.268598
2338.36, 0.268187
2339.42, 0.267952
2340.48, 0.267599
2341.53, 0.267422
2342.59, 0.267364
2343.65, 0.267364
2344.71, 0.267422
2345.77, 0.267599
2346.83, 0.267716
2347.9, 0.268010
2348.96, 0.268304
2350.02, 0.268598
2351.09, 0.269128
2352.16, 0.269833
2353.23, 0.270362
2354.29, 0.271009
2355.36, 0.271715
2356.43, 0.272479
2357.51, 0.273067
2358.58, 0.274008
2359.65, 0.274949
2360.73, 0.275890
2361.8, 0.276772
2362.88, 0.277712
2363.96, 0.278653
2365.03, 0.279594
2366.11, 0.280652
2367.19, 0.281770
2368.27, 0.282769
2369.36, 0.283828
2370.44, 0.284886
2371.53, 0.285944
2372.61, 0.287062
2373.7, 0.288355
2374.78, 0.289414
2375.87, 0.290296
2376.96, 0.291236
2378.05, 0.292118
2379.14, 0.292824
2380.24, 0.293706
2381.33, 0.294470
2382.42, 0.295176
2383.52, 0.295823
2384.61, 0.296293
2385.71, 0.296764
2386.81, 0.297058
2387.91, 0.297528
2389.01, 0.297940
2390.11, 0.298175
2391.22, 0.298528
2392.32, 0.298763
2393.42, 0.299116
2394.53, 0.299468
2395.64, 0.299821
2396.74, 0.299998
2397.85, 0.300292
2398.96, 0.300527
2400.07, 0.300821
2401.18, 0.301115
2402.3, 0.301468
2403.41, 0.301762
2404.52, 0.302056
2405.64, 0.302291
2406.76, 0.302644
2407.88, 0.302996
2408.99, 0.303290
2410.11, 0.303643
2411.23, 0.304114
2412.36, 0.304466
2413.48, 0.304702
2414.6, 0.304760
2415.73, 0.305054
2416.85, 0.305348
2417.98, 0.305348
2419.11, 0.305525
2420.24, 0.305819
2421.37, 0.305642
2422.5, 0.305584
2423.64, 0.305642
2424.77, 0.305760
2425.9, 0.305819
2427.04, 0.305642
2428.18, 0.305407
2429.31, 0.305172
2430.45, 0.304819
2431.59, 0.304584
2432.73, 0.304525
2433.88, 0.304349
2435.02, 0.304114
2436.16, 0.303878
2437.31, 0.303526
2438.45, 0.303408
2439.6, 0.303290
2440.75, 0.303114
2441.9, 0.302820
2443.05, 0.302585
2444.2, 0.302232
2445.35, 0.302114
2446.51, 0.301938
2447.67, 0.301468
2448.82, 0.301056
2449.98, 0.300821
2451.14, 0.300527
2452.3, 0.299998
2453.46, 0.299468
2454.62, 0.299057
2455.78, 0.298469
2456.94, 0.297822
2458.11, 0.297352
2459.28, 0.296881
2460.44, 0.296176
2461.61, 0.295705
2462.78, 0.295117
2463.95, 0.294529
2465.12, 0.293882
2466.3, 0.293412
2467.47, 0.292765
2468.65, 0.292295
2469.82, 0.291824
2471.0, 0.291354
2472.18, 0.291060
2473.36, 0.290766
2474.54, 0.290237
2475.72, 0.289708
2476.9, 0.289178
2478.08, 0.288826
2479.27, 0.288532
2480.46, 0.288238
2481.64, 0.287885
2482.83, 0.287591
2484.02, 0.287414
2485.21, 0.287473
2486.4, 0.287297
2487.6, 0.286944
2488.79, 0.286709
2489.99, 0.286532
2491.18, 0.286297
2492.38, 0.286062
2493.58, 0.286062
2494.78, 0.286121
2495.98, 0.286062
2497.18, 0.285944
2498.39, 0.285827
2499.59, 0.285709
2500.8, 0.285592
2502.01, 0.285709
2503.21, 0.285768
2504.42, 0.285768
2505.63, 0.285768
2506.84, 0.285592
2508.06, 0.285533
2509.27, 0.285650
2510.49, 0.285650
2511.7, 0.285592
2512.92, 0.285415
2514.14, 0.285415
2515.36, 0.285592
2516.58, 0.285415
2517.8, 0.285121
2519.03, 0.284945
2520.25, 0.284886
2521.48, 0.284827
2522.7, 0.284945
2523.93, 0.285004
2525.16, 0.284768
2526.39, 0.284533
2527.62, 0.284474
2528.86, 0.284357
2530.09, 0.284474
2531.33, 0.284768
2532.56, 0.284768
2533.8, 0.284239
2535.04, 0.284416
2536.28, 0.284533
2537.52, 0.283769
2538.76, 0.283357
2540.01, 0.283122
2541.25, 0.283769
2542.5, 0.284768
2543.75, 0.284239
2544.99, 0.283063
2546.24, 0.283004
2547.49, 0.283651
2548.75, 0.283063
2550.0, 0.283240
2551.26, 0.284004
2552.51, 0.284239
2553.77, 0.282534
2555.03, 0.281299
2556.29, 0.281005
2557.55, 0.280770
2558.81, 0.281770
2560.08, 0.284886
2561.34, 0.287179
2562.61, 0.286709
2563.88, 0.285886
2565.14, 0.283004
2566.41, 0.280241
2567.68, 0.281064
2568.96, 0.284004
2570.23, 0.282887
2571.51, 0.281182
2572.78, 0.284710
2574.06, 0.283298
2575.34, 0.281652
2576.62, 0.283122
2577.9, 0.280829
2579.18, 0.279712
2580.47, 0.281887
2581.75, 0.282240
2583.04, 0.285650
2584.32, 0.285298
2585.61, 0.282064
2586.9, 0.283828
2588.2, 0.282887
2589.49, 0.281299
2590.78, 0.279829
2592.08, 0.281123
2593.37, 0.290648
2594.67, 0.299233
2595.97, 0.290237
2597.27, 0.281887
2598.57, 0.279182
2599.88, 0.280006
2601.18, 0.281946
2602.49, 0.283004
2603.79, 0.285650
2605.1, 0.289178
2606.41, 0.286826
2607.72, 0.283945
2609.03, 0.283416
2610.35, 0.282064
2611.66, 0.281064
2612.98, 0.281828
2614.3, 0.281534
2615.62, 0.286415
2616.94, 0.288708
2618.26, 0.284768
2619.58, 0.287532
2620.91, 0.286415
2622.23, 0.281005
2623.56, 0.280064
2624.89, 0.282122
2626.22, 0.286238
2627.55, 0.283416
2628.88, 0.284827
2630.21, 0.289178
2631.55, 0.284416
2632.89, 0.282064
2634.22, 0.281593
2635.56, 0.279124
2636.9, 0.278418
2638.25, 0.278065
2639.59, 0.278183
2640.93, 0.278418
2642.28, 0.278359
2643.63, 0.277830
2644.98, 0.279300
2646.33, 0.278359
2647.68, 0.276536
2649.03, 0.275537
2650.39, 0.276184
2651.74, 0.278594
2653.1, 0.278124
2654.46, 0.276830
2655.82, 0.276360
2657.18, 0.274243
2658.54, 0.276007
2659.9, 0.276713
2661.27, 0.275478
2662.64, 0.274772
2664.01, 0.280182
2665.38, 0.284945
2666.74, 0.283416
2668.12, 0.278124
2669.49, 0.283357
2670.87, 0.282358
2672.24, 0.272362
2673.62, 0.270245
2675.0, 0.272773
2676.38, 0.275478
2677.76, 0.273361
2679.15, 0.270774
2680.54, 0.265364
2681.92, 0.263424
2683.31, 0.263365
2684.7, 0.261660
2686.09, 0.259955
2687.48, 0.257250
2688.88, 0.254486
2690.27, 0.251664
2691.67, 0.250782
2693.07, 0.252134
2694.47, 0.249077
2695.87, 0.242021
2697.27, 0.234965
2698.67, 0.229320
2700.08, 0.225498
2701.49, 0.220559
2702.9, 0.214032
2704.31, 0.208975
2705.72, 0.204095
2707.13, 0.198744
2708.54, 0.192511
2709.96, 0.183750
2711.38, 0.169932
2712.8, 0.154115
2714.22, 0.142296
2715.64, 0.132888
2717.06, 0.125832
2718.49, 0.121246
2719.91, 0.119599
2721.34, 0.114366
2722.77, 0.110720
2724.2, 0.110132
2725.63, 0.107428
2727.07, 0.105076
2728.5, 0.104370
2729.94, 0.104429
2731.38, 0.104723
2732.82, 0.105370
2734.26, 0.106781
2735.7, 0.106487
2737.15, 0.106604
2738.59, 0.108956
2740.04, 0.109780
2741.49, 0.107957
2742.94, 0.105664
2744.39, 0.104370
2745.84, 0.103606
2747.3, 0.102724
2748.76, 0.102136
2750.21, 0.101783
2751.67, 0.101430
2753.14, 0.101254
2754.6, 0.103135
2756.06, 0.101959
2757.53, 0.0986660
2759.0, 0.0973730
2760.46, 0.0975490
2761.94, 0.0988430
2763.41, 0.0990780
2764.88, 0.0979610
2766.36, 0.0973140
2767.83, 0.0961970
2769.31, 0.0944330
2770.79, 0.0923750
2772.27, 0.0890820
2773.76, 0.0856130
2775.24, 0.0826140
2776.73, 0.0797920
2778.22, 0.0769100
2779.71, 0.0740880
2781.2, 0.0714420
2782.69, 0.0689140
2784.18, 0.0666790
2785.68, 0.0652090
2787.18, 0.0636800
2788.68, 0.0615050
2790.18, 0.0596820
2791.68, 0.0582710
2793.19, 0.0571540
2794.69, 0.0560950
2796.2, 0.0551540
2797.71, 0.0542720
2799.22, 0.0533320
2800.73, 0.0528610
2802.24, 0.0528610
2803.76, 0.0522730
2805.28, 0.0514500
2806.8, 0.0508620
2808.32, 0.0504500
2809.84, 0.0500390
2811.36, 0.0497450
2812.89, 0.0494510
2814.42, 0.0492740
2815.94, 0.0492740
2817.48, 0.0493920
2819.01, 0.0495680
2820.54, 0.0496270
2822.08, 0.0495100
2823.61, 0.0493920
2825.15, 0.0495680
2826.69, 0.0499210
2828.23, 0.0501560
2829.78, 0.0503920
2831.32, 0.0506860
2832.87, 0.0510970
2834.42, 0.0513910
2835.97, 0.0516850
2837.52, 0.0520380
2839.08, 0.0525080
2840.63, 0.0528610
2842.19, 0.0530960
2843.75, 0.0533900
2845.31, 0.0539200
2846.87, 0.0543900
2848.44, 0.0548020
2850.0, 0.0549190
2851.57, 0.0552720
2853.14, 0.0558010
2854.71, 0.0560950
2856.28, 0.0560950
2857.86, 0.0562720
2859.43, 0.0565070
2861.01, 0.0565660
2862.59, 0.0566240
2864.17, 0.0566240
2865.76, 0.0566830
2867.34, 0.0566830
2868.93, 0.0565660
2870.52, 0.0563890
2872.11, 0.0560360
2873.7, 0.0556840
2875.29, 0.0552720
2876.89, 0.0548600
2878.49, 0.0545080
2880.08, 0.0538610
2881.69, 0.0532730
2883.29, 0.0528020
2884.89, 0.0522140
2886.5, 0.0516850
2888.11, 0.0511560
2889.72, 0.0505090
2891.33, 0.0498620
2892.94, 0.0493330
2894.56, 0.0489220
2896.17, 0.0483340
2897.79, 0.0477460
2899.42, 0.0474520
2901.04, 0.0470990
2902.66, 0.0466280
2904.29, 0.0462170
2905.92, 0.0457460
2907.55, 0.0453350
2909.18, 0.0451000
2910.81, 0.0448640
2912.45, 0.0445120
2914.08, 0.0442760
2915.72, 0.0441000
2917.36, 0.0439820
2919.01, 0.0437470
2920.65, 0.0436300
2922.3, 0.0436300
2923.94, 0.0435120
2925.59, 0.0434530
2927.25, 0.0435120
2928.9, 0.0435120
2930.56, 0.0433940
2932.21, 0.0433940
2933.87, 0.0434530
2935.53, 0.0436880
2937.2, 0.0436300
2938.86, 0.0436880
2940.53, 0.0438060
2942.2, 0.0440410
2943.87, 0.0441000
2945.54, 0.0441590
2947.22, 0.0443350
2948.89, 0.0445700
2950.57, 0.0446880
2952.25, 0.0449230
2953.93, 0.0451580
2955.62, 0.0453940
2957.3, 0.0454520
2958.99, 0.0456290
2960.68, 0.0459820
2962.37, 0.0461580
2964.07, 0.0465110
2965.76, 0.0468640
2967.46, 0.0473340
2969.16, 0.0476870
2970.86, 0.0478630
2972.56, 0.0480980
2974.27, 0.0484510
2975.98, 0.0488040
2977.69, 0.0492160
2979.4, 0.0497450
2981.11, 0.0502150
2982.83, 0.0506860
2984.54, 0.0510380
2986.26, 0.0513910
2987.98, 0.0519200
2989.71, 0.0524500
2991.43, 0.0529200
2993.16, 0.0534490
2994.89, 0.0538610
2996.62, 0.0545080
2998.35, 0.0550370
3000.09, 0.0555660
3001.83, 0.0560950
3003.57, 0.0566240
3005.31, 0.0572120
3007.05, 0.0578000
3008.79, 0.0583880
3010.54, 0.0590350
3012.29, 0.0596230
3014.04, 0.0601520
3015.8, 0.0607990
3017.55, 0.0614460
3019.31, 0.0620930
3021.07, 0.0629160
3022.83, 0.0635630
3024.59, 0.0640330
3026.36, 0.0647390
3028.13, 0.0656800
3029.9, 0.0664440
3031.67, 0.0671500
3033.44, 0.0678550
3035.22, 0.0686200
3037.0, 0.0693840
3038.78, 0.0700900
3040.56, 0.0706780
3042.34, 0.0713830
3044.13, 0.0721480
3045.92, 0.0729710
3047.71, 0.0737940
3049.5, 0.0746170
3051.3, 0.0753820
3053.09, 0.0762640
3054.89, 0.0770280
3056.69, 0.0777920
3058.5, 0.0786740
3060.3, 0.0795560
3062.11, 0.0802620
3063.92, 0.0809090
3065.73, 0.0818500
3067.55, 0.0826140
3069.36, 0.0833780
3071.18, 0.0842020
3073.0, 0.0850840
3074.82, 0.0860240
3076.65, 0.0869060
3078.48, 0.0877300
3080.31, 0.0885530
3082.14, 0.0894940
3083.97, 0.0903760
3085.8, 0.0912580
3087.64, 0.0921980
3089.48, 0.0930800
3091.33, 0.0939620
3093.17, 0.0948440
3095.02, 0.0956680
3096.87, 0.0963730
3098.72, 0.0971960
3100.57, 0.0981370
3102.43, 0.0989020
3104.28, 0.0997250
3106.14, 0.100607
3108.01, 0.101606
3109.87, 0.102547
3111.74, 0.103312
3113.61, 0.104076
3115.48, 0.105017
3117.35, 0.105840
3119.23, 0.106722
3121.1, 0.107604
3122.98, 0.108310
3124.87, 0.109250
3126.75, 0.110191
3128.64, 0.110956
3130.53, 0.111720
3132.42, 0.112543
3134.31, 0.113308
3136.21, 0.114072
3138.11, 0.114836
3140.01, 0.115660
3141.91, 0.116718
3143.82, 0.117600
3145.73, 0.118482
3147.64, 0.119305
3149.55, 0.120128
3151.46, 0.121010
3153.38, 0.121951
3155.3, 0.122892
3157.22, 0.123715
3159.14, 0.124538
3161.07, 0.125244
3163.0, 0.126008
3164.93, 0.126949
3166.86, 0.127831
3168.8, 0.128772
3170.74, 0.129713
3172.68, 0.130712
3174.62, 0.131712
3176.56, 0.132535
3178.51, 0.133300
3180.46, 0.134182
3182.42, 0.135005
3184.37, 0.135887
3186.33, 0.136886
3188.29, 0.137827
3190.25, 0.138709
3192.21, 0.139650
3194.18, 0.140650
3196.15, 0.141532
3198.12, 0.142414
3200.09, 0.143472
3202.07, 0.144354
3204.05, 0.145177
3206.03, 0.146000
3208.02, 0.146941
3210.0, 0.147823
3211.99, 0.148646
3213.98, 0.149470
3215.98, 0.150352
3217.97, 0.151175
3219.97, 0.152057
3221.97, 0.152880
3223.98, 0.153703
3225.98, 0.154585
3227.99, 0.155291
3230.0, 0.156055
3232.02, 0.156937
3234.03, 0.157702
3236.05, 0.158584
3238.07, 0.159289
3240.1, 0.159877
3242.12, 0.160642
3244.15, 0.161347
3246.18, 0.162112
3248.22, 0.162758
3250.25, 0.163464
3252.29, 0.164228
3254.33, 0.164758
3256.38, 0.165404
3258.43, 0.166051
3260.47, 0.166698
3262.53, 0.167345
3264.58, 0.167874
3266.64, 0.168344
3268.7, 0.168932
3270.76, 0.169638
3272.82, 0.170167
3274.89, 0.170638
3276.96, 0.171226
3279.04, 0.171814
3281.11, 0.172343
3283.19, 0.172872
3285.27, 0.173342
3287.35, 0.173872
3289.44, 0.174342
3291.53, 0.174930
3293.62, 0.175518
3295.71, 0.176165
3297.81, 0.176988
3299.91, 0.177517
3302.01, 0.177929
3304.11, 0.178517
3306.22, 0.179105
3308.33, 0.179634
3310.44, 0.180222
3312.56, 0.180869
3314.68, 0.181398
3316.8, 0.181927
3318.92, 0.182574
3321.05, 0.183044
3323.18, 0.183456
3325.31, 0.183926
3327.44, 0.184514
3329.58, 0.184985
3331.72, 0.185573
3333.86, 0.186161
3336.01, 0.186749
3338.16, 0.187337
3340.31, 0.187807
3342.46, 0.188336
3344.61, 0.189042
3346.77, 0.189630
3348.94, 0.190042
3351.1, 0.190453
3353.27, 0.190865
3355.44, 0.191394
3357.61, 0.191982
3359.79, 0.192394
3361.97, 0.192864
3364.15, 0.193276
3366.33, 0.193805
3368.52, 0.194275
3370.71, 0.194746
3372.9, 0.195392
3375.1, 0.195980
3377.3, 0.196510
3379.5, 0.197098
3381.71, 0.197627
3383.91, 0.198215
3386.12, 0.198744
3388.34, 0.199332
3390.55, 0.199861
3392.77, 0.200449
3394.99, 0.200861
3397.22, 0.201331
3399.45, 0.201860
3401.68, 0.202272
3403.91, 0.202625
3406.15, 0.203154
3408.39, 0.203742
3410.63, 0.204154
3412.87, 0.204565
3415.12, 0.204977
3417.37, 0.205565
3419.63, 0.206329
3421.88, 0.206976
3424.14, 0.207682
3426.41, 0.208387
3428.67, 0.208975
3430.94, 0.209622
3433.21, 0.210269
3435.49, 0.210798
3437.77, 0.211386
3440.05, 0.211974
3442.33, 0.212444
3444.62, 0.213091
3446.91, 0.213620
3449.2, 0.214150
3451.5, 0.214561
3453.8, 0.215090
3456.1, 0.215620
3458.41, 0.216090
3460.72, 0.216560
3463.03, 0.216972
3465.34, 0.217384
3467.66, 0.217913
3469.98, 0.218442
3472.31, 0.218854
3474.63, 0.219148
3476.96, 0.219677
3479.3, 0.220147
3481.64, 0.220500
3483.97, 0.220794
3486.32, 0.221206
3488.66, 0.221617
3491.01, 0.222088
3493.36, 0.222558
3495.72, 0.222970
3498.08, 0.223381
3500.44, 0.223910
3502.81, 0.224440
3505.18, 0.225028
3507.55, 0.225616
3509.92, 0.226204
3512.3, 0.226968
3514.68, 0.227732
3517.06, 0.228320
3519.45, 0.228791
3521.84, 0.229261
3524.24, 0.229732
3526.64, 0.230320
3529.04, 0.230908
3531.44, 0.231496
3533.85, 0.232025
3536.26, 0.232495
3538.67, 0.233024
3541.09, 0.233612
3543.51, 0.234142
3545.93, 0.234671
3548.36, 0.235141
3550.79, 0.235729
3553.22, 0.236435
3555.66, 0.236964
3558.1, 0.237434
3560.54, 0.238022
3562.99, 0.238669
3565.44, 0.239375
3567.9, 0.240022
3570.35, 0.240551
3572.81, 0.241139
3575.28, 0.241786
3577.75, 0.242491
3580.22, 0.243020
3582.69, 0.243608
3585.17, 0.244196
3587.65, 0.244784
3590.14, 0.245196
3592.62, 0.245902
3595.11, 0.246548
3597.61, 0.247078
3600.11, 0.247783
3602.61, 0.248430
3605.11, 0.249018
3607.62, 0.249488
3610.14, 0.249900
3612.65, 0.250370
3615.17, 0.251017
3617.69, 0.251605
3620.22, 0.252134
3622.75, 0.252546
3625.28, 0.253075
3627.82, 0.253604
3630.36, 0.254075
3632.9, 0.254545
3635.45, 0.255133
3638.0, 0.255545
3640.56, 0.255839
3643.12, 0.256427
3645.68, 0.256956
3648.24, 0.257250
3650.81, 0.257544
3653.39, 0.258014
3655.96, 0.258485
3658.54, 0.258838
3661.13, 0.259308
3663.71, 0.259778
3666.3, 0.260190
3668.9, 0.260602
3671.5, 0.261013
3674.1, 0.261425
3676.7, 0.261836
3679.31, 0.262072
3681.93, 0.262424
3684.54, 0.262895
3687.17, 0.263248
3689.79, 0.263600
3692.42, 0.263894
3695.05, 0.264188
3697.69, 0.264482
3700.32, 0.265012
3702.97, 0.265482
3705.61, 0.265835
3708.27, 0.266188
3710.92, 0.266540
3713.58, 0.266834
3716.24, 0.267070
3718.91, 0.267422
3721.58, 0.267834
3724.25, 0.268363
3726.93, 0.268716
3729.61, 0.268834
3732.29, 0.269304
3734.98, 0.269892
3737.67, 0.270304
3740.37, 0.270598
3743.07, 0.270892
3745.78, 0.271244
3748.49, 0.271480
3751.2, 0.271832
3753.91, 0.272244
3756.63, 0.272597
3759.36, 0.272950
3762.09, 0.273302
3764.82, 0.273655
3767.55, 0.273949
3770.29, 0.274243
3773.04, 0.274655
3775.78, 0.274831
3778.54, 0.275008
3781.29, 0.275243
3784.05, 0.275478
3786.82, 0.275831
3789.59, 0.276184
3792.36, 0.276478
3795.13, 0.276654
3797.92, 0.276772
3800.7, 0.276889
3803.49, 0.277124
3806.28, 0.277360
3809.08, 0.277654
3811.88, 0.278006
3814.68, 0.278183
3817.49, 0.278359
3820.31, 0.278594
3823.12, 0.278888
3825.94, 0.279241
3828.77, 0.279594
3831.6, 0.279829
3834.43, 0.280006
3837.27, 0.280300
3840.11, 0.280652
3842.96, 0.280829
3845.81, 0.280946
3848.67, 0.281182
3851.53, 0.281417
3854.39, 0.281593
3857.26, 0.281887
3860.13, 0.282358
3863.01, 0.282652
3865.89, 0.282946
3868.77, 0.283181
3871.66, 0.283240
3874.55, 0.283416
3877.45, 0.283651
3880.35, 0.283769
3883.26, 0.283828
3886.17, 0.284004
3889.09, 0.284180
3892.01, 0.284416
3894.93, 0.284651
3897.86, 0.284827
3900.79, 0.284945
3903.73, 0.285004
3906.67, 0.285062
3909.62, 0.285180
3912.57, 0.285356
3915.52, 0.285592
3918.48, 0.285709
3921.45, 0.285944
3924.42, 0.285944
3927.39, 0.286121
3930.37, 0.286297
3933.35, 0.286356
3936.34, 0.286415
3939.33, 0.286532
3942.32, 0.286709
3945.32, 0.286885
3948.33, 0.287062
3951.34, 0.287297
3954.35, 0.287473
3957.37, 0.287708
3960.39, 0.287944
3963.42, 0.288061
3966.45, 0.288179
3969.49, 0.288238
3972.53, 0.288414
3975.58, 0.288708
3978.63, 0.289061
3981.68, 0.289178
3984.75, 0.289178
3987.81, 0.289590
3990.88, 0.289884
3993.95, 0.290002
3997.03, 0.290178
4000.12, 0.290237
4003.21, 0.290413
4006.3, 0.290766
4009.4, 0.290942
4012.5, 0.290942
4015.61, 0.290942
4018.72, 0.291119
4021.84, 0.291236
4024.96, 0.291295
4028.09, 0.291472
4031.22, 0.291589
4034.36, 0.291648
4037.5, 0.291707
4040.65, 0.291648
4043.8, 0.291883
4046.96, 0.291942
4050.12, 0.291766
4053.29, 0.291942
4056.46, 0.292236
4059.64, 0.292412
4062.82, 0.292412
4066.0, 0.292236
4069.19, 0.292118
4072.39, 0.292236
4075.59, 0.292177
4078.8, 0.292236
4082.01, 0.292060
4085.23, 0.292060
4088.45, 0.292295
4091.68, 0.292354
4094.91, 0.292236
4098.15, 0.292060
4101.39, 0.292060
4104.63, 0.292118
4107.89, 0.292177
4111.14, 0.292236
4114.41, 0.292060
4117.67, 0.291883
4120.95, 0.292060
4124.23, 0.292118
4127.51, 0.292060
4130.8, 0.291883
4134.09, 0.291824
4137.39, 0.291707
4140.7, 0.291824
4144.01, 0.292060
4147.32, 0.292001
4150.64, 0.291766
4153.97, 0.291648
4157.3, 0.291766
4160.64, 0.291589
4163.98, 0.291472
4167.33, 0.291472
4170.68, 0.291413
4174.04, 0.291295
4177.4, 0.291178
4180.77, 0.291001
4184.14, 0.290942
4187.52, 0.291060
4190.91, 0.291178
4194.3, 0.291119
4197.69, 0.291001
4201.1, 0.291295
4204.5, 0.291824
4207.92, 0.292412
4211.34, 0.293177
4214.76, 0.293941
4218.19, 0.294941
4221.62, 0.295705
4225.06, 0.296352
4228.51, 0.296881
4231.96, 0.296881
4235.42, 0.296646
4238.88, 0.296352
4242.35, 0.295764
4245.83, 0.294412
4249.31, 0.292765
4252.79, 0.291178
4256.28, 0.290237
4259.78, 0.290707
4263.29, 0.291766
4266.79, 0.292589
4270.31, 0.292824
4273.83, 0.292942
4277.35, 0.293059
4280.89, 0.292824
4284.42, 0.292589
4287.97, 0.292177
4291.52, 0.291824
4295.07, 0.291413
4298.63, 0.290825
4302.2, 0.290237
4305.78, 0.289590
4309.35, 0.289002
4312.94, 0.288355
4316.53, 0.287826
4320.13, 0.287356
4323.73, 0.286944
4327.34, 0.286650
4330.96, 0.286121
4334.58, 0.285768
4338.21, 0.285592
4341.84, 0.285474
4345.48, 0.285180
4349.12, 0.284827
4352.77, 0.284651
4356.43, 0.284592
4360.1, 0.284239
4363.76, 0.283945
4367.44, 0.283651
4371.12, 0.283475
4374.81, 0.283416
4378.51, 0.283122
4382.21, 0.283063
4385.92, 0.282946
4389.63, 0.282534
4393.35, 0.282299
4397.08, 0.281946
4400.81, 0.281711
4404.55, 0.281593
4408.29, 0.281358
4412.04, 0.280946
4415.8, 0.280594
4419.57, 0.280300
4423.34, 0.280182
4427.12, 0.279712
4430.9, 0.279241
4434.69, 0.279065
4438.49, 0.278888
4442.29, 0.278300
4446.1, 0.277771
4449.92, 0.277301
4453.74, 0.276830
4457.57, 0.276478
4461.41, 0.276007
4465.25, 0.275419
4469.1, 0.275008
4472.95, 0.275066
4476.82, 0.274420
4480.69, 0.273479
4484.56, 0.272950
4488.44, 0.272420
4492.33, 0.272009
4496.23, 0.271480
4500.13, 0.271068
4504.04, 0.270539
4507.96, 0.270068
4511.88, 0.269657
4515.81, 0.269010
4519.75, 0.268363
4523.69, 0.267658
4527.65, 0.266893
4531.6, 0.266129
4535.57, 0.265600
4539.54, 0.265188
4543.52, 0.264541
4547.5, 0.263600
4551.5, 0.262718
4555.5, 0.261836
4559.5, 0.260837
4563.52, 0.260249
4567.54, 0.259543
4571.56, 0.258544
4575.6, 0.257485
4579.64, 0.256250
4583.69, 0.255074
4587.75, 0.253781
4591.81, 0.252370
4595.88, 0.251135
4599.96, 0.250018
4604.04, 0.248900
4608.14, 0.247666
4612.24, 0.246725
4616.34, 0.246078
4620.46, 0.245490
4624.58, 0.244549
4628.71, 0.243491
4632.84, 0.243079
4636.99, 0.242374
4641.14, 0.241786
4645.3, 0.241198
4649.47, 0.240492
4653.64, 0.239904
4657.82, 0.238904
4662.01, 0.237552
4666.21, 0.236964
4670.41, 0.236376
4674.62, 0.235435
4678.84, 0.234377
4683.07, 0.233377
4687.3, 0.232378
4691.54, 0.231084
4695.79, 0.229614
4700.05, 0.228320
4704.31, 0.227438
4708.59, 0.226321
4712.87, 0.225086
4717.15, 0.223852
4721.45, 0.222558
4725.76, 0.221558
4730.07, 0.220088
4734.39, 0.218618
4738.72, 0.216972
4743.05, 0.215502
4747.39, 0.214326
4751.75, 0.213032
4756.1, 0.211856
4760.47, 0.210798
4764.85, 0.210034
4769.23, 0.209210
4773.62, 0.208328
4778.02, 0.207446
4782.43, 0.206800
4786.85, 0.205918
4791.27, 0.204683
4795.7, 0.203977
4800.14, 0.203742
4804.59, 0.203330
4809.05, 0.202213
4813.51, 0.201214
4817.99, 0.200332
4822.47, 0.199626
4826.96, 0.199214
4831.46, 0.198274
4835.96, 0.197568
4840.48, 0.196862
4845.0, 0.195569
4849.54, 0.193981
4854.08, 0.192570
4858.63, 0.191512
4863.18, 0.190512
4867.75, 0.189806
4872.33, 0.188689
4876.91, 0.187396
4881.5, 0.186572
4886.1, 0.185396
4890.71, 0.184456
4895.33, 0.183632
4899.96, 0.182280
4904.59, 0.180457
4909.24, 0.179164
4913.89, 0.178517
4918.55, 0.177752
4923.22, 0.176576
4927.9, 0.175812
4932.59, 0.174871
4937.29, 0.173989
4942.0, 0.172990
4946.71, 0.172343
4951.44, 0.172519
4956.17, 0.171990
4960.91, 0.170638
4965.67, 0.169873
4970.43, 0.169638
4975.2, 0.169226
4979.98, 0.168697
4984.76, 0.168109
4989.56, 0.167345
4994.37, 0.166639
4999.18, 0.166404
5004.01, 0.166639
5008.84, 0.166933
5013.69, 0.167051
5018.54, 0.167227
5023.4, 0.166639
5028.28, 0.166580
5033.16, 0.166933
5038.05, 0.167051
5042.95, 0.166874
5047.86, 0.167051
5052.78, 0.167168
5057.71, 0.166757
5062.65, 0.166992
5067.6, 0.167168
5072.56, 0.167404
5077.53, 0.167227
5082.5, 0.166698
5087.49, 0.166110
5092.49, 0.166404
5097.5, 0.166639
5102.51, 0.166169
5107.54, 0.166051
5112.58, 0.165934
5117.62, 0.165816
5122.68, 0.166051
5127.75, 0.166051
5132.82, 0.165581
5137.91, 0.165052
5143.01, 0.165110
5148.12, 0.165757
5153.23, 0.164993
5158.36, 0.163934
5163.5, 0.163817
5168.65, 0.163640
5173.81, 0.163111
5178.98, 0.163111
5184.15, 0.162582
5189.34, 0.161876
5194.54, 0.161759
5199.75, 0.161700
5204.98, 0.161171
5210.21, 0.161582
5215.45, 0.161759
5220.7, 0.159995
5225.96, 0.158878
5231.23, 0.158348
5236.52, 0.158231
5241.81, 0.157290
5247.12, 0.156467
5252.44, 0.155820
5257.76, 0.155408
5263.1, 0.155114
5268.45, 0.154115
5273.81, 0.153586
5279.18, 0.153821
5284.56, 0.153938
5289.95, 0.153938
5295.36, 0.153350
5300.77, 0.152586
