Database of Origin, USGS Spectral Database
Sample Description, See USGS database for additional info
Date Added,2017-07-03 06:06:52.567102

Data ID,USGS_sod02          
Sample ID, sodiumbicarbonate_gds55.20694
Mineral Name, sodiumbicarbonate
Material Class,Carbonate

Wavelength
1280.99, 0.0375910
1281.3, 0.0376390
1281.62, 0.0377430
1281.94, 0.0379570
1282.25, 0.0380950
1282.57, 0.0381990
1282.89, 0.0383580
1283.21, 0.0385100
1283.52, 0.0386410
1283.84, 0.0387870
1284.16, 0.0388900
1284.48, 0.0390010
1284.8, 0.0391600
1285.11, 0.0393400
1285.43, 0.0394430
1285.75, 0.0395950
1286.07, 0.0397270
1286.39, 0.0398030
1286.71, 0.0399130
1287.03, 0.0400240
1287.35, 0.0402380
1287.67, 0.0403830
1287.99, 0.0404390
1288.31, 0.0405770
1288.63, 0.0407430
1288.95, 0.0408330
1289.27, 0.0409850
1289.59, 0.0412060
1289.91, 0.0413030
1290.23, 0.0413930
1290.55, 0.0415520
1290.88, 0.0417240
1291.2, 0.0418280
1291.52, 0.0419940
1291.84, 0.0421600
1292.16, 0.0422910
1292.48, 0.0424500
1292.81, 0.0425540
1293.13, 0.0426990
1293.45, 0.0428240
1293.77, 0.0429620
1294.1, 0.0430790
1294.42, 0.0432180
1294.74, 0.0433420
1295.07, 0.0435290
1295.39, 0.0437080
1295.71, 0.0438880
1296.04, 0.0440400
1296.36, 0.0442270
1296.69, 0.0443790
1297.01, 0.0443790
1297.34, 0.0444960
1297.66, 0.0446830
1297.98, 0.0448420
1298.31, 0.0450010
1298.64, 0.0451810
1298.96, 0.0452570
1299.29, 0.0453740
1299.61, 0.0454990
1299.94, 0.0456160
1300.26, 0.0457540
1300.59, 0.0458860
1300.92, 0.0460100
1301.24, 0.0461550
1301.57, 0.0462730
1301.9, 0.0463970
1302.22, 0.0465770
1302.55, 0.0467150
1302.88, 0.0468330
1303.21, 0.0469570
1303.53, 0.0470750
1303.86, 0.0472410
1304.19, 0.0474000
1304.52, 0.0475660
1304.85, 0.0476550
1305.17, 0.0477450
1305.5, 0.0479800
1305.83, 0.0480980
1306.16, 0.0481260
1306.49, 0.0482430
1306.82, 0.0483330
1307.15, 0.0484370
1307.48, 0.0485200
1307.81, 0.0486230
1308.14, 0.0487820
1308.47, 0.0489620
1308.8, 0.0492110
1309.13, 0.0493630
1309.46, 0.0493490
1309.79, 0.0494040
1310.12, 0.0496260
1310.45, 0.0498120
1310.79, 0.0498950
1311.12, 0.0500060
1311.45, 0.0501090
1311.78, 0.0501720
1312.11, 0.0503100
1312.44, 0.0504200
1312.78, 0.0505450
1313.11, 0.0506830
1313.44, 0.0507450
1313.77, 0.0508560
1314.11, 0.0509870
1314.44, 0.0510500
1314.77, 0.0511880
1315.11, 0.0512910
1315.44, 0.0513540
1315.78, 0.0514370
1316.11, 0.0515330
1316.44, 0.0516920
1316.78, 0.0518100
1317.11, 0.0518860
1317.45, 0.0519900
1317.78, 0.0521070
1318.12, 0.0522110
1318.45, 0.0523080
1318.79, 0.0523150
1319.12, 0.0524110
1319.46, 0.0525840
1319.8, 0.0527020
1320.13, 0.0527360
1320.47, 0.0528470
1320.8, 0.0529780
1321.14, 0.0530890
1321.48, 0.0531230
1321.81, 0.0532550
1322.15, 0.0533650
1322.49, 0.0533450
1322.83, 0.0534690
1323.16, 0.0536070
1323.5, 0.0537180
1323.84, 0.0537800
1324.18, 0.0538910
1324.52, 0.0540430
1324.85, 0.0540700
1325.19, 0.0540840
1325.53, 0.0541330
1325.87, 0.0542290
1326.21, 0.0543470
1326.55, 0.0544370
1326.89, 0.0544780
1327.23, 0.0546100
1327.57, 0.0547550
1327.91, 0.0548650
1328.25, 0.0549140
1328.59, 0.0550100
1328.93, 0.0550930
1329.27, 0.0551420
1329.61, 0.0551900
1329.95, 0.0552940
1330.29, 0.0554040
1330.64, 0.0554870
1330.98, 0.0555220
1331.32, 0.0555430
1331.66, 0.0555910
1332.0, 0.0556670
1332.34, 0.0557990
1332.69, 0.0558950
1333.03, 0.0559160
1333.37, 0.0559510
1333.72, 0.0560540
1334.06, 0.0561720
1334.4, 0.0562130
1334.75, 0.0563030
1335.09, 0.0563790
1335.43, 0.0564620
1335.78, 0.0564900
1336.12, 0.0565450
1336.47, 0.0566000
1336.81, 0.0566420
1337.16, 0.0567520
1337.5, 0.0567730
1337.85, 0.0568220
1338.19, 0.0568560
1338.54, 0.0568490
1338.88, 0.0569530
1339.23, 0.0570640
1339.58, 0.0571260
1339.92, 0.0571810
1340.27, 0.0573120
1340.61, 0.0574160
1340.96, 0.0573950
1341.31, 0.0574020
1341.66, 0.0574780
1342.0, 0.0575470
1342.35, 0.0575750
1342.7, 0.0575750
1343.05, 0.0575820
1343.39, 0.0576030
1343.74, 0.0576990
1344.09, 0.0578170
1344.44, 0.0578790
1344.79, 0.0579070
1345.14, 0.0579620
1345.48, 0.0580310
1345.83, 0.0580590
1346.18, 0.0580730
1346.53, 0.0581350
1346.88, 0.0581760
1347.23, 0.0581900
1347.58, 0.0582730
1347.93, 0.0583490
1348.28, 0.0584110
1348.64, 0.0584390
1348.99, 0.0583980
1349.34, 0.0584390
1349.69, 0.0585500
1350.04, 0.0586400
1350.39, 0.0586600
1350.74, 0.0586460
1351.1, 0.0586740
1351.45, 0.0587640
1351.8, 0.0587920
1352.15, 0.0588470
1352.51, 0.0588880
1352.86, 0.0589020
1353.21, 0.0589160
1353.56, 0.0589300
1353.92, 0.0589640
1354.27, 0.0590340
1354.63, 0.0590960
1354.98, 0.0591230
1355.33, 0.0592060
1355.69, 0.0592890
1356.04, 0.0592200
1356.4, 0.0592060
1356.75, 0.0593520
1357.11, 0.0593790
1357.46, 0.0592890
1357.82, 0.0593380
1358.18, 0.0594000
1358.53, 0.0594410
1358.89, 0.0594480
1359.24, 0.0596350
1359.6, 0.0596630
1359.96, 0.0595730
1360.31, 0.0596490
1360.67, 0.0597250
1361.03, 0.0597040
1361.39, 0.0597660
1361.74, 0.0598560
1362.1, 0.0600290
1362.46, 0.0599810
1362.82, 0.0598220
1363.18, 0.0597660
1363.53, 0.0597800
1363.89, 0.0598700
1364.25, 0.0600290
1364.61, 0.0600980
1364.97, 0.0600360
1365.33, 0.0599530
1365.69, 0.0598770
1366.05, 0.0598840
1366.41, 0.0599460
1366.77, 0.0600080
1367.13, 0.0600360
1367.49, 0.0600840
1367.85, 0.0600980
1368.21, 0.0601880
1368.57, 0.0601260
1368.93, 0.0600290
1369.3, 0.0601470
1369.66, 0.0602710
1370.02, 0.0602360
1370.38, 0.0602090
1370.74, 0.0602640
1371.11, 0.0602360
1371.47, 0.0601740
1371.83, 0.0602290
1372.19, 0.0602780
1372.56, 0.0602640
1372.92, 0.0602230
1373.29, 0.0602640
1373.65, 0.0602780
1374.01, 0.0602920
1374.38, 0.0603060
1374.74, 0.0602850
1375.11, 0.0602920
1375.47, 0.0602990
1375.84, 0.0603260
1376.2, 0.0603680
1376.57, 0.0604230
1376.93, 0.0604780
1377.3, 0.0604510
1377.67, 0.0604230
1378.03, 0.0604440
1378.4, 0.0605130
1378.76, 0.0605340
1379.13, 0.0604710
1379.5, 0.0604440
1379.87, 0.0605060
1380.23, 0.0607060
1380.6, 0.0608240
1380.97, 0.0607340
1381.34, 0.0606170
1381.7, 0.0605680
1382.07, 0.0606930
1382.44, 0.0609000
1382.81, 0.0608170
1383.18, 0.0606860
1383.55, 0.0606860
1383.92, 0.0606650
1384.29, 0.0606300
1384.66, 0.0606650
1385.03, 0.0606580
1385.4, 0.0606440
1385.77, 0.0606650
1386.14, 0.0607200
1386.51, 0.0606720
1386.88, 0.0605960
1387.25, 0.0606170
1387.62, 0.0607340
1387.99, 0.0608170
1388.36, 0.0607410
1388.74, 0.0606580
1389.11, 0.0606100
1389.48, 0.0606030
1389.85, 0.0606440
1390.23, 0.0606230
1390.6, 0.0606100
1390.97, 0.0606170
1391.35, 0.0606580
1391.72, 0.0606860
1392.09, 0.0608100
1392.47, 0.0608170
1392.84, 0.0606510
1393.21, 0.0606170
1393.59, 0.0606300
1393.96, 0.0605960
1394.34, 0.0606300
1394.71, 0.0606930
1395.09, 0.0607550
1395.46, 0.0607060
1395.84, 0.0607000
1396.22, 0.0607480
1396.59, 0.0606860
1396.97, 0.0606580
1397.35, 0.0606230
1397.72, 0.0605540
1398.1, 0.0605540
1398.48, 0.0605750
1398.85, 0.0605750
1399.23, 0.0606300
1399.61, 0.0606860
1399.99, 0.0607000
1400.37, 0.0607690
1400.74, 0.0607060
1401.12, 0.0606170
1401.5, 0.0605750
1401.88, 0.0605610
1402.26, 0.0605470
1402.64, 0.0604990
1403.02, 0.0605060
1403.4, 0.0605340
1403.78, 0.0605340
1404.16, 0.0605540
1404.54, 0.0606650
1404.92, 0.0606720
1405.3, 0.0605130
1405.68, 0.0604300
1406.06, 0.0604160
1406.44, 0.0604710
1406.83, 0.0605060
1407.21, 0.0605130
1407.59, 0.0604510
1407.97, 0.0603540
1408.35, 0.0603610
1408.74, 0.0604370
1409.12, 0.0604990
1409.5, 0.0604710
1409.89, 0.0604160
1410.27, 0.0603470
1410.65, 0.0603190
1411.04, 0.0602990
1411.42, 0.0602920
1411.81, 0.0602640
1412.19, 0.0602920
1412.58, 0.0603190
1412.96, 0.0602500
1413.35, 0.0602020
1413.73, 0.0602570
1414.12, 0.0602920
1414.5, 0.0602570
1414.89, 0.0602290
1415.28, 0.0602360
1415.66, 0.0602290
1416.05, 0.0601740
1416.44, 0.0601470
1416.82, 0.0601470
1417.21, 0.0601400
1417.6, 0.0601330
1417.98, 0.0601330
1418.37, 0.0601190
1418.76, 0.0601120
1419.15, 0.0601120
1419.54, 0.0600980
1419.93, 0.0600910
1420.32, 0.0600430
1420.71, 0.0600220
1421.09, 0.0600290
1421.48, 0.0600220
1421.88, 0.0599670
1422.27, 0.0599460
1422.66, 0.0599740
1423.05, 0.0600010
1423.44, 0.0600290
1423.83, 0.0599880
1424.22, 0.0599390
1424.61, 0.0599180
1425.0, 0.0598980
1425.39, 0.0598700
1425.78, 0.0598560
1426.18, 0.0598910
1426.57, 0.0598910
1426.96, 0.0598700
1427.36, 0.0598560
1427.75, 0.0598150
1428.14, 0.0598560
1428.54, 0.0598420
1428.93, 0.0598350
1429.32, 0.0597940
1429.72, 0.0597660
1430.11, 0.0597530
1430.51, 0.0597320
1430.9, 0.0597390
1431.3, 0.0597730
1431.69, 0.0597940
1432.09, 0.0597800
1432.48, 0.0597460
1432.88, 0.0597180
1433.28, 0.0596830
1433.67, 0.0596700
1434.07, 0.0596830
1434.46, 0.0596830
1434.86, 0.0596700
1435.26, 0.0596490
1435.66, 0.0596350
1436.05, 0.0595870
1436.45, 0.0595380
1436.85, 0.0595520
1437.25, 0.0596140
1437.65, 0.0596140
1438.05, 0.0595240
1438.44, 0.0594830
1438.84, 0.0595110
1439.24, 0.0594690
1439.64, 0.0594350
1440.04, 0.0594140
1440.44, 0.0594070
1440.84, 0.0594350
1441.24, 0.0594550
1441.65, 0.0594480
1442.05, 0.0594140
1442.45, 0.0594410
1442.85, 0.0594210
1443.25, 0.0593860
1443.65, 0.0593790
1444.05, 0.0593650
1444.46, 0.0593520
1444.86, 0.0593310
1445.26, 0.0593100
1445.67, 0.0592890
1446.07, 0.0592760
1446.47, 0.0592410
1446.88, 0.0591990
1447.28, 0.0592550
1447.68, 0.0592820
1448.09, 0.0592550
1448.49, 0.0592060
1448.9, 0.0591990
1449.3, 0.0591510
1449.71, 0.0591170
1450.11, 0.0591650
1450.52, 0.0591860
1450.93, 0.0590960
1451.33, 0.0590610
1451.74, 0.0590820
1452.14, 0.0590890
1452.55, 0.0590610
1452.96, 0.0590410
1453.36, 0.0590270
1453.77, 0.0589780
1454.18, 0.0589440
1454.59, 0.0589710
1455.0, 0.0589510
1455.41, 0.0589090
1455.81, 0.0588540
1456.22, 0.0588610
1456.63, 0.0589090
1457.04, 0.0589020
1457.45, 0.0588540
1457.86, 0.0588190
1458.27, 0.0588120
1458.68, 0.0587990
1459.09, 0.0587780
1459.5, 0.0587430
1459.91, 0.0587640
1460.32, 0.0587230
1460.74, 0.0586600
1461.15, 0.0586670
1461.56, 0.0586810
1461.97, 0.0586950
1462.39, 0.0586740
1462.8, 0.0586400
1463.21, 0.0586190
1463.62, 0.0586050
1464.04, 0.0586050
1464.45, 0.0585640
1464.86, 0.0585640
1465.28, 0.0585290
1465.69, 0.0585080
1466.11, 0.0585010
1466.52, 0.0585150
1466.94, 0.0584940
1467.35, 0.0584460
1467.77, 0.0584110
1468.18, 0.0583980
1468.6, 0.0583630
1469.02, 0.0583350
1469.43, 0.0583080
1469.85, 0.0583150
1470.27, 0.0583080
1470.68, 0.0582590
1471.1, 0.0582460
1471.52, 0.0582320
1471.94, 0.0582460
1472.35, 0.0582800
1472.77, 0.0582520
1473.19, 0.0582460
1473.61, 0.0582390
1474.03, 0.0582250
1474.45, 0.0581900
1474.87, 0.0581140
1475.29, 0.0581140
1475.71, 0.0580930
1476.13, 0.0580800
1476.55, 0.0580870
1476.97, 0.0580870
1477.39, 0.0581000
1477.81, 0.0580870
1478.23, 0.0580590
1478.65, 0.0580170
1479.07, 0.0579970
1479.5, 0.0579970
1479.92, 0.0580240
1480.34, 0.0580040
1480.76, 0.0579760
1481.19, 0.0579480
1481.61, 0.0579690
1482.03, 0.0579480
1482.46, 0.0579140
1482.88, 0.0579000
1483.31, 0.0579000
1483.73, 0.0579000
1484.16, 0.0578930
1484.58, 0.0578580
1485.01, 0.0578720
1485.43, 0.0578650
1485.86, 0.0578580
1486.28, 0.0578380
1486.71, 0.0578030
1487.14, 0.0577890
1487.56, 0.0577760
1487.99, 0.0577820
1488.42, 0.0578170
1488.84, 0.0577890
1489.27, 0.0577340
1489.7, 0.0577270
1490.13, 0.0577060
1490.56, 0.0576990
1490.98, 0.0577340
1491.41, 0.0577200
1491.84, 0.0576720
1492.27, 0.0576650
1492.7, 0.0576790
1493.13, 0.0576990
1493.56, 0.0576790
1493.99, 0.0576790
1494.42, 0.0576720
1494.85, 0.0576370
1495.29, 0.0575960
1495.72, 0.0576100
1496.15, 0.0576230
1496.58, 0.0575960
1497.01, 0.0575750
1497.44, 0.0575680
1497.88, 0.0575610
1498.31, 0.0575340
1498.74, 0.0575470
1499.18, 0.0575540
1499.61, 0.0575340
1500.04, 0.0575060
1500.48, 0.0574850
1500.91, 0.0574920
1501.35, 0.0574920
1501.78, 0.0574640
1502.22, 0.0574580
1502.65, 0.0574370
1503.09, 0.0574230
1503.53, 0.0574160
1503.96, 0.0573880
1504.4, 0.0573810
1504.83, 0.0573610
1505.27, 0.0573330
1505.71, 0.0573190
1506.15, 0.0573540
1506.58, 0.0573540
1507.02, 0.0573190
1507.46, 0.0573050
1507.9, 0.0573120
1508.34, 0.0572710
1508.78, 0.0572500
1509.21, 0.0572430
1509.66, 0.0572430
1510.09, 0.0572360
1510.53, 0.0572290
1510.97, 0.0572160
1511.42, 0.0571740
1511.86, 0.0571260
1512.3, 0.0571400
1512.74, 0.0571460
1513.18, 0.0571400
1513.62, 0.0571190
1514.06, 0.0570770
1514.51, 0.0570500
1514.95, 0.0570500
1515.39, 0.0570220
1515.83, 0.0570080
1516.28, 0.0569940
1516.72, 0.0569810
1517.16, 0.0569600
1517.61, 0.0569320
1518.05, 0.0569250
1518.5, 0.0569390
1518.94, 0.0569050
1519.39, 0.0568770
1519.83, 0.0568770
1520.28, 0.0568490
1520.73, 0.0568280
1521.17, 0.0568150
1521.62, 0.0567940
1522.07, 0.0567730
1522.51, 0.0567520
1522.96, 0.0567180
1523.41, 0.0566760
1523.85, 0.0566690
1524.3, 0.0566630
1524.75, 0.0566490
1525.2, 0.0565800
1525.65, 0.0565170
1526.1, 0.0565170
1526.55, 0.0565450
1527.0, 0.0565730
1527.45, 0.0565520
1527.9, 0.0565040
1528.35, 0.0564760
1528.8, 0.0564550
1529.25, 0.0564070
1529.7, 0.0563450
1530.15, 0.0563520
1530.6, 0.0563380
1531.05, 0.0563100
1531.51, 0.0563240
1531.96, 0.0562890
1532.41, 0.0562620
1532.87, 0.0562550
1533.32, 0.0562060
1533.77, 0.0561230
1534.23, 0.0561300
1534.68, 0.0561650
1535.14, 0.0561440
1535.59, 0.0561030
1536.05, 0.0560890
1536.5, 0.0560890
1536.96, 0.0560750
1537.41, 0.0560400
1537.87, 0.0560270
1538.32, 0.0560340
1538.78, 0.0559710
1539.24, 0.0558950
1539.7, 0.0558950
1540.15, 0.0559020
1540.61, 0.0558750
1541.07, 0.0558400
1541.53, 0.0558050
1541.98, 0.0557990
1542.44, 0.0558050
1542.9, 0.0557780
1543.36, 0.0557360
1543.82, 0.0557220
1544.28, 0.0556950
1544.74, 0.0556460
1545.2, 0.0556400
1545.66, 0.0556260
1546.12, 0.0556050
1546.59, 0.0555700
1547.05, 0.0555500
1547.51, 0.0555360
1547.97, 0.0555150
1548.43, 0.0554870
1548.9, 0.0554740
1549.36, 0.0554530
1549.82, 0.0554320
1550.29, 0.0553980
1550.75, 0.0553980
1551.21, 0.0553700
1551.68, 0.0553350
1552.14, 0.0553080
1552.61, 0.0552800
1553.07, 0.0552590
1553.54, 0.0552390
1554.0, 0.0552250
1554.47, 0.0551560
1554.93, 0.0551420
1555.4, 0.0551420
1555.87, 0.0550930
1556.34, 0.0550590
1556.8, 0.0550590
1557.27, 0.0550380
1557.74, 0.0550040
1558.21, 0.0549900
1558.68, 0.0549900
1559.14, 0.0549760
1559.61, 0.0549210
1560.08, 0.0549210
1560.55, 0.0549280
1561.02, 0.0548580
1561.49, 0.0547960
1561.96, 0.0547890
1562.43, 0.0548030
1562.9, 0.0547820
1563.38, 0.0547620
1563.85, 0.0546990
1564.32, 0.0546580
1564.79, 0.0546790
1565.26, 0.0546860
1565.74, 0.0546510
1566.21, 0.0545960
1566.68, 0.0545540
1567.16, 0.0545470
1567.63, 0.0545200
1568.1, 0.0544710
1568.58, 0.0544230
1569.05, 0.0544020
1569.53, 0.0543750
1570.0, 0.0543330
1570.48, 0.0543050
1570.96, 0.0542980
1571.43, 0.0542710
1571.91, 0.0542430
1572.39, 0.0542090
1572.86, 0.0541880
1573.34, 0.0541670
1573.82, 0.0541190
1574.3, 0.0541120
1574.77, 0.0540980
1575.25, 0.0540630
1575.73, 0.0540150
1576.21, 0.0540080
1576.69, 0.0539870
1577.17, 0.0539670
1577.65, 0.0539670
1578.13, 0.0539250
1578.61, 0.0538630
1579.09, 0.0538210
1579.57, 0.0537520
1580.05, 0.0537320
1580.54, 0.0537250
1581.02, 0.0536760
1581.5, 0.0536350
1581.98, 0.0536210
1582.47, 0.0535930
1582.95, 0.0535520
1583.43, 0.0535310
1583.92, 0.0535170
1584.4, 0.0534900
1584.88, 0.0534620
1585.37, 0.0534340
1585.85, 0.0534070
1586.34, 0.0533720
1586.82, 0.0533510
1587.31, 0.0533170
1587.8, 0.0532550
1588.28, 0.0532200
1588.77, 0.0532060
1589.26, 0.0531790
1589.74, 0.0531650
1590.23, 0.0531030
1590.72, 0.0530750
1591.21, 0.0530470
1591.7, 0.0530200
1592.19, 0.0529990
1592.67, 0.0529570
1593.16, 0.0529510
1593.65, 0.0529160
1594.14, 0.0528540
1594.63, 0.0528120
1595.12, 0.0527980
1595.61, 0.0527780
1596.11, 0.0527430
1596.6, 0.0526950
1597.09, 0.0526740
1597.58, 0.0526260
1598.08, 0.0525770
1598.57, 0.0525430
1599.06, 0.0524870
1599.55, 0.0524530
1600.05, 0.0524390
1600.54, 0.0524250
1601.04, 0.0524040
1601.53, 0.0523840
1602.03, 0.0523210
1602.52, 0.0522730
1603.02, 0.0522520
1603.51, 0.0522250
1604.01, 0.0521830
1604.5, 0.0521210
1605.0, 0.0520860
1605.5, 0.0520520
1606.0, 0.0519970
1606.49, 0.0519620
1606.99, 0.0519480
1607.49, 0.0519210
1607.99, 0.0518650
1608.49, 0.0518030
1608.99, 0.0517620
1609.49, 0.0517410
1609.99, 0.0517060
1610.49, 0.0516720
1610.99, 0.0516370
1611.49, 0.0515890
1611.99, 0.0515400
1612.49, 0.0515060
1612.99, 0.0514920
1613.49, 0.0514370
1614.0, 0.0513740
1614.5, 0.0513190
1615.0, 0.0512780
1615.51, 0.0512360
1616.01, 0.0511600
1616.51, 0.0511320
1617.02, 0.0511260
1617.52, 0.0510910
1618.03, 0.0510630
1618.53, 0.0510010
1619.04, 0.0509390
1619.54, 0.0509110
1620.05, 0.0508630
1620.55, 0.0508150
1621.06, 0.0507590
1621.57, 0.0507250
1622.08, 0.0506900
1622.58, 0.0506420
1623.09, 0.0505930
1623.6, 0.0505240
1624.11, 0.0504760
1624.62, 0.0504410
1625.13, 0.0504070
1625.64, 0.0503510
1626.15, 0.0502890
1626.66, 0.0502480
1627.17, 0.0502060
1627.68, 0.0501370
1628.19, 0.0500890
1628.7, 0.0500470
1629.21, 0.0500130
1629.72, 0.0499640
1630.24, 0.0499020
1630.75, 0.0498540
1631.26, 0.0497980
1631.78, 0.0497500
1632.29, 0.0496950
1632.8, 0.0496190
1633.32, 0.0496120
1633.83, 0.0495630
1634.35, 0.0495010
1634.86, 0.0494800
1635.38, 0.0494320
1635.9, 0.0493630
1636.41, 0.0492800
1636.93, 0.0492250
1637.45, 0.0491760
1637.96, 0.0491490
1638.48, 0.0491350
1639.0, 0.0490590
1639.52, 0.0489970
1640.04, 0.0489830
1640.56, 0.0489480
1641.08, 0.0488790
1641.59, 0.0488310
1642.11, 0.0488100
1642.63, 0.0487750
1643.16, 0.0487270
1643.68, 0.0486720
1644.2, 0.0486230
1644.72, 0.0485540
1645.24, 0.0485130
1645.76, 0.0484710
1646.29, 0.0483880
1646.81, 0.0483470
1647.33, 0.0483190
1647.86, 0.0482780
1648.38, 0.0482150
1648.9, 0.0481670
1649.43, 0.0481320
1649.95, 0.0480700
1650.48, 0.0480150
1651.0, 0.0479530
1651.53, 0.0478840
1652.06, 0.0478210
1652.58, 0.0477660
1653.11, 0.0477250
1653.64, 0.0476900
1654.17, 0.0476490
1654.69, 0.0475860
1655.22, 0.0475170
1655.75, 0.0474830
1656.28, 0.0474340
1656.81, 0.0473510
1657.34, 0.0472750
1657.87, 0.0472200
1658.4, 0.0471780
1658.93, 0.0471440
1659.46, 0.0470820
1659.99, 0.0469990
1660.52, 0.0469230
1661.05, 0.0468540
1661.59, 0.0467980
1662.12, 0.0467640
1662.65, 0.0467080
1663.19, 0.0466390
1663.72, 0.0465700
1664.26, 0.0465080
1664.79, 0.0464460
1665.32, 0.0463770
1665.86, 0.0463350
1666.39, 0.0462660
1666.93, 0.0461830
1667.47, 0.0461070
1668.0, 0.0460520
1668.54, 0.0459830
1669.08, 0.0459130
1669.61, 0.0458720
1670.15, 0.0458240
1670.69, 0.0457540
1671.23, 0.0456850
1671.77, 0.0456230
1672.31, 0.0455610
1672.85, 0.0455190
1673.39, 0.0454570
1673.93, 0.0454020
1674.47, 0.0453260
1675.01, 0.0452220
1675.55, 0.0451530
1676.09, 0.0450980
1676.64, 0.0450560
1677.18, 0.0450290
1677.72, 0.0449940
1678.26, 0.0449460
1678.81, 0.0449110
1679.35, 0.0448420
1679.89, 0.0447800
1680.44, 0.0447110
1680.98, 0.0446970
1681.53, 0.0446480
1682.07, 0.0445930
1682.62, 0.0445520
1683.17, 0.0445030
1683.71, 0.0444070
1684.26, 0.0443240
1684.81, 0.0442890
1685.36, 0.0442680
1685.9, 0.0442200
1686.45, 0.0441720
1687.0, 0.0441370
1687.55, 0.0440950
1688.1, 0.0440260
1688.65, 0.0439640
1689.2, 0.0439020
1689.75, 0.0438400
1690.3, 0.0437980
1690.85, 0.0437770
1691.41, 0.0437430
1691.96, 0.0437010
1692.51, 0.0436460
1693.06, 0.0436120
1693.61, 0.0435360
1694.17, 0.0434530
1694.72, 0.0434040
1695.28, 0.0434040
1695.83, 0.0433630
1696.39, 0.0433140
1696.94, 0.0432940
1697.5, 0.0432520
1698.05, 0.0431900
1698.61, 0.0431210
1699.17, 0.0430720
1699.72, 0.0430240
1700.28, 0.0429690
1700.84, 0.0429200
1701.4, 0.0428790
1701.95, 0.0428240
1702.51, 0.0427750
1703.07, 0.0426990
1703.63, 0.0426370
1704.19, 0.0425820
1704.75, 0.0425120
1705.31, 0.0424500
1705.88, 0.0424160
1706.44, 0.0423880
1707.0, 0.0423260
1707.56, 0.0422640
1708.12, 0.0422010
1708.69, 0.0421390
1709.25, 0.0420840
1709.81, 0.0420560
1710.38, 0.0420010
1710.94, 0.0419250
1711.51, 0.0418420
1712.07, 0.0417870
1712.64, 0.0417660
1713.2, 0.0417180
1713.77, 0.0416410
1714.34, 0.0415790
1714.9, 0.0415240
1715.47, 0.0414690
1716.04, 0.0414060
1716.61, 0.0413510
1717.18, 0.0412960
1717.74, 0.0412410
1718.31, 0.0411920
1718.88, 0.0411440
1719.45, 0.0410880
1720.02, 0.0410540
1720.59, 0.0409990
1721.17, 0.0409570
1721.74, 0.0409300
1722.31, 0.0408740
1722.88, 0.0408190
1723.45, 0.0407980
1724.03, 0.0407710
1724.6, 0.0407290
1725.18, 0.0406670
1725.75, 0.0406120
1726.33, 0.0405770
1726.9, 0.0405420
1727.48, 0.0405290
1728.05, 0.0404870
1728.63, 0.0404320
1729.2, 0.0403900
1729.78, 0.0403700
1730.36, 0.0403420
1730.94, 0.0403210
1731.51, 0.0403000
1732.09, 0.0402590
1732.67, 0.0402110
1733.25, 0.0401690
1733.83, 0.0401480
1734.41, 0.0401280
1734.99, 0.0401210
1735.57, 0.0400930
1736.15, 0.0400450
1736.73, 0.0399960
1737.32, 0.0399690
1737.9, 0.0399270
1738.48, 0.0399130
1739.07, 0.0399270
1739.65, 0.0399000
1740.23, 0.0398230
1740.82, 0.0397680
1741.4, 0.0397270
1741.99, 0.0396990
1742.57, 0.0396510
1743.16, 0.0396160
1743.74, 0.0396090
1744.33, 0.0395880
1744.92, 0.0395400
1745.51, 0.0394990
1746.09, 0.0394640
1746.68, 0.0394430
1747.27, 0.0393950
1747.86, 0.0393400
1748.45, 0.0392910
1749.04, 0.0392080
1749.63, 0.0391740
1750.22, 0.0391810
1750.81, 0.0391670
1751.4, 0.0390980
1751.99, 0.0390290
1752.59, 0.0389800
1753.18, 0.0389520
1753.77, 0.0389180
1754.37, 0.0388700
1754.96, 0.0388140
1755.56, 0.0387590
1756.15, 0.0387110
1756.74, 0.0386410
1757.34, 0.0385790
1757.94, 0.0385310
1758.53, 0.0384550
1759.13, 0.0383930
1759.73, 0.0383580
1760.32, 0.0383370
1760.92, 0.0382820
1761.52, 0.0382130
1762.12, 0.0381510
1762.72, 0.0380880
1763.32, 0.0380540
1763.92, 0.0379920
1764.52, 0.0379160
1765.12, 0.0378740
1765.72, 0.0378190
1766.32, 0.0377360
1766.92, 0.0376460
1767.53, 0.0375770
1768.13, 0.0375420
1768.73, 0.0374800
1769.34, 0.0374040
1769.94, 0.0373490
1770.55, 0.0373070
1771.15, 0.0372310
1771.76, 0.0371900
1772.36, 0.0371480
1772.97, 0.0370580
1773.57, 0.0369690
1774.18, 0.0368990
1774.79, 0.0368510
1775.4, 0.0367960
1776.0, 0.0367470
1776.61, 0.0366710
1777.22, 0.0366020
1777.83, 0.0365400
1778.44, 0.0364920
1779.05, 0.0364430
1779.66, 0.0363880
1780.27, 0.0363400
1780.88, 0.0362770
1781.5, 0.0362010
1782.11, 0.0361250
1782.72, 0.0360700
1783.33, 0.0360010
1783.95, 0.0359460
1784.56, 0.0358900
1785.18, 0.0358000
1785.79, 0.0357310
1786.41, 0.0356760
1787.02, 0.0356140
1787.64, 0.0355450
1788.26, 0.0354750
1788.87, 0.0354340
1789.49, 0.0353790
1790.11, 0.0353030
1790.73, 0.0352270
1791.35, 0.0351780
1791.96, 0.0351020
1792.58, 0.0350540
1793.21, 0.0350190
1793.83, 0.0349500
1794.45, 0.0348740
1795.07, 0.0347910
1795.69, 0.0347080
1796.31, 0.0346600
1796.93, 0.0345840
1797.56, 0.0345150
1798.18, 0.0344450
1798.8, 0.0343900
1799.43, 0.0343350
1800.05, 0.0342800
1800.68, 0.0342310
1801.3, 0.0341830
1801.93, 0.0341270
1802.56, 0.0340580
1803.18, 0.0339890
1803.81, 0.0339060
1804.44, 0.0338440
1805.07, 0.0338030
1805.7, 0.0337750
1806.33, 0.0337060
1806.95, 0.0336300
1807.58, 0.0335740
1808.22, 0.0335050
1808.85, 0.0334360
1809.48, 0.0333740
1810.11, 0.0333190
1810.74, 0.0332430
1811.38, 0.0331800
1812.01, 0.0331250
1812.64, 0.0330840
1813.28, 0.0330210
1813.91, 0.0329590
1814.55, 0.0328900
1815.18, 0.0328690
1815.82, 0.0328140
1816.45, 0.0327310
1817.09, 0.0326620
1817.73, 0.0326270
1818.36, 0.0325860
1819.0, 0.0325100
1819.64, 0.0324890
1820.28, 0.0324820
1820.92, 0.0323920
1821.56, 0.0323160
1822.2, 0.0322400
1822.84, 0.0321570
1823.48, 0.0321020
1824.12, 0.0320470
1824.76, 0.0319710
1825.41, 0.0319710
1826.05, 0.0320260
1826.69, 0.0319150
1827.34, 0.0317770
1827.98, 0.0317360
1828.63, 0.0316940
1829.27, 0.0316320
1829.92, 0.0315910
1830.56, 0.0315840
1831.21, 0.0315150
1831.86, 0.0313970
1832.5, 0.0313210
1833.15, 0.0312520
1833.8, 0.0312030
1834.45, 0.0312030
1835.1, 0.0311830
1835.75, 0.0311620
1836.4, 0.0311140
1837.05, 0.0310510
1837.7, 0.0309890
1838.35, 0.0308300
1839.01, 0.0307960
1839.66, 0.0308300
1840.31, 0.0306920
1840.96, 0.0306370
1841.62, 0.0306850
1842.27, 0.0305610
1842.93, 0.0303950
1843.58, 0.0303120
1844.24, 0.0302560
1844.9, 0.0302010
1845.55, 0.0301460
1846.21, 0.0302010
1846.87, 0.0302630
1847.53, 0.0301530
1848.18, 0.0300560
1848.84, 0.0299320
1849.5, 0.0298280
1850.16, 0.0297730
1850.82, 0.0297380
1851.48, 0.0296760
1852.14, 0.0296410
1852.81, 0.0296340
1853.47, 0.0296550
1854.13, 0.0295790
1854.8, 0.0294340
1855.46, 0.0293650
1856.12, 0.0293720
1856.79, 0.0293370
1857.45, 0.0292540
1858.12, 0.0291780
1858.79, 0.0291570
1859.45, 0.0292260
1860.12, 0.0291640
1860.79, 0.0290260
1861.46, 0.0289290
1862.12, 0.0289080
1862.79, 0.0289080
1863.46, 0.0288880
1864.13, 0.0288390
1864.8, 0.0287630
1865.48, 0.0287080
1866.15, 0.0286670
1866.82, 0.0286940
1867.49, 0.0287700
1868.16, 0.0287220
1868.84, 0.0286180
1869.51, 0.0286040
1870.19, 0.0286600
1870.86, 0.0286800
1871.54, 0.0285350
1872.21, 0.0285210
1872.89, 0.0285970
1873.56, 0.0285140
1874.24, 0.0283970
1874.92, 0.0283690
1875.6, 0.0283420
1876.28, 0.0283550
1876.96, 0.0283620
1877.64, 0.0282450
1878.32, 0.0281830
1879.0, 0.0281690
1879.68, 0.0281550
1880.36, 0.0281480
1881.04, 0.0281200
1881.73, 0.0280650
1882.41, 0.0280440
1883.09, 0.0280580
1883.78, 0.0280790
1884.46, 0.0280510
1885.15, 0.0280170
1885.83, 0.0279820
1886.52, 0.0279680
1887.21, 0.0279410
1887.89, 0.0279200
1888.58, 0.0278990
1889.27, 0.0279130
1889.96, 0.0279550
1890.65, 0.0278990
1891.34, 0.0278580
1892.03, 0.0278580
1892.72, 0.0278370
1893.41, 0.0278300
1894.1, 0.0278090
1894.79, 0.0277890
1895.49, 0.0277680
1896.18, 0.0277470
1896.87, 0.0277610
1897.57, 0.0277750
1898.26, 0.0277680
1898.96, 0.0278160
1899.65, 0.0278580
1900.35, 0.0277960
1901.05, 0.0277130
1901.74, 0.0276920
1902.44, 0.0277680
1903.14, 0.0277680
1903.84, 0.0276850
1904.54, 0.0277200
1905.24, 0.0277680
1905.94, 0.0277260
1906.64, 0.0277130
1907.34, 0.0276430
1908.04, 0.0275880
1908.75, 0.0275810
1909.45, 0.0275880
1910.15, 0.0275880
1910.86, 0.0275810
1911.56, 0.0275610
1912.27, 0.0275260
1912.97, 0.0275810
1913.68, 0.0275810
1914.39, 0.0274910
1915.09, 0.0274500
1915.8, 0.0274640
1916.51, 0.0274500
1917.22, 0.0273880
1917.93, 0.0273460
1918.64, 0.0273600
1919.35, 0.0274220
1920.06, 0.0274570
1920.77, 0.0274080
1921.48, 0.0272910
1922.19, 0.0272430
1922.91, 0.0272150
1923.62, 0.0272080
1924.33, 0.0271800
1925.05, 0.0271460
1925.76, 0.0271250
1926.48, 0.0271110
1927.19, 0.0270770
1927.91, 0.0270630
1928.63, 0.0270420
1929.35, 0.0269800
1930.07, 0.0269590
1930.78, 0.0269380
1931.5, 0.0269110
1932.22, 0.0268760
1932.94, 0.0268490
1933.66, 0.0268070
1934.39, 0.0267660
1935.11, 0.0267380
1935.83, 0.0267310
1936.55, 0.0267240
1937.28, 0.0266620
1938.0, 0.0266200
1938.73, 0.0266340
1939.45, 0.0266140
1940.18, 0.0265580
1940.9, 0.0265240
1941.63, 0.0264960
1942.36, 0.0264610
1943.09, 0.0264130
1943.81, 0.0263650
1944.54, 0.0263650
1945.27, 0.0263510
1946.0, 0.0263090
1946.73, 0.0262890
1947.47, 0.0262610
1948.2, 0.0262190
1948.93, 0.0261780
1949.66, 0.0261500
1950.4, 0.0261430
1951.13, 0.0261300
1951.86, 0.0260880
1952.6, 0.0260400
1953.34, 0.0260260
1954.07, 0.0260120
1954.81, 0.0259840
1955.55, 0.0259640
1956.29, 0.0259430
1957.02, 0.0259290
1957.76, 0.0258950
1958.5, 0.0258600
1959.24, 0.0258250
1959.98, 0.0257910
1960.72, 0.0257630
1961.47, 0.0257560
1962.21, 0.0257560
1962.95, 0.0257290
1963.7, 0.0256870
1964.44, 0.0256530
1965.18, 0.0256110
1965.93, 0.0255900
1966.67, 0.0255840
1967.42, 0.0255490
1968.17, 0.0255140
1968.92, 0.0255010
1969.66, 0.0254800
1970.41, 0.0254380
1971.16, 0.0254040
1971.91, 0.0253970
1972.66, 0.0253760
1973.41, 0.0253760
1974.16, 0.0253550
1974.92, 0.0252930
1975.67, 0.0252520
1976.42, 0.0252380
1977.18, 0.0252100
1977.93, 0.0251620
1978.69, 0.0251270
1979.44, 0.0251130
1980.2, 0.0251000
1980.95, 0.0250720
1981.71, 0.0250510
1982.47, 0.0250310
1983.23, 0.0250170
1983.99, 0.0249960
1984.74, 0.0249610
1985.51, 0.0249540
1986.27, 0.0249340
1987.03, 0.0249060
1987.79, 0.0248720
1988.55, 0.0248370
1989.32, 0.0248230
1990.08, 0.0248230
1990.84, 0.0248020
1991.61, 0.0247750
1992.37, 0.0247470
1993.14, 0.0247190
1993.9, 0.0247130
1994.67, 0.0246780
1995.44, 0.0246570
1996.21, 0.0246500
1996.98, 0.0246300
1997.75, 0.0245810
1998.52, 0.0245600
1999.29, 0.0245540
2000.06, 0.0245330
2000.83, 0.0245120
2001.6, 0.0245050
2002.38, 0.0244840
2003.15, 0.0244640
2003.93, 0.0244430
2004.7, 0.0244220
2005.48, 0.0244010
2006.25, 0.0243810
2007.03, 0.0243670
2007.81, 0.0243530
2008.58, 0.0243530
2009.36, 0.0243390
2010.14, 0.0243190
2010.92, 0.0242980
2011.7, 0.0242770
2012.48, 0.0242630
2013.26, 0.0242420
2014.05, 0.0242290
2014.83, 0.0242220
2015.61, 0.0242150
2016.4, 0.0242080
2017.18, 0.0241940
2017.97, 0.0242080
2018.75, 0.0242080
2019.54, 0.0241600
2020.32, 0.0241390
2021.11, 0.0241600
2021.9, 0.0241530
2022.69, 0.0241460
2023.48, 0.0241460
2024.27, 0.0241390
2025.06, 0.0241320
2025.85, 0.0241250
2026.64, 0.0241110
2027.44, 0.0241040
2028.23, 0.0241250
2029.02, 0.0241250
2029.82, 0.0240970
2030.61, 0.0240970
2031.41, 0.0241040
2032.2, 0.0241040
2033.0, 0.0241040
2033.8, 0.0241110
2034.6, 0.0241250
2035.4, 0.0241320
2036.2, 0.0241460
2037.0, 0.0241600
2037.8, 0.0241600
2038.6, 0.0241600
2039.4, 0.0241460
2040.2, 0.0241110
2041.01, 0.0241320
2041.81, 0.0241660
2042.61, 0.0241600
2043.42, 0.0241600
2044.22, 0.0241730
2045.03, 0.0241870
2045.84, 0.0242010
2046.65, 0.0242220
2047.46, 0.0242080
2048.26, 0.0241870
2049.07, 0.0242080
2049.88, 0.0242290
2050.69, 0.0242360
2051.51, 0.0242490
2052.32, 0.0242700
2053.13, 0.0242770
2053.94, 0.0242630
2054.76, 0.0242630
2055.57, 0.0242700
2056.39, 0.0242770
2057.2, 0.0242980
2058.02, 0.0243120
2058.84, 0.0243190
2059.66, 0.0243190
2060.48, 0.0243320
2061.29, 0.0243390
2062.11, 0.0243530
2062.94, 0.0243460
2063.76, 0.0243320
2064.58, 0.0243390
2065.4, 0.0243530
2066.22, 0.0243390
2067.05, 0.0243390
2067.87, 0.0243390
2068.7, 0.0243460
2069.52, 0.0243460
2070.35, 0.0243530
2071.18, 0.0243600
2072.0, 0.0243260
2072.83, 0.0243660
2073.66, 0.0243660
2074.49, 0.0243260
2075.32, 0.0243260
2076.15, 0.0243660
2076.98, 0.0244260
2077.82, 0.0244460
2078.65, 0.0245060
2079.48, 0.0245260
2080.32, 0.0245260
2081.15, 0.0245660
2081.99, 0.0245660
2082.83, 0.0245260
2083.66, 0.0244660
2084.5, 0.0244660
2085.34, 0.0244860
2086.18, 0.0245060
2087.02, 0.0245460
2087.86, 0.0245660
2088.7, 0.0246060
2089.54, 0.0246260
2090.39, 0.0246060
2091.23, 0.0245860
2092.07, 0.0246060
2092.92, 0.0246060
2093.76, 0.0245860
2094.61, 0.0245860
2095.45, 0.0246460
2096.3, 0.0246860
2097.15, 0.0246660
2098.0, 0.0246660
2098.85, 0.0246460
2099.7, 0.0246460
2100.55, 0.0246060
2101.4, 0.0245460
2102.25, 0.0245460
2103.1, 0.0245660
2103.96, 0.0246260
2104.81, 0.0246460
2105.67, 0.0246260
2106.52, 0.0246660
2107.38, 0.0246860
2108.24, 0.0246460
2109.09, 0.0246460
2109.95, 0.0246660
2110.81, 0.0246460
2111.67, 0.0246460
2112.53, 0.0246860
2113.39, 0.0247060
2114.25, 0.0247260
2115.12, 0.0247060
2115.98, 0.0246460
2116.84, 0.0246260
2117.71, 0.0246260
2118.58, 0.0246260
2119.44, 0.0245860
2120.31, 0.0245260
2121.18, 0.0245660
2122.04, 0.0246260
2122.91, 0.0246460
2123.78, 0.0246260
2124.65, 0.0245860
2125.52, 0.0245660
2126.4, 0.0245260
2127.27, 0.0244860
2128.14, 0.0245060
2129.02, 0.0245460
2129.89, 0.0245060
2130.77, 0.0244860
2131.64, 0.0244660
2132.52, 0.0244060
2133.4, 0.0244060
2134.27, 0.0244260
2135.15, 0.0243660
2136.03, 0.0243460
2136.91, 0.0243460
2137.79, 0.0244060
2138.68, 0.0243860
2139.56, 0.0243070
2140.44, 0.0242470
2141.33, 0.0242670
2142.21, 0.0242870
2143.1, 0.0242470
2143.99, 0.0242070
2144.87, 0.0242270
2145.76, 0.0242270
2146.65, 0.0241670
2147.54, 0.0241270
2148.43, 0.0241270
2149.32, 0.0241270
2150.21, 0.0241270
2151.1, 0.0241070
2151.99, 0.0241470
2152.89, 0.0241070
2153.78, 0.0240670
2154.68, 0.0240870
2155.57, 0.0240670
2156.47, 0.0240670
2157.37, 0.0240670
2158.27, 0.0240270
2159.16, 0.0240070
2160.06, 0.0240470
2160.96, 0.0240670
2161.86, 0.0240870
2162.77, 0.0240270
2163.67, 0.0240470
2164.57, 0.0241270
2165.48, 0.0241270
2166.38, 0.0241070
2167.29, 0.0240670
2168.2, 0.0240070
2169.1, 0.0240070
2170.01, 0.0240070
2170.92, 0.0240470
2171.83, 0.0240670
2172.74, 0.0240470
2173.65, 0.0239670
2174.56, 0.0238670
2175.47, 0.0238670
2176.39, 0.0238870
2177.3, 0.0238870
2178.22, 0.0238480
2179.13, 0.0238480
2180.05, 0.0238080
2180.96, 0.0238080
2181.88, 0.0238080
2182.8, 0.0237280
2183.72, 0.0236680
2184.64, 0.0236280
2185.56, 0.0236480
2186.48, 0.0236480
2187.41, 0.0236080
2188.33, 0.0235480
2189.25, 0.0235480
2190.18, 0.0235280
2191.1, 0.0234480
2192.03, 0.0234080
2192.96, 0.0233490
2193.89, 0.0232290
2194.82, 0.0232290
2195.74, 0.0232690
2196.68, 0.0232290
2197.61, 0.0231290
2198.54, 0.0230690
2199.47, 0.0231290
2200.4, 0.0230890
2201.34, 0.0230090
2202.28, 0.0229100
2203.21, 0.0229100
2204.15, 0.0229100
2205.08, 0.0228100
2206.02, 0.0226500
2206.96, 0.0225900
2207.9, 0.0225900
2208.84, 0.0225900
2209.78, 0.0225900
2210.73, 0.0225500
2211.67, 0.0225500
2212.61, 0.0225300
2213.56, 0.0224910
2214.5, 0.0224310
2215.45, 0.0223910
2216.4, 0.0223510
2217.35, 0.0222910
2218.3, 0.0222910
2219.24, 0.0222910
2220.2, 0.0222510
2221.15, 0.0222310
2222.1, 0.0222310
2223.05, 0.0222110
2224.0, 0.0221710
2224.96, 0.0221910
2225.91, 0.0221910
2226.87, 0.0221510
2227.83, 0.0221910
2228.79, 0.0221910
2229.74, 0.0221510
2230.7, 0.0221310
2231.66, 0.0221710
2232.63, 0.0221510
2233.59, 0.0221310
2234.55, 0.0221310
2235.51, 0.0221110
2236.48, 0.0221110
2237.44, 0.0221110
2238.41, 0.0221310
2239.38, 0.0221510
2240.34, 0.0221910
2241.31, 0.0221710
2242.28, 0.0222110
2243.25, 0.0222310
2244.22, 0.0221910
2245.19, 0.0221510
2246.17, 0.0221710
2247.14, 0.0221910
2248.12, 0.0221710
2249.09, 0.0221510
2250.07, 0.0221310
2251.04, 0.0221310
2252.02, 0.0221510
2253.0, 0.0221710
2253.98, 0.0221910
2254.96, 0.0221710
2255.94, 0.0220910
2256.92, 0.0220910
2257.91, 0.0221510
2258.89, 0.0221710
2259.88, 0.0221710
2260.86, 0.0221710
2261.85, 0.0221710
2262.83, 0.0221910
2263.82, 0.0221710
2264.81, 0.0221110
2265.8, 0.0221110
2266.79, 0.0220910
2267.78, 0.0220510
2268.78, 0.0220510
2269.77, 0.0220320
2270.76, 0.0220510
2271.76, 0.0220910
2272.75, 0.0221110
2273.75, 0.0220710
2274.75, 0.0220510
2275.75, 0.0220710
2276.75, 0.0220710
2277.75, 0.0220510
2278.75, 0.0220510
2279.75, 0.0220710
2280.75, 0.0220120
2281.76, 0.0220120
2282.76, 0.0220510
2283.77, 0.0220510
2284.77, 0.0220120
2285.78, 0.0220510
2286.79, 0.0220320
2287.8, 0.0220120
2288.81, 0.0220120
2289.82, 0.0219520
2290.83, 0.0218920
2291.84, 0.0219320
2292.86, 0.0219520
2293.87, 0.0219720
2294.89, 0.0219520
2295.91, 0.0219120
2296.92, 0.0218920
2297.94, 0.0218920
2298.96, 0.0218720
2299.98, 0.0218520
2301.0, 0.0218520
2302.02, 0.0218320
2303.04, 0.0218120
2304.07, 0.0218320
2305.09, 0.0218720
2306.12, 0.0218720
2307.15, 0.0218520
2308.17, 0.0218520
2309.2, 0.0218520
2310.23, 0.0218320
2311.26, 0.0218320
2312.29, 0.0218120
2313.32, 0.0218320
2314.35, 0.0218720
2315.39, 0.0218920
2316.42, 0.0218520
2317.46, 0.0218320
2318.5, 0.0218520
2319.53, 0.0218720
2320.57, 0.0218320
2321.61, 0.0218120
2322.65, 0.0218120
2323.69, 0.0218120
2324.73, 0.0218520
2325.78, 0.0218920
2326.82, 0.0218920
2327.86, 0.0219120
2328.91, 0.0219520
2329.96, 0.0220320
2331.01, 0.0220120
2332.05, 0.0219920
2333.1, 0.0220120
2334.15, 0.0220320
2335.21, 0.0220510
2336.26, 0.0221110
2337.31, 0.0221110
2338.36, 0.0221510
2339.42, 0.0221710
2340.48, 0.0221710
2341.53, 0.0221510
2342.59, 0.0221510
2343.65, 0.0222110
2344.71, 0.0222710
2345.77, 0.0222710
2346.83, 0.0222910
2347.9, 0.0223310
2348.96, 0.0223510
2350.02, 0.0223910
2351.09, 0.0224310
2352.16, 0.0224110
2353.23, 0.0224110
2354.29, 0.0224710
2355.36, 0.0225300
2356.43, 0.0225700
2357.51, 0.0226100
2358.58, 0.0226100
2359.65, 0.0226700
2360.73, 0.0227300
2361.8, 0.0227500
2362.88, 0.0227500
2363.96, 0.0227500
2365.03, 0.0227700
2366.11, 0.0228100
2367.19, 0.0228100
2368.27, 0.0228300
2369.36, 0.0228500
2370.44, 0.0228500
2371.53, 0.0228500
2372.61, 0.0228700
2373.7, 0.0229100
2374.78, 0.0229100
2375.87, 0.0229690
2376.96, 0.0229500
2378.05, 0.0229690
2379.14, 0.0229500
2380.24, 0.0229500
2381.33, 0.0229690
2382.42, 0.0229690
2383.52, 0.0229690
2384.61, 0.0229500
2385.71, 0.0228900
2386.81, 0.0228700
2387.91, 0.0228900
2389.01, 0.0229300
2390.11, 0.0228900
2391.22, 0.0228300
2392.32, 0.0228300
2393.42, 0.0228300
2394.53, 0.0227700
2395.64, 0.0227500
2396.74, 0.0227900
2397.85, 0.0227900
2398.96, 0.0227100
2400.07, 0.0226700
2401.18, 0.0226100
2402.3, 0.0225500
2403.41, 0.0225700
2404.52, 0.0226100
2405.64, 0.0225300
2406.76, 0.0224710
2407.88, 0.0224510
2408.99, 0.0224310
2410.11, 0.0223510
2411.23, 0.0223510
2412.36, 0.0223710
2413.48, 0.0223110
2414.6, 0.0222710
2415.73, 0.0222310
2416.85, 0.0222110
2417.98, 0.0221710
2419.11, 0.0221310
2420.24, 0.0221310
2421.37, 0.0221510
2422.5, 0.0220910
2423.64, 0.0220320
2424.77, 0.0220120
2425.9, 0.0219920
2427.04, 0.0220120
2428.18, 0.0220120
2429.31, 0.0219720
2430.45, 0.0219320
2431.59, 0.0218920
2432.73, 0.0218520
2433.88, 0.0218320
2435.02, 0.0218320
2436.16, 0.0218120
2437.31, 0.0217520
2438.45, 0.0217120
2439.6, 0.0216720
2440.75, 0.0216520
2441.9, 0.0216120
2443.05, 0.0215730
2444.2, 0.0215330
2445.35, 0.0215130
2446.51, 0.0215130
2447.67, 0.0214730
2448.82, 0.0214130
2449.98, 0.0213730
2451.14, 0.0213730
2452.3, 0.0213130
2453.46, 0.0212530
2454.62, 0.0211930
2455.78, 0.0211730
2456.94, 0.0211340
2458.11, 0.0210940
2459.28, 0.0210540
2460.44, 0.0209940
2461.61, 0.0209540
2462.78, 0.0209740
2463.95, 0.0209740
2465.12, 0.0208940
2466.3, 0.0208340
2467.47, 0.0207740
2468.65, 0.0207340
2469.82, 0.0206350
2471.0, 0.0205950
2472.18, 0.0205750
2473.36, 0.0205550
2474.54, 0.0204950
2475.72, 0.0204550
2476.9, 0.0204550
2478.08, 0.0204550
2479.27, 0.0204150
2480.46, 0.0203350
2481.64, 0.0202950
2482.83, 0.0202950
2484.02, 0.0203150
2485.21, 0.0203350
2486.4, 0.0202550
2487.6, 0.0202350
2488.79, 0.0201960
2489.99, 0.0201360
2491.18, 0.0201360
2492.38, 0.0201560
2493.58, 0.0200960
2494.78, 0.0200360
2495.98, 0.0199960
2497.18, 0.0200160
2498.39, 0.0200160
2499.59, 0.0200160
2500.8, 0.0200160
2502.01, 0.0200160
2503.21, 0.0199760
2504.42, 0.0199360
2505.63, 0.0199160
2506.84, 0.0199160
2508.06, 0.0199160
2509.27, 0.0198560
2510.49, 0.0198760
2511.7, 0.0198960
2512.92, 0.0198360
2514.14, 0.0197960
2515.36, 0.0198560
2516.58, 0.0197960
2517.8, 0.0197370
2519.03, 0.0196970
2520.25, 0.0197370
2521.48, 0.0197570
2522.7, 0.0197760
2523.93, 0.0197370
2525.16, 0.0196970
2526.39, 0.0196970
2527.62, 0.0197170
2528.86, 0.0197170
2530.09, 0.0197370
2531.33, 0.0197370
2532.56, 0.0196570
2533.8, 0.0196370
2535.04, 0.0196770
2536.28, 0.0196570
2537.52, 0.0195770
2538.76, 0.0195770
2540.01, 0.0195770
2541.25, 0.0195970
2542.5, 0.0196770
2543.75, 0.0196170
2544.99, 0.0195570
2546.24, 0.0195970
2547.49, 0.0196170
2548.75, 0.0195770
2550.0, 0.0195970
2551.26, 0.0196770
2552.51, 0.0196570
2553.77, 0.0195570
2555.03, 0.0195170
2556.29, 0.0194770
2557.55, 0.0194770
2558.81, 0.0195370
2560.08, 0.0197570
2561.34, 0.0199360
2562.61, 0.0199160
2563.88, 0.0198360
2565.14, 0.0196170
2566.41, 0.0194570
2567.68, 0.0194970
2568.96, 0.0196770
2570.23, 0.0196370
2571.51, 0.0195570
2572.78, 0.0197960
2574.06, 0.0196770
2575.34, 0.0195770
2576.62, 0.0196370
2577.9, 0.0194170
2579.18, 0.0193770
2580.47, 0.0195570
2581.75, 0.0195770
2583.04, 0.0198560
2584.32, 0.0197960
2585.61, 0.0195170
2586.9, 0.0195570
2588.2, 0.0195170
2589.49, 0.0194370
2590.78, 0.0193170
2592.08, 0.0194170
2593.37, 0.0200360
2594.67, 0.0204550
2595.97, 0.0198160
2597.27, 0.0192780
2598.57, 0.0190780
2599.88, 0.0190580
2601.18, 0.0191380
2602.49, 0.0192180
2603.79, 0.0193770
2605.1, 0.0194970
2606.41, 0.0192580
2607.72, 0.0190780
2609.03, 0.0190580
2610.35, 0.0189580
2611.66, 0.0188590
2612.98, 0.0188590
2614.3, 0.0187390
2615.62, 0.0189980
2616.94, 0.0191580
2618.26, 0.0188980
2619.58, 0.0190180
2620.91, 0.0188590
2622.23, 0.0184990
2623.56, 0.0184390
2624.89, 0.0185590
2626.22, 0.0187590
2627.55, 0.0185190
2628.88, 0.0185990
2630.21, 0.0188390
2631.55, 0.0184990
2632.89, 0.0183800
2634.22, 0.0183200
2635.56, 0.0181600
2636.9, 0.0181200
2638.25, 0.0181000
2639.59, 0.0181200
2640.93, 0.0180600
2642.28, 0.0180600
2643.63, 0.0180400
2644.98, 0.0181000
2646.33, 0.0180400
2647.68, 0.0179410
2649.03, 0.0179010
2650.39, 0.0179210
2651.74, 0.0180600
2653.1, 0.0180000
2654.46, 0.0178810
2655.82, 0.0178410
2657.18, 0.0177410
2658.54, 0.0178210
2659.9, 0.0178610
2661.27, 0.0178210
2662.64, 0.0177810
2664.01, 0.0181200
2665.38, 0.0183400
2666.74, 0.0182200
2668.12, 0.0180000
2669.49, 0.0183600
2670.87, 0.0182200
2672.24, 0.0176410
2673.62, 0.0176010
2675.0, 0.0178210
2676.38, 0.0179600
2677.76, 0.0178410
2679.15, 0.0177210
2680.54, 0.0174620
2681.92, 0.0174020
2683.31, 0.0174420
2684.7, 0.0174220
2686.09, 0.0173420
2687.48, 0.0172620
2688.88, 0.0172420
2690.27, 0.0172220
2691.67, 0.0172820
2693.07, 0.0175410
2694.47, 0.0175410
2695.87, 0.0173620
2697.27, 0.0172220
2698.67, 0.0171620
2700.08, 0.0172420
2701.49, 0.0172620
2702.9, 0.0172020
2704.31, 0.0172220
2705.72, 0.0172220
2707.13, 0.0173220
2708.54, 0.0175210
2709.96, 0.0177410
2711.38, 0.0176010
2712.8, 0.0172220
2714.22, 0.0171220
2715.64, 0.0171220
2717.06, 0.0171820
2718.49, 0.0173820
2719.91, 0.0178010
2721.34, 0.0175410
2722.77, 0.0174020
2724.2, 0.0175810
2725.63, 0.0173220
2727.07, 0.0170620
2728.5, 0.0169430
2729.94, 0.0168830
2731.38, 0.0168830
2732.82, 0.0169630
2734.26, 0.0171020
2735.7, 0.0169430
2737.15, 0.0169230
2738.59, 0.0172020
2740.04, 0.0172220
2741.49, 0.0169830
2742.94, 0.0167430
2744.39, 0.0166430
2745.84, 0.0165840
2747.3, 0.0165240
2748.76, 0.0164840
2750.21, 0.0164640
2751.67, 0.0164640
2753.14, 0.0165640
2754.6, 0.0168830
2756.06, 0.0167630
2757.53, 0.0163840
2759.0, 0.0162640
2760.46, 0.0163040
2761.94, 0.0164440
2763.41, 0.0163840
2764.88, 0.0162240
2766.36, 0.0162040
2767.83, 0.0162240
2769.31, 0.0162240
2770.79, 0.0161640
2772.27, 0.0159850
2773.76, 0.0159050
2775.24, 0.0158850
2776.73, 0.0158850
2778.22, 0.0158250
2779.71, 0.0157850
2781.2, 0.0157650
2782.69, 0.0157650
2784.18, 0.0157850
2785.68, 0.0158650
2787.18, 0.0158650
2788.68, 0.0156660
2790.18, 0.0155460
2791.68, 0.0155060
2793.19, 0.0154460
2794.69, 0.0154060
2796.2, 0.0153660
2797.71, 0.0153460
2799.22, 0.0153260
2800.73, 0.0153660
2802.24, 0.0154660
2803.76, 0.0154060
2805.28, 0.0152460
2806.8, 0.0152070
2808.32, 0.0151670
2809.84, 0.0151070
2811.36, 0.0150470
2812.89, 0.0150070
2814.42, 0.0150270
2815.94, 0.0149670
2817.48, 0.0149470
2819.01, 0.0149270
2820.54, 0.0148670
2822.08, 0.0147680
2823.61, 0.0146880
2825.15, 0.0146480
2826.69, 0.0145880
2828.23, 0.0145080
2829.78, 0.0144280
2831.32, 0.0143880
2832.87, 0.0143280
2834.42, 0.0143090
2835.97, 0.0143090
2837.52, 0.0142690
2839.08, 0.0142090
2840.63, 0.0140890
2842.19, 0.0140290
2843.75, 0.0140090
2845.31, 0.0139890
2846.87, 0.0139490
2848.44, 0.0138890
2850.0, 0.0138100
2851.57, 0.0137700
2853.14, 0.0137700
2854.71, 0.0137500
2856.28, 0.0137300
2857.86, 0.0136900
2859.43, 0.0136500
2861.01, 0.0136300
2862.59, 0.0136100
2864.17, 0.0135900
2865.76, 0.0135500
2867.34, 0.0135100
2868.93, 0.0135100
2870.52, 0.0134900
2872.11, 0.0134900
2873.7, 0.0134700
2875.29, 0.0134300
2876.89, 0.0134100
2878.49, 0.0133910
2880.08, 0.0133510
2881.69, 0.0133510
2883.29, 0.0133310
2884.89, 0.0133110
2886.5, 0.0132710
2888.11, 0.0132310
2889.72, 0.0131910
2891.33, 0.0131910
2892.94, 0.0132110
2894.56, 0.0131910
2896.17, 0.0131310
2897.79, 0.0131110
2899.42, 0.0131510
2901.04, 0.0131910
2902.66, 0.0131310
2904.29, 0.0130910
2905.92, 0.0130710
2907.55, 0.0130310
2909.18, 0.0130110
2910.81, 0.0130110
2912.45, 0.0130310
2914.08, 0.0130310
2915.72, 0.0129710
2917.36, 0.0129320
2919.01, 0.0129120
2920.65, 0.0129520
2922.3, 0.0129910
2923.94, 0.0129120
2925.59, 0.0128320
2927.25, 0.0128120
2928.9, 0.0127920
2930.56, 0.0127720
2932.21, 0.0127320
2933.87, 0.0127320
2935.53, 0.0127520
2937.2, 0.0127320
2938.86, 0.0127120
2940.53, 0.0127320
2942.2, 0.0126920
2943.87, 0.0126720
2945.54, 0.0126320
2947.22, 0.0125720
2948.89, 0.0125120
2950.57, 0.0124930
2952.25, 0.0124730
2953.93, 0.0124130
2955.62, 0.0123330
2957.3, 0.0122930
2958.99, 0.0122730
2960.68, 0.0122330
2962.37, 0.0121730
2964.07, 0.0121330
2965.76, 0.0120730
2967.46, 0.0119940
2969.16, 0.0119340
2970.86, 0.0118740
2972.56, 0.0118140
2974.27, 0.0117140
2975.98, 0.0116140
2977.69, 0.0115350
2979.4, 0.0114350
2981.11, 0.0113750
2982.83, 0.0113750
2984.54, 0.0112950
2986.26, 0.0112350
2987.98, 0.0111550
2989.71, 0.0110160
2991.43, 0.0108960
2993.16, 0.0108160
2994.89, 0.0107360
2996.62, 0.0106770
2998.35, 0.0105970
3000.09, 0.0104570
3001.83, 0.0103770
3003.57, 0.0103170
3005.31, 0.0102370
3007.05, 0.0101580
3008.79, 0.0100780
3010.54, 0.00995800
3012.29, 0.00989800
3014.04, 0.00981800
3015.8, 0.00973900
3017.55, 0.00967900
3019.31, 0.00959900
3021.07, 0.00949900
3022.83, 0.00943900
3024.59, 0.00937900
3026.36, 0.00930000
3028.13, 0.00920000
3029.9, 0.00916000
3031.67, 0.00912000
3033.44, 0.00902000
3035.22, 0.00894000
3037.0, 0.00884100
3038.78, 0.00878100
3040.56, 0.00870100
3042.34, 0.00866100
3044.13, 0.00864100
3045.92, 0.00858100
3047.71, 0.00852100
3049.5, 0.00842100
3051.3, 0.00834200
3053.09, 0.00824200
3054.89, 0.00820200
3056.69, 0.00814200
3058.5, 0.00806200
3060.3, 0.00800200
3062.11, 0.00792300
3063.92, 0.00786300
3065.73, 0.00780300
3067.55, 0.00772300
3069.36, 0.00764300
3071.18, 0.00754300
3073.0, 0.00744400
3074.82, 0.00736400
3076.65, 0.00734400
3078.48, 0.00728400
3080.31, 0.00720400
3082.14, 0.00712400
3083.97, 0.00706400
3085.8, 0.00704500
3087.64, 0.00698500
3089.48, 0.00690500
3091.33, 0.00688500
3093.17, 0.00690500
3095.02, 0.00686500
3096.87, 0.00680500
3098.72, 0.00674500
3100.57, 0.00670500
3102.43, 0.00668500
3104.28, 0.00664500
3106.14, 0.00664500
3108.01, 0.00662500
3109.87, 0.00660500
3111.74, 0.00656600
3113.61, 0.00650600
3115.48, 0.00646600
3117.35, 0.00642600
3119.23, 0.00640600
3121.1, 0.00638600
3122.98, 0.00636600
3124.87, 0.00632600
3126.75, 0.00628600
3128.64, 0.00626600
3130.53, 0.00620600
3132.42, 0.00616600
3134.31, 0.00612700
3136.21, 0.00616600
3138.11, 0.00614600
3140.01, 0.00608700
3141.91, 0.00604700
3143.82, 0.00602700
3145.73, 0.00596700
3147.64, 0.00594700
3149.55, 0.00590700
3151.46, 0.00588700
3153.38, 0.00582700
3155.3, 0.00578700
3157.22, 0.00580700
3159.14, 0.00578700
3161.07, 0.00574700
3163.0, 0.00570700
3164.93, 0.00570700
3166.86, 0.00566800
3168.8, 0.00564800
3170.74, 0.00558800
3172.68, 0.00554800
3174.62, 0.00550800
3176.56, 0.00548800
3178.51, 0.00550800
3180.46, 0.00548800
3182.42, 0.00546800
3184.37, 0.00540800
3186.33, 0.00534800
3188.29, 0.00534800
3190.25, 0.00534800
3192.21, 0.00528800
3194.18, 0.00524800
3196.15, 0.00520900
3198.12, 0.00520900
3200.09, 0.00520900
3202.07, 0.00518900
3204.05, 0.00516900
3206.03, 0.00514900
3208.02, 0.00514900
3210.0, 0.00516900
3211.99, 0.00514900
3213.98, 0.00508900
3215.98, 0.00506900
3217.97, 0.00502900
3219.97, 0.00500900
3221.97, 0.00498900
3223.98, 0.00498900
3225.98, 0.00496900
3227.99, 0.00494900
3230.0, 0.00492900
3232.02, 0.00490900
3234.03, 0.00486900
3236.05, 0.00486900
3238.07, 0.00488900
3240.1, 0.00492900
3242.12, 0.00492900
3244.15, 0.00484900
3246.18, 0.00480900
3248.22, 0.00480900
3250.25, 0.00482900
3252.29, 0.00482900
3254.33, 0.00480900
3256.38, 0.00480900
3258.43, 0.00482900
3260.47, 0.00486900
3262.53, 0.00484900
3264.58, 0.00478900
3266.64, 0.00473000
3268.7, 0.00471000
3270.76, 0.00475000
3272.82, 0.00477000
3274.89, 0.00477000
3276.96, 0.00478900
3279.04, 0.00478900
3281.11, 0.00477000
3283.19, 0.00477000
3285.27, 0.00478900
3287.35, 0.00477000
3289.44, 0.00475000
3291.53, 0.00475000
3293.62, 0.00473000
3295.71, 0.00475000
3297.81, 0.00475000
3299.91, 0.00473000
3302.01, 0.00471000
3304.11, 0.00471000
3306.22, 0.00471000
3308.33, 0.00473000
3310.44, 0.00475000
3312.56, 0.00473000
3314.68, 0.00471000
3316.8, 0.00473000
3318.92, 0.00471000
3321.05, 0.00465000
3323.18, 0.00461000
3325.31, 0.00463000
3327.44, 0.00463000
3329.58, 0.00463000
3331.72, 0.00461000
3333.86, 0.00461000
3336.01, 0.00461000
3338.16, 0.00463000
3340.31, 0.00461000
3342.46, 0.00463000
3344.61, 0.00461000
3346.77, 0.00459000
3348.94, 0.00459000
3351.1, 0.00459000
3353.27, 0.00461000
3355.44, 0.00459000
3357.61, 0.00459000
3359.79, 0.00457000
3361.97, 0.00457000
3364.15, 0.00455000
3366.33, 0.00457000
3368.52, 0.00459000
3370.71, 0.00453000
3372.9, 0.00449000
3375.1, 0.00447000
3377.3, 0.00449000
3379.5, 0.00451000
3381.71, 0.00449000
3383.91, 0.00449000
3386.12, 0.00451000
3388.34, 0.00453000
3390.55, 0.00453000
3392.77, 0.00453000
3394.99, 0.00457000
3397.22, 0.00461000
3399.45, 0.00461000
3401.68, 0.00459000
3403.91, 0.00457000
3406.15, 0.00457000
3408.39, 0.00461000
3410.63, 0.00463000
3412.87, 0.00461000
3415.12, 0.00459000
3417.37, 0.00461000
3419.63, 0.00469000
3421.88, 0.00475000
3424.14, 0.00473000
3426.41, 0.00473000
3428.67, 0.00475000
3430.94, 0.00477000
3433.21, 0.00477000
3435.49, 0.00478900
3437.77, 0.00480900
3440.05, 0.00484900
3442.33, 0.00484900
3444.62, 0.00484900
3446.91, 0.00484900
3449.2, 0.00486900
3451.5, 0.00486900
3453.8, 0.00486900
3456.1, 0.00490900
3458.41, 0.00498900
3460.72, 0.00496900
3463.03, 0.00490900
3465.34, 0.00492900
3467.66, 0.00494900
3469.98, 0.00496900
3472.31, 0.00498900
3474.63, 0.00500900
3476.96, 0.00500900
3479.3, 0.00502900
3481.64, 0.00502900
3483.97, 0.00498900
3486.32, 0.00502900
3488.66, 0.00508900
3491.01, 0.00504900
3493.36, 0.00500900
3495.72, 0.00502900
3498.08, 0.00500900
3500.44, 0.00500900
3502.81, 0.00506900
3505.18, 0.00512900
3507.55, 0.00510900
3509.92, 0.00512900
3512.3, 0.00516900
3514.68, 0.00522800
3517.06, 0.00524800
3519.45, 0.00526800
3521.84, 0.00530800
3524.24, 0.00538800
3526.64, 0.00538800
3529.04, 0.00536800
3531.44, 0.00542800
3533.85, 0.00550800
3536.26, 0.00550800
3538.67, 0.00550800
3541.09, 0.00556800
3543.51, 0.00562800
3545.93, 0.00558800
3548.36, 0.00554800
3550.79, 0.00558800
3553.22, 0.00560800
3555.66, 0.00558800
3558.1, 0.00556800
3560.54, 0.00556800
3562.99, 0.00556800
3565.44, 0.00556800
3567.9, 0.00554800
3570.35, 0.00548800
3572.81, 0.00546800
3575.28, 0.00546800
3577.75, 0.00544800
3580.22, 0.00544800
3582.69, 0.00546800
3585.17, 0.00542800
3587.65, 0.00540800
3590.14, 0.00536800
3592.62, 0.00534800
3595.11, 0.00536800
3597.61, 0.00532800
3600.11, 0.00530800
3602.61, 0.00532800
3605.11, 0.00530800
3607.62, 0.00530800
3610.14, 0.00536800
3612.65, 0.00538800
3615.17, 0.00534800
3617.69, 0.00536800
3620.22, 0.00534800
3622.75, 0.00534800
3625.28, 0.00536800
3627.82, 0.00540800
3630.36, 0.00540800
3632.9, 0.00540800
3635.45, 0.00542800
3638.0, 0.00542800
3640.56, 0.00546800
3643.12, 0.00548800
3645.68, 0.00548800
3648.24, 0.00542800
3650.81, 0.00538800
3653.39, 0.00540800
3655.96, 0.00542800
3658.54, 0.00544800
3661.13, 0.00546800
3663.71, 0.00546800
3666.3, 0.00548800
3668.9, 0.00550800
3671.5, 0.00548800
3674.1, 0.00544800
3676.7, 0.00542800
3679.31, 0.00544800
3681.93, 0.00546800
3684.54, 0.00546800
3687.17, 0.00544800
3689.79, 0.00548800
3692.42, 0.00552800
3695.05, 0.00558800
3697.69, 0.00560800
3700.32, 0.00562800
3702.97, 0.00562800
3705.61, 0.00566800
3708.27, 0.00572700
3710.92, 0.00576700
3713.58, 0.00580700
3716.24, 0.00584700
3718.91, 0.00588700
3721.58, 0.00588700
3724.25, 0.00590700
3726.93, 0.00594700
3729.61, 0.00596700
3732.29, 0.00600700
3734.98, 0.00604700
3737.67, 0.00604700
3740.37, 0.00610700
3743.07, 0.00616600
3745.78, 0.00620600
3748.49, 0.00622600
3751.2, 0.00626600
3753.91, 0.00630600
3756.63, 0.00638600
3759.36, 0.00638600
3762.09, 0.00640600
3764.82, 0.00642600
3767.55, 0.00646600
3770.29, 0.00646600
3773.04, 0.00646600
3775.78, 0.00654600
3778.54, 0.00660500
3781.29, 0.00664500
3784.05, 0.00670500
3786.82, 0.00670500
3789.59, 0.00672500
3792.36, 0.00678500
3795.13, 0.00686500
3797.92, 0.00690500
3800.7, 0.00696500
3803.49, 0.00704500
3806.28, 0.00710400
3809.08, 0.00712400
3811.88, 0.00714400
3814.68, 0.00718400
3817.49, 0.00726400
3820.31, 0.00732400
3823.12, 0.00738400
3825.94, 0.00740400
3828.77, 0.00740400
3831.6, 0.00746400
3834.43, 0.00752300
3837.27, 0.00754300
3840.11, 0.00756300
3842.96, 0.00764300
3845.81, 0.00764300
3848.67, 0.00762300
3851.53, 0.00764300
3854.39, 0.00770300
3857.26, 0.00776300
3860.13, 0.00776300
3863.01, 0.00780300
3865.89, 0.00790300
3868.77, 0.00800200
3871.66, 0.00808200
3874.55, 0.00810200
3877.45, 0.00814200
3880.35, 0.00814200
3883.26, 0.00820200
3886.17, 0.00828200
3889.09, 0.00838200
3892.01, 0.00844100
3894.93, 0.00846100
3897.86, 0.00850100
3900.79, 0.00858100
3903.73, 0.00870100
3906.67, 0.00876100
3909.62, 0.00884100
3912.57, 0.00892000
3915.52, 0.00896000
3918.48, 0.00904000
3921.45, 0.00914000
3924.42, 0.00922000
3927.39, 0.00930000
3930.37, 0.00933900
3933.35, 0.00935900
3936.34, 0.00937900
3939.33, 0.00943900
3942.32, 0.00951900
3945.32, 0.00953900
3948.33, 0.00957900
3951.34, 0.00959900
3954.35, 0.00965900
3957.37, 0.00967900
3960.39, 0.00971900
3963.42, 0.00975900
3966.45, 0.00979800
3969.49, 0.00981800
3972.53, 0.00981800
3975.58, 0.00985800
3978.63, 0.00991800
3981.68, 0.00999800
3984.75, 0.0100380
3987.81, 0.0100580
3990.88, 0.0101180
3993.95, 0.0101780
3997.03, 0.0101780
4000.12, 0.0101980
4003.21, 0.0102180
4006.3, 0.0102570
4009.4, 0.0102770
4012.5, 0.0103370
4015.61, 0.0104570
4018.72, 0.0105570
4021.84, 0.0105970
4024.96, 0.0106370
4028.09, 0.0106960
4031.22, 0.0107760
4034.36, 0.0108560
4037.5, 0.0109360
4040.65, 0.0109360
4043.8, 0.0109760
4046.96, 0.0110160
4050.12, 0.0110760
4053.29, 0.0111950
4056.46, 0.0112950
4059.64, 0.0113350
4062.82, 0.0114150
4066.0, 0.0114350
4069.19, 0.0115350
4072.39, 0.0116540
4075.59, 0.0116940
4078.8, 0.0117340
4082.01, 0.0117740
4085.23, 0.0118740
4088.45, 0.0119940
4091.68, 0.0120530
4094.91, 0.0121330
4098.15, 0.0122530
4101.39, 0.0123330
4104.63, 0.0124730
4107.89, 0.0125720
4111.14, 0.0125320
4114.41, 0.0124930
4117.67, 0.0125320
4120.95, 0.0126720
4124.23, 0.0127320
4127.51, 0.0127720
4130.8, 0.0128520
4134.09, 0.0129520
4137.39, 0.0130310
4140.7, 0.0130110
4144.01, 0.0130310
4147.32, 0.0131110
4150.64, 0.0131910
4153.97, 0.0132710
4157.3, 0.0133310
4160.64, 0.0133710
4163.98, 0.0134100
4167.33, 0.0134500
4170.68, 0.0135300
4174.04, 0.0135500
4177.4, 0.0136100
4180.77, 0.0136900
4184.14, 0.0137300
4187.52, 0.0137900
4190.91, 0.0138690
4194.3, 0.0139090
4197.69, 0.0139690
4201.1, 0.0140690
4204.5, 0.0142090
4207.92, 0.0144480
4211.34, 0.0146680
4214.76, 0.0148270
4218.19, 0.0149670
4221.62, 0.0151670
4225.06, 0.0153660
4228.51, 0.0155060
4231.96, 0.0156460
4235.42, 0.0156660
4238.88, 0.0156260
4242.35, 0.0156660
4245.83, 0.0155660
4249.31, 0.0153660
4252.79, 0.0151470
4256.28, 0.0150470
4259.78, 0.0152660
4263.29, 0.0155060
4266.79, 0.0157050
4270.31, 0.0158850
4273.83, 0.0159850
4277.35, 0.0160450
4280.89, 0.0161440
4284.42, 0.0162640
4287.97, 0.0163040
4291.52, 0.0163040
4295.07, 0.0163440
4298.63, 0.0163240
4302.2, 0.0163240
4305.78, 0.0164640
4309.35, 0.0165040
4312.94, 0.0164840
4316.53, 0.0165240
4320.13, 0.0164640
4323.73, 0.0164840
4327.34, 0.0165840
4330.96, 0.0167230
4334.58, 0.0167630
4338.21, 0.0168030
4341.84, 0.0169430
4345.48, 0.0170820
4349.12, 0.0172220
4352.77, 0.0172220
4356.43, 0.0173420
4360.1, 0.0175210
4363.76, 0.0176210
4367.44, 0.0178010
4371.12, 0.0179210
4374.81, 0.0180000
4378.51, 0.0182200
4382.21, 0.0184190
4385.92, 0.0185190
4389.63, 0.0186190
4393.35, 0.0188190
4397.08, 0.0189580
4400.81, 0.0191380
4404.55, 0.0194370
4408.29, 0.0196370
4412.04, 0.0196570
4415.8, 0.0197760
4419.57, 0.0200160
4423.34, 0.0202350
4427.12, 0.0204150
4430.9, 0.0206550
4434.69, 0.0209140
4438.49, 0.0211140
4442.29, 0.0212330
4446.1, 0.0213930
4449.92, 0.0214730
4453.74, 0.0215730
4457.57, 0.0216920
4461.41, 0.0218120
4465.25, 0.0220120
4469.1, 0.0220510
4472.95, 0.0219920
4476.82, 0.0220510
4480.69, 0.0221910
4484.56, 0.0223510
4488.44, 0.0223910
4492.33, 0.0223710
4496.23, 0.0224110
4500.13, 0.0225100
4504.04, 0.0226300
4507.96, 0.0226900
4511.88, 0.0227500
4515.81, 0.0227100
4519.75, 0.0227100
4523.69, 0.0227300
4527.65, 0.0226900
4531.6, 0.0226700
4535.57, 0.0226700
4539.54, 0.0226900
4543.52, 0.0227500
4547.5, 0.0227500
4551.5, 0.0228300
4555.5, 0.0228500
4559.5, 0.0228700
4563.52, 0.0229100
4567.54, 0.0229500
4571.56, 0.0229690
4575.6, 0.0230090
4579.64, 0.0231090
4583.69, 0.0231090
4587.75, 0.0231090
4591.81, 0.0230890
4595.88, 0.0231290
4599.96, 0.0231890
4604.04, 0.0232690
4608.14, 0.0233690
4612.24, 0.0234480
4616.34, 0.0234480
4620.46, 0.0235280
4624.58, 0.0236880
4628.71, 0.0238280
4632.84, 0.0238480
4636.99, 0.0238670
4641.14, 0.0239670
4645.3, 0.0242070
4649.47, 0.0243660
4653.64, 0.0245060
4657.82, 0.0246860
4662.01, 0.0248250
4666.21, 0.0249650
4670.41, 0.0252050
4674.62, 0.0253640
4678.84, 0.0254640
4683.07, 0.0257830
4687.3, 0.0262420
4691.54, 0.0264420
4695.79, 0.0266410
4700.05, 0.0269810
4704.31, 0.0272600
4708.59, 0.0275390
4712.87, 0.0278990
4717.15, 0.0281980
4721.45, 0.0285370
4725.76, 0.0288570
4730.07, 0.0292560
4734.39, 0.0297350
4738.72, 0.0301940
4743.05, 0.0304730
4747.39, 0.0309120
4751.75, 0.0315310
4756.1, 0.0320890
4760.47, 0.0326080
4764.85, 0.0328680
4769.23, 0.0333070
4773.62, 0.0336860
4778.02, 0.0341850
4782.43, 0.0347440
4786.85, 0.0352620
4791.27, 0.0357010
4795.7, 0.0363200
4800.14, 0.0369390
4804.59, 0.0374180
4809.05, 0.0377770
4813.51, 0.0380960
4817.99, 0.0382560
4822.47, 0.0385150
4826.96, 0.0391940
4831.46, 0.0397330
4835.96, 0.0400920
4840.48, 0.0403510
4845.0, 0.0405510
4849.54, 0.0407900
4854.08, 0.0409900
4858.63, 0.0410700
4863.18, 0.0405910
4867.75, 0.0405910
4872.33, 0.0410100
4876.91, 0.0411690
4881.5, 0.0412090
4886.1, 0.0411300
4890.71, 0.0409700
4895.33, 0.0408900
4899.96, 0.0410500
4904.59, 0.0409500
4909.24, 0.0408500
4913.89, 0.0408300
4918.55, 0.0408500
4923.22, 0.0408300
4927.9, 0.0406900
4932.59, 0.0406900
4937.29, 0.0406900
4942.0, 0.0407900
4946.71, 0.0406900
4951.44, 0.0404310
4956.17, 0.0403310
4960.91, 0.0403710
4965.67, 0.0401120
4970.43, 0.0396930
4975.2, 0.0397720
4979.98, 0.0397330
4984.76, 0.0394930
4989.56, 0.0393330
4994.37, 0.0392340
4999.18, 0.0393140
5004.01, 0.0393140
5008.84, 0.0390940
5013.69, 0.0389740
5018.54, 0.0387950
5023.4, 0.0386150
5028.28, 0.0384150
5033.16, 0.0384550
5038.05, 0.0384550
5042.95, 0.0381760
5047.86, 0.0379560
5052.78, 0.0375770
5057.71, 0.0372980
5062.65, 0.0370190
5067.6, 0.0366390
5072.56, 0.0364800
5077.53, 0.0361800
5082.5, 0.0356620
5087.49, 0.0351230
5092.49, 0.0349230
5097.5, 0.0346240
5102.51, 0.0338850
5107.54, 0.0333870
5112.58, 0.0331470
5117.62, 0.0329280
5122.68, 0.0323290
5127.75, 0.0318300
5132.82, 0.0314710
5137.91, 0.0312910
5143.01, 0.0311320
5148.12, 0.0308720
5153.23, 0.0307920
5158.36, 0.0306920
5163.5, 0.0308720
5168.65, 0.0313910
5173.81, 0.0318900
5178.98, 0.0326680
5184.15, 0.0334460
5189.34, 0.0342850
5194.54, 0.0354020
5199.75, 0.0363600
5204.98, 0.0371780
5210.21, 0.0380960
5215.45, 0.0391140
5220.7, 0.0398920
5225.96, 0.0403310
5231.23, 0.0405510
5236.52, 0.0408500
5241.81, 0.0410100
5247.12, 0.0412090
5252.44, 0.0414490
5257.76, 0.0414490
5263.1, 0.0411490
5268.45, 0.0410700
5273.81, 0.0411300
5279.18, 0.0408500
5284.56, 0.0403910
5289.95, 0.0400520
5295.36, 0.0397720
5300.77, 0.0395930
5306.2, 0.0391940
5311.63, 0.0388940
5317.08, 0.0386950
5322.54, 0.0382160
5328.01, 0.0379560
5333.49, 0.0374970
5338.98, 0.0371580
5344.49, 0.0371380
5350.0, 0.0369990
5355.53, 0.0363800
5361.07, 0.0356620
5366.62, 0.0350630
5372.18, 0.0345240
5377.75, 0.0340450
5383.34, 0.0335660
5388.93, 0.0330670
5394.54, 0.0326280
5400.16, 0.0322490
5405.79, 0.0319900
5411.44, 0.0317100
5417.09, 0.0315510
5422.76, 0.0313710
5428.43, 0.0307320
5434.12, 0.0303530
5439.83, 0.0301140
5445.54, 0.0297550
5451.26, 0.0295150
5457.0, 0.0295950
5462.75, 0.0296950
5468.52, 0.0294950
5474.29, 0.0293750
5480.08, 0.0293350
5485.88, 0.0290360
5491.69, 0.0288570
5497.51, 0.0287970
5503.35, 0.0286770
5509.2, 0.0283980
5515.06, 0.0283380
5520.93, 0.0284970
5526.82, 0.0284370
5532.71, 0.0282580
5538.63, 0.0280380
5544.55, 0.0279390
5550.49, 0.0281180
5556.44, 0.0279580
5562.4, 0.0274400
5568.37, 0.0273400
5574.36, 0.0274400
5580.36, 0.0274000
5586.37, 0.0271200
5592.4, 0.0268210
5598.44, 0.0267610
5604.49, 0.0265020
5610.56, 0.0262820
5616.63, 0.0263020
5622.73, 0.0259830
5628.83, 0.0258830
5634.95, 0.0260830
5641.08, 0.0262020
5647.23, 0.0257830
5653.39, 0.0253640
5659.56, 0.0250050
5665.74, 0.0248250
5671.94, 0.0248850
5678.15, 0.0248050
5684.38, 0.0245460
5690.62, 0.0245660
5696.87, 0.0242870
5703.14, 0.0242070
5709.42, 0.0242470
5715.72, 0.0237480
5722.03, 0.0233490
5728.35, 0.0231490
5734.69, 0.0227100
5741.03, 0.0221110
5747.4, 0.0215920
5753.78, 0.0206550
5760.17, 0.0200360
5766.58, 0.0195770
5773.0, 0.0189180
5779.44, 0.0191980
5785.88, 0.0204550
5792.35, 0.0222110
5798.83, 0.0239870
5805.32, 0.0253640
5811.83, 0.0266010
5818.35, 0.0283780
5824.89, 0.0298940
5831.45, 0.0310320
5838.01, 0.0327280
5844.59, 0.0353620
5851.19, 0.0383960
5857.8, 0.0418080
5864.43, 0.0456790
5871.07, 0.0497700
5877.73, 0.0549190
5884.4, 0.0572140
5891.09, 0.0555780
5897.79, 0.0507880
5904.5, 0.0433650
5911.23, 0.0373380
5917.98, 0.0337060
5924.75, 0.0349430
5931.53, 0.0424270
5938.32, 0.0519460
5945.13, 0.0581320
5951.96, 0.0632810
5958.8, 0.0674920
5965.65, 0.0716420
5972.53, 0.0738180
5979.42, 0.0743560
5986.32, 0.0750150
5993.24, 0.0745160
6000.18, 0.0730590
6007.13, 0.0726800
6014.1, 0.0725200
6021.08, 0.0722210
6028.09, 0.0729200
6035.1, 0.0752150
6042.14, 0.0807820
6049.19, 0.0881460
6056.25, 0.0919980
6063.34, 0.0991420
6070.44, 0.111315
6077.55, 0.123089
6084.69, 0.133426
6091.84, 0.144382
6099.0, 0.154221
6106.19, 0.163341
6113.39, 0.169866
6120.61, 0.168749
6127.84, 0.166055
6135.09, 0.164318
6142.36, 0.161265
6149.65, 0.156296
6156.95, 0.150529
6164.27, 0.141968
6171.61, 0.132349
6178.97, 0.124746
6186.34, 0.115246
6193.73, 0.102973
6201.14, 0.0929160
6208.57, 0.0842950
6216.01, 0.0768910
6223.47, 0.0707040
6230.95, 0.0654760
6238.45, 0.0608060
6245.97, 0.0569550
6253.5, 0.0537020
6261.06, 0.0508280
6268.63, 0.0485330
6276.21, 0.0465970
6283.82, 0.0447810
6291.45, 0.0430850
6299.1, 0.0415490
6306.76, 0.0401920
6314.44, 0.0391540
6322.14, 0.0382160
6329.86, 0.0372580
6337.6, 0.0367790
6345.35, 0.0362000
6353.13, 0.0349630
6360.92, 0.0341650
6368.74, 0.0336260
6376.57, 0.0326880
6384.43, 0.0319500
6392.3, 0.0314510
6400.19, 0.0311710
6408.1, 0.0316700
6416.03, 0.0315710
6423.98, 0.0300940
6431.95, 0.0291560
6439.94, 0.0287170
6447.95, 0.0281780
6455.98, 0.0276590
6464.03, 0.0273200
6472.1, 0.0272200
6480.19, 0.0272400
6488.31, 0.0275990
6496.44, 0.0273200
6504.59, 0.0260030
6512.76, 0.0255040
6520.95, 0.0254640
6529.16, 0.0248050
6537.4, 0.0244860
6545.65, 0.0247460
6553.92, 0.0250250
6562.22, 0.0251850
6570.54, 0.0256640
6578.88, 0.0255640
6587.23, 0.0256640
6595.61, 0.0260230
6604.02, 0.0264220
6612.44, 0.0270800
6620.89, 0.0278390
6629.35, 0.0294550
6637.84, 0.0309720
6646.35, 0.0315110
6654.88, 0.0324690
6663.44, 0.0343240
6672.01, 0.0368390
6680.61, 0.0397530
6689.23, 0.0425860
6697.88, 0.0459390
6706.54, 0.0505490
6715.23, 0.0554980
6723.94, 0.0605670
6732.67, 0.0661150
6741.42, 0.0725400
6750.2, 0.0797050
6759.0, 0.0874080
6767.82, 0.0960290
6776.67, 0.105009
6785.54, 0.114368
6794.44, 0.122211
6803.35, 0.127180
6812.29, 0.132528
6821.26, 0.137897
6830.24, 0.139792
6839.25, 0.137737
6848.29, 0.135482
6857.35, 0.133606
6866.43, 0.129994
6875.54, 0.127699
6884.67, 0.129635
6893.82, 0.130014
6903.0, 0.129236
6912.2, 0.130074
6921.43, 0.137517
6930.69, 0.153901
6939.96, 0.176751
6949.27, 0.202175
6958.59, 0.226362
6967.95, 0.238954
6977.33, 0.245101
6986.73, 0.249212
6996.16, 0.249092
7005.61, 0.245021
7015.09, 0.239972
7024.6, 0.232928
7034.13, 0.225763
7043.69, 0.219098
7053.27, 0.207623
7062.88, 0.197126
7072.52, 0.191539
7082.18, 0.191758
7091.87, 0.198823
7101.58, 0.210597
7111.32, 0.224107
7121.09, 0.235183
7130.88, 0.242327
7140.71, 0.247815
7150.56, 0.249731
7160.43, 0.248214
7170.33, 0.246498
7180.27, 0.245240
7190.23, 0.246677
7200.21, 0.249012
7210.23, 0.249351
7220.27, 0.246997
7230.34, 0.245560
7240.44, 0.244402
7250.56, 0.243305
7260.72, 0.241628
7270.9, 0.240471
7281.12, 0.238116
7291.36, 0.235841
7301.63, 0.235043
7311.93, 0.234923
7322.25, 0.235143
7332.61, 0.235781
7343.0, 0.234724
7353.41, 0.232029
7363.86, 0.228876
7374.33, 0.225663
7384.83, 0.221792
7395.37, 0.217940
7405.93, 0.214947
7416.53, 0.213091
7427.15, 0.211754
7437.81, 0.210597
7448.5, 0.209579
7459.22, 0.208801
7469.96, 0.207184
7480.74, 0.204789
7491.55, 0.202195
7502.39, 0.200080
7513.27, 0.198244
7524.17, 0.196188
7535.11, 0.193913
7546.08, 0.191738
7557.08, 0.189363
7568.11, 0.186889
7579.17, 0.183875
7590.27, 0.180682
7601.4, 0.178707
7612.56, 0.177470
7623.76, 0.175434
7634.98, 0.173139
7646.24, 0.170645
7657.54, 0.168030
7668.87, 0.165336
7680.23, 0.162522
7691.62, 0.159649
7703.05, 0.156855
7714.51, 0.153782
7726.01, 0.150768
7737.54, 0.147954
7749.11, 0.145300
7760.71, 0.142427
7772.35, 0.139194
7784.02, 0.135841
7795.72, 0.132449
7807.46, 0.129136
7819.23, 0.125783
7831.04, 0.122191
7842.89, 0.118639
7854.77, 0.115386
7866.69, 0.112353
7878.65, 0.109459
7890.64, 0.106625
7902.67, 0.103732
7914.74, 0.101177
7926.84, 0.0989420
7938.98, 0.0967870
7951.16, 0.0948510
7963.37, 0.0930350
7975.62, 0.0913390
7987.91, 0.0899220
8000.24, 0.0886650
8012.6, 0.0876270
8025.01, 0.0869690
8037.45, 0.0861700
8049.93, 0.0853920
8062.45, 0.0845340
8075.01, 0.0835960
8087.61, 0.0826980
8100.24, 0.0819400
8112.91, 0.0811410
8125.63, 0.0803630
8138.39, 0.0795250
8151.18, 0.0784670
8164.02, 0.0774900
8176.9, 0.0765720
8189.81, 0.0756930
8202.77, 0.0749150
8215.77, 0.0741170
8228.82, 0.0734180
8241.9, 0.0728600
8255.02, 0.0719820
8268.19, 0.0710640
8281.39, 0.0703850
8294.65, 0.0700060
8307.94, 0.0693270
8321.28, 0.0685890
8334.66, 0.0680100
8348.08, 0.0675510
8361.54, 0.0670720
8375.05, 0.0665140
8388.6, 0.0660550
8402.2, 0.0654560
8415.84, 0.0646580
8429.52, 0.0641390
8443.25, 0.0639390
8457.02, 0.0636000
8470.84, 0.0631610
8484.7, 0.0627220
8498.61, 0.0621630
8512.57, 0.0619040
8526.57, 0.0615250
8540.62, 0.0610860
8554.71, 0.0609060
8568.85, 0.0606860
8583.04, 0.0602870
8597.27, 0.0599480
8611.55, 0.0596690
8625.88, 0.0592100
8640.26, 0.0589300
8654.68, 0.0587510
8669.16, 0.0583920
8683.68, 0.0581720
8698.25, 0.0577930
8712.87, 0.0575930
8727.53, 0.0577130
8742.25, 0.0578730
8757.02, 0.0580120
8771.83, 0.0581120
8786.7, 0.0585310
8801.62, 0.0589500
8816.59, 0.0592700
8831.61, 0.0596490
8846.68, 0.0601080
8861.8, 0.0606670
8876.97, 0.0612650
8892.2, 0.0616240
8907.48, 0.0621030
8922.81, 0.0627020
8938.2, 0.0631810
8953.63, 0.0634010
8969.13, 0.0636200
8984.67, 0.0639390
9000.27, 0.0639790
9015.92, 0.0638400
9031.63, 0.0636400
9047.39, 0.0632010
9063.21, 0.0625620
9079.08, 0.0616440
9095.01, 0.0603470
9111.0, 0.0591700
9127.04, 0.0582320
9143.13, 0.0570540
9159.28, 0.0558970
9175.49, 0.0549790
9191.76, 0.0539810
9208.09, 0.0528440
9224.47, 0.0516060
9240.92, 0.0505890
9257.42, 0.0496710
9273.98, 0.0485730
9290.6, 0.0475750
9307.28, 0.0468970
9324.02, 0.0457790
9340.82, 0.0447810
9357.68, 0.0444020
9374.6, 0.0436840
9391.58, 0.0426260
9408.62, 0.0416880
9425.73, 0.0409500
9442.9, 0.0402910
9460.13, 0.0395130
9477.42, 0.0384350
9494.78, 0.0382160
9512.2, 0.0403510
9529.69, 0.0463580
9547.24, 0.0525040
9564.86, 0.0513270
9582.54, 0.0450810
9600.28, 0.0405110
9618.1, 0.0376170
9635.97, 0.0349230
9653.92, 0.0347830
9671.93, 0.0435640
9690.01, 0.0523450
9708.16, 0.0534820
9726.37, 0.0553180
9744.65, 0.0601280
9763.0, 0.0665740
9781.43, 0.0735580
9799.92, 0.0814810
9818.48, 0.0896830
9837.1, 0.0983440
9855.8, 0.106186
9874.58, 0.112572
9893.42, 0.117362
9912.34, 0.120714
9931.33, 0.122530
9950.39, 0.123169
9969.52, 0.122530
9988.74, 0.120455
10008.0, 0.117202
10027.4, 0.113131
10046.8, 0.107883
10066.3, 0.101756
10085.9, 0.0954500
10105.6, 0.0891240
10125.3, 0.0827180
10145.1, 0.0770110
10165.0, 0.0720020
10185.0, 0.0677110
10205.0, 0.0641590
10225.2, 0.0612250
10245.4, 0.0584110
10265.7, 0.0558370
10286.0, 0.0537620
10306.5, 0.0522850
10327.0, 0.0510080
10347.6, 0.0498500
10368.3, 0.0489520
10389.1, 0.0484530
10409.9, 0.0478350
10430.9, 0.0469170
10451.9, 0.0463780
10473.0, 0.0458990
10494.2, 0.0453600
10515.5, 0.0449210
10536.9, 0.0444420
10558.4, 0.0438040
10579.9, 0.0435840
10601.5, 0.0435640
10623.3, 0.0433850
10645.1, 0.0428060
10667.0, 0.0422270
10689.0, 0.0419880
10711.1, 0.0418880
10733.2, 0.0417080
10755.5, 0.0415890
10777.9, 0.0409700
10800.3, 0.0403710
10822.9, 0.0403710
10845.5, 0.0403110
10868.2, 0.0400120
10891.1, 0.0395930
10914.0, 0.0390940
10937.0, 0.0390740
10960.2, 0.0390540
10983.4, 0.0386750
11006.7, 0.0386350
11030.1, 0.0386350
11053.6, 0.0381960
11077.3, 0.0377370
11101.0, 0.0376370
11124.8, 0.0376770
11148.7, 0.0377170
11172.7, 0.0378570
11196.9, 0.0378170
11221.1, 0.0377170
11245.4, 0.0378970
11269.9, 0.0379370
11294.4, 0.0377970
11319.1, 0.0377770
11343.9, 0.0376970
11368.8, 0.0373980
11393.7, 0.0369390
11418.8, 0.0367590
11444.0, 0.0366990
11469.4, 0.0362600
11494.8, 0.0355420
11520.3, 0.0349430
11546.0, 0.0343240
11571.8, 0.0335660
11597.7, 0.0330670
11623.7, 0.0328480
11649.8, 0.0334260
11676.0, 0.0350630
11702.4, 0.0392940
11728.9, 0.0482740
11755.5, 0.0637600
11782.2, 0.0850530
11809.0, 0.106326
11836.0, 0.122251
11863.0, 0.131910
11890.3, 0.136380
11917.6, 0.136280
11945.0, 0.131271
11972.6, 0.121054
12000.4, 0.105288
12028.2, 0.0868290
12056.2, 0.0717820
12084.3, 0.0623630
12112.5, 0.0566150
12140.9, 0.0528440
12169.4, 0.0502690
12198.0, 0.0484330
12226.8, 0.0467770
12255.7, 0.0451010
12284.7, 0.0441830
12313.9, 0.0450410
12343.2, 0.0468770
12372.7, 0.0487930
12402.3, 0.0501300
12432.0, 0.0514470
12461.9, 0.0530030
12491.9, 0.0544400
12522.1, 0.0559570
12552.4, 0.0577330
12582.9, 0.0591500
12613.5, 0.0602470
12644.3, 0.0614850
12675.2, 0.0622030
12706.3, 0.0627220
12737.5, 0.0633810
12768.9, 0.0642390
12800.4, 0.0650770
12832.1, 0.0658550
12863.9, 0.0663940
12895.9, 0.0669130
12928.1, 0.0678910
12960.4, 0.0683900
12992.9, 0.0684090
13025.5, 0.0680900
13058.3, 0.0678310
13091.3, 0.0676710
13124.4, 0.0674920
13157.8, 0.0673520
13191.2, 0.0668930
13224.9, 0.0662340
13258.7, 0.0657750
13292.7, 0.0648170
13326.9, 0.0635200
13361.2, 0.0622430
13395.7, 0.0607060
13430.4, 0.0591100
13465.3, 0.0576130
13500.4, 0.0561560
13535.7, 0.0549990
13571.1, 0.0540810
13606.7, 0.0540410
13642.5, 0.0555580
13678.5, 0.0591100
13714.7, 0.0661340
13751.1, 0.0783480
13787.6, 0.0954900
13824.4, 0.114967
13861.4, 0.131690
13898.5, 0.142985
13935.9, 0.148872
13973.5, 0.151387
14011.2, 0.151267
14049.2, 0.149631
14087.4, 0.146957
14125.8, 0.142985
14164.3, 0.137877
14203.2, 0.131950
14242.2, 0.123608
14281.4, 0.111235
14320.9, 0.0965080
14360.5, 0.0921970
14400.4, 0.0973660
14440.5, 0.0996610
14480.9, 0.0971260
14521.4, 0.0919780
14562.2, 0.0858310
14603.3, 0.0804430
14644.5, 0.0764520
14686.0, 0.0736180
14727.7, 0.0713830
14769.7, 0.0693270
14811.9, 0.0678510
14854.3, 0.0668330
14897.0, 0.0661340
14939.9, 0.0659950
14983.1, 0.0646980
15026.5, 0.0609860
15070.2, 0.0554980
15114.2, 0.0480340
15158.3, 0.0474760
15202.8, 0.0583520
15247.5, 0.0648370
15292.5, 0.0675910
15337.7, 0.0719220
15383.2, 0.0762720
15429.0, 0.0783880
15475.1, 0.0736380
15521.4, 0.0628620
15568.0, 0.0634400
15614.9, 0.0765720
15662.1, 0.0864700
15709.6, 0.0904210
15757.3, 0.0923970
15805.4, 0.0941130
15853.7, 0.0951110
15902.3, 0.0955700
15951.2, 0.0963480
16000.5, 0.0975250
16050.0, 0.0980040
16099.8, 0.0986430
16150.0, 0.0996210
16200.5, 0.100100
16251.3, 0.100619
16302.4, 0.101676
16353.8, 0.102395
16405.5, 0.102714
16457.6, 0.103033
16510.0, 0.102774
16562.8, 0.102395
16615.9, 0.102594
16669.3, 0.102914
16723.1, 0.103153
16777.2, 0.103153
16831.7, 0.103772
16886.5, 0.104410
16941.7, 0.104310
16997.2, 0.104450
17053.1, 0.105328
17109.4, 0.106127
17166.1, 0.106765
17223.1, 0.108162
17280.5, 0.109160
17338.3, 0.109659
17396.5, 0.110637
17455.1, 0.111335
17514.0, 0.112253
17573.4, 0.112812
17633.2, 0.112512
17693.4, 0.112113
17754.0, 0.111934
17815.0, 0.111175
17876.4, 0.110118
17938.3, 0.108701
18000.5, 0.107184
18063.3, 0.106326
18126.4, 0.105049
18190.0, 0.102854
18254.1, 0.100299
18318.6, 0.0978650
18383.5, 0.0956300
18449.0, 0.0939930
18514.9, 0.0927760
18581.2, 0.0917380
18648.0, 0.0905410
18715.4, 0.0892840
18783.2, 0.0871880
18851.5, 0.0856120
18920.3, 0.0850530
18989.6, 0.0832170
19059.4, 0.0808620
19129.7, 0.0797250
19200.6, 0.0784670
19272.0, 0.0768910
19343.9, 0.0758530
19416.3, 0.0757330
19489.3, 0.0759730
19562.8, 0.0761520
19637.0, 0.0767310
19711.6, 0.0766910
19786.8, 0.0761130
19862.6, 0.0755740
19939.0, 0.0751950
20016.0, 0.0743560
20093.6, 0.0732390
20171.8, 0.0719220
20250.6, 0.0704450
20330.0, 0.0691680
20410.0, 0.0682700
20490.7, 0.0668730
20572.0, 0.0656360
20654.0, 0.0649370
20736.6, 0.0635800
20819.9, 0.0616840
20903.8, 0.0610260
20988.5, 0.0601480
21073.8, 0.0582720
21159.8, 0.0563760
21246.5, 0.0549990
21334.0, 0.0534820
21422.1, 0.0522650
21511.0, 0.0500700
21600.7, 0.0478150
21691.0, 0.0460190
21782.1, 0.0439830
21874.0, 0.0419480
21966.7, 0.0405710
22060.2, 0.0390140
22154.5, 0.0378370
22249.6, 0.0365990
22345.5, 0.0353220
22442.2, 0.0342850
22539.8, 0.0334860
22638.2, 0.0326880
22737.5, 0.0315110
22837.7, 0.0298540
22938.7, 0.0282980
23040.7, 0.0271800
23143.5, 0.0265420
23247.3, 0.0252250
23352.1, 0.0239070
23457.7, 0.0226900
23564.4, 0.0216520
23672.0, 0.0199560
23780.5, 0.0183200
23890.1, 0.0170430
24000.7, 0.0167030
24112.3, 0.0159450
24225.0, 0.0149070
24338.7, 0.0134900
24453.5, 0.0122530
24569.4, 0.0116140
24686.4, 0.0109160
24804.5, 0.00999800
24923.8, 0.00920000
25044.2, 0.00920000
25165.8, 0.00920000
25288.6, 0.00920000
25412.5, 0.00920000
25537.7, 0.00920000
25664.1, 0.00920000
25791.8, 0.00920000
25920.8, 0.00920000
26051.1, 0.00920000
26182.6, 0.00920000
26315.5, 0.00920000
26449.8, 0.00920000
26585.4, 0.00920000
26722.5, 0.00920000
26860.9, 0.00920000
27000.8, 0.00920000
27142.1, 0.00920000
27285.0, 0.00920000
27429.4, 0.00920000
27575.3, 0.00920000
27722.7, 0.00920000
27871.8, 0.00920000
28022.4, 0.00920000
28174.7, 0.00920000
28328.7, 0.00920000
28484.4, 0.00920000
28641.7, 0.00920000
28800.9, 0.00920000
28961.8, 0.00920000
29124.5, 0.00920000
29289.0, 0.00920000
29455.4, 0.00920000
29623.8, 0.00920000
29794.0, 0.00920000
29966.3, 0.00920000
30140.5, 0.00920000
30316.7, 0.00920000
30495.1, 0.00920000
30675.5, 0.00920000
30858.1, 0.00920000
31042.8, 0.00920000
31229.8, 0.00920000
31419.1, 0.00920000
31610.7, 0.00920000
31804.6, 0.00920000
32000.9, 0.00920000
32199.7, 0.00920000
32400.9, 0.00920000
32604.8, 0.00920000
32811.1, 0.00920000
33020.1, 0.00920000
33231.8, 0.00920000
33446.2, 0.00920000
33663.4, 0.00920000
33883.4, 0.00920000
34106.3, 0.00920000
34332.1, 0.00920000
34561.0, 0.00920000
34792.9, 0.00920000
35028.0, 0.00920000
35266.3, 0.00920000
35507.8, 0.00920000
35752.7, 0.00920000
36001.0, 0.00920000
36252.8, 0.00920000
36508.1, 0.00920000
36767.0, 0.00920000
37029.7, 0.00920000
37296.1, 0.00920000
37566.3, 0.00920000
37840.5, 0.00920000
38118.8, 0.00920000
38401.2, 0.00920000
38687.8, 0.00920000
38978.6, 0.00920000
39273.9, 0.00920000
39573.7, 0.00920000
39878.1, 0.00920000
40187.3, 0.00920000
40501.2, 0.00920000
40820.0, 0.00920000
41144.0, 0.00920000
41473.2, 0.00920000
41807.6, 0.00920000
42147.5, 0.00920000
42493.0, 0.00920000
42844.2, 0.00920000
43201.2, 0.00920000
43564.3, 0.00920000
43933.5, 0.00920000
44309.0, 0.00920000
44691.0, 0.00920000
45079.6, 0.00920000
45475.0, 0.00920000
45877.5, 0.00920000
46287.1, 0.00920000
46704.2, 0.00920000
47128.7, 0.00920000
47561.1, 0.00920000
48001.5, 0.00920000
48450.1, 0.00920000
48907.2, 0.00920000
49373.0, 0.00920000
49847.7, 0.00920000
50331.5, 0.00920000
50825.0, 0.00920000
51328.2, 0.00920000
51841.5, 0.00920000
52365.1, 0.00920000
52899.4, 0.00920000
53444.8, 0.00920000
54001.5, 0.00920000
54570.1, 0.00920000
55150.6, 0.00920000
55743.6, 0.00920000
56349.5, 0.00920000
56968.7, 0.00920000
57601.7, 0.00920000
58248.9, 0.00920000
58910.9, 0.00920000
59588.1, 0.00920000
60281.0, 0.00920000
60990.2, 0.00920000
61716.3, 0.00920000
62459.8, 0.00920000
63221.6, 0.00920000
64002.1, 0.00920000
64802.1, 0.00920000
65622.1, 0.00920000
66463.4, 0.00920000
67326.6, 0.00920000
68212.4, 0.00920000
69121.9, 0.00920000
70056.0, 0.00920000
71015.7, 0.00920000
72002.0, 0.00920000
73016.3, 0.00920000
74059.4, 0.00920000
75132.7, 0.00920000
76237.6, 0.00920000
77375.5, 0.00920000
78547.9, 0.00920000
79756.3, 0.00920000
81002.5, 0.00920000
82288.5, 0.00920000
83615.7, 0.00920000
84986.5, 0.00920000
86402.9, 0.00920000
87867.4, 0.00920000
89382.4, 0.00920000
90950.5, 0.00920000
92574.6, 0.00920000
94257.2, 0.00920000
96002.7, 0.00920000
97814.1, 0.00920000
99695.1, 0.00920000
101650.0, 0.00920000
103683.0, 0.00920000
105799.0, 0.00920000
108003.0, 0.00920000
110301.0, 0.00920000
112699.0, 0.00920000
115204.0, 0.00920000
117822.0, 0.00920000
120562.0, 0.00920000
123433.0, 0.00920000
126443.0, 0.00920000
129604.0, 0.00920000
132926.0, 0.00920000
136424.0, 0.00920000
140111.0, 0.00920000
144003.0, 0.00920000
148118.0, 0.00920000
152474.0, 0.00920000
157095.0, 0.00920000
162004.0, 0.00920000
167231.0, 0.00920000
172805.0, 0.00920000
178764.0, 0.00920000
185148.0, 0.00920000
192005.0, 0.00920000
199390.0, 0.00920000
207366.0, 0.00920000
216006.0, 0.00920000
