Database of Origin, USGS Spectral Database
Sample Description, See USGS database for additional info
Date Added,2016-08-03 21:24:08.834263

Data ID,USGS_cli07          
Sample ID, clinochlore_gds159.5386
Mineral Name, clinochlore
Material Class,Phyllosilicate

Wavelength
213.1, 0.0844890
221.1, 0.0959040
229.1, 0.110242
236.1, 0.121406
242.1, 0.127398
248.1, 0.131929
253.6, 0.132969
258.6, 0.133428
263.6, 0.134625
268.6, 0.137765
273.1, 0.143415
277.1, 0.149101
281.1, 0.155490
285.1, 0.162377
289.1, 0.168066
293.1, 0.174585
297.1, 0.179987
301.1, 0.182484
305.1, 0.186535
309.1, 0.191345
313.1, 0.196969
317.1, 0.203911
321.1, 0.212235
325.1, 0.219240
329.1, 0.228428
333.1, 0.238964
337.1, 0.249532
341.1, 0.260619
345.1, 0.272345
349.1, 0.283757
353.1, 0.296542
357.1, 0.308584
360.6, 0.320427
363.6, 0.329738
366.6, 0.339619
369.6, 0.349737
372.6, 0.360092
375.6, 0.370525
378.6, 0.382218
381.1, 0.392939
383.1, 0.399565
385.1, 0.407473
387.1, 0.415443
389.1, 0.422944
391.1, 0.431832
393.1, 0.439991
395.1, 0.447806
397.1, 0.455748
399.1, 0.463736
401.1, 0.472632
403.1, 0.480114
405.1, 0.488291
407.1, 0.495884
409.1, 0.503209
411.1, 0.512308
412.8, 0.519137
415.8, 0.530990
418.8, 0.543137
421.8, 0.554698
424.8, 0.566268
427.8, 0.578311
430.8, 0.589735
433.8, 0.600837
436.8, 0.612283
439.8, 0.622683
442.8, 0.632968
445.8, 0.641641
448.8, 0.651027
451.3, 0.658017
453.3, 0.663009
455.3, 0.666438
457.3, 0.671942
459.3, 0.675162
461.3, 0.680653
463.3, 0.683802
465.3, 0.686423
467.3, 0.690150
469.3, 0.693157
471.3, 0.695605
473.3, 0.698285
475.3, 0.700941
477.3, 0.703434
479.3, 0.705265
481.3, 0.709169
483.3, 0.711837
485.3, 0.714149
487.3, 0.717079
489.3, 0.719316
491.3, 0.721564
493.3, 0.724656
495.3, 0.725137
497.3, 0.727239
499.3, 0.729293
501.3, 0.731398
503.3, 0.731607
505.3, 0.732633
507.3, 0.734963
509.3, 0.734788
511.3, 0.736435
513.3, 0.737859
515.3, 0.739183
517.3, 0.739972
519.3, 0.741992
521.3, 0.742432
523.3, 0.743954
525.3, 0.744897
527.3, 0.744749
529.3, 0.744954
531.3, 0.746719
533.3, 0.747511
535.3, 0.747167
537.3, 0.747641
539.3, 0.748430
541.3, 0.748833
543.3, 0.747801
545.3, 0.747832
547.3, 0.747667
549.3, 0.747913
551.3, 0.748551
553.3, 0.748309
555.3, 0.749177
557.3, 0.749364
559.3, 0.749690
561.3, 0.747752
563.3, 0.748281
565.3, 0.748827
567.3, 0.748882
569.3, 0.748347
571.3, 0.748653
573.3, 0.748966
575.3, 0.750001
577.3, 0.748359
579.3, 0.749211
581.3, 0.749025
583.3, 0.749774
585.3, 0.749367
587.3, 0.749046
589.3, 0.749254
591.3, 0.749586
593.3, 0.749041
595.3, 0.750306
597.3, 0.749138
599.3, 0.749868
601.1, 0.750631
602.7, 0.750001
604.3, 0.751465
605.9, 0.751244
607.5, 0.751212
609.1, 0.750482
610.7, 0.751958
612.3, 0.751533
613.9, 0.751495
615.5, 0.752036
617.1, 0.752004
618.7, 0.752246
620.3, 0.751889
621.9, 0.752584
623.5, 0.752940
625.1, 0.753181
626.7, 0.753643
628.3, 0.753218
629.9, 0.753809
631.7, 0.754023
633.7, 0.755340
635.7, 0.754073
637.7, 0.754364
639.7, 0.755097
641.7, 0.754972
643.7, 0.755950
645.7, 0.755145
647.7, 0.755495
649.7, 0.755773
651.7, 0.756705
653.7, 0.757228
655.7, 0.756642
657.7, 0.757252
659.7, 0.757743
661.7, 0.757404
663.7, 0.757289
665.7, 0.757537
667.7, 0.756848
670.2, 0.757430
673.2, 0.758407
676.2, 0.757966
679.2, 0.757779
682.2, 0.757689
685.2, 0.758058
688.2, 0.757394
691.2, 0.758167
694.2, 0.758071
697.2, 0.757335
700.2, 0.758834
702.0, 0.758910
704.0, 0.758838
706.0, 0.757807
708.0, 0.758696
710.0, 0.758951
712.0, 0.759897
714.0, 0.759053
716.0, 0.759386
718.0, 0.758854
720.0, 0.758163
722.0, 0.758363
724.0, 0.758893
726.0, 0.758377
728.0, 0.757409
730.0, 0.758150
732.0, 0.757736
734.0, 0.758238
736.0, 0.758194
738.0, 0.757180
740.0, 0.757699
742.0, 0.757732
744.0, 0.757719
746.0, 0.756944
748.0, 0.756388
750.5, 0.756698
753.5, 0.757308
756.5, 0.756561
759.5, 0.756408
762.5, 0.756655
765.5, 0.755158
768.5, 0.755683
771.5, 0.755269
774.5, 0.754687
777.5, 0.754127
781.0, 0.754466
785.0, 0.754202
789.0, 0.752771
793.0, 0.751803
797.0, 0.752198
801.5, 0.751228
806.5, 0.750763
811.5, 0.748100
816.5, 0.748046
822.0, 0.745057
828.0, 0.745267
835.0, 0.744092
843.0, 0.742996
851.0, 0.743200
859.0, 0.743271
871.0, 0.743323
883.0, 0.745284
894.0, 0.746044
904.0, 0.749466
914.0, 0.748388
924.0, 0.752279
933.0, 0.754629
941.0, 0.755263
949.0, 0.746848
957.0, 0.752431
964.0, 0.756010
970.0, 0.757805
976.0, 0.757874
982.0, 0.757692
988.0, 0.758282
994.0, 0.759279
1000.0, 0.761683
1006.0, 0.760401
1012.0, 0.760536
1018.0, 0.757320
1023.5, 0.759732
1028.5, 0.759809
1033.5, 0.759453
1038.5, 0.759959
1043.5, 0.759934
1048.5, 0.758978
1053.5, 0.758627
1058.5, 0.758618
1063.5, 0.758230
1068.5, 0.759222
1073.5, 0.759305
1078.5, 0.758560
1083.5, 0.759070
1088.5, 0.760696
1093.5, 0.761314
1098.5, 0.760902
1103.5, 0.761995
1108.5, 0.762914
1113.5, 0.762830
1118.5, 0.763893
1123.5, 0.765956
1128.5, 0.765812
1133.5, 0.767021
1138.5, 0.768171
1143.5, 0.769756
1148.5, 0.768995
1153.5, 0.770176
1158.5, 0.771209
1163.5, 0.774204
1168.5, 0.776253
1173.5, 0.776481
1178.5, 0.777981
1183.5, 0.780887
1188.5, 0.782332
1193.5, 0.784106
1198.5, 0.785283
1203.5, 0.786384
1208.5, 0.789474
1213.5, 0.791454
1218.5, 0.793464
1223.5, 0.794973
1228.5, 0.798453
1233.5, 0.798743
1238.5, 0.799876
1243.5, 0.801546
1248.5, 0.804249
1253.5, 0.803187
1258.5, 0.802534
1263.5, 0.802728
1268.5, 0.799725
1273.5, 0.796180
1278.5, 0.795200
1283.5, 0.796610
1288.5, 0.796295
1293.5, 0.795071
1298.5, 0.792467
1303.5, 0.790129
1308.5, 0.792225
1313.5, 0.794675
1318.5, 0.798608
1323.5, 0.801299
1328.5, 0.802995
1333.5, 0.804220
1338.5, 0.805076
1343.5, 0.805789
1348.5, 0.807831
1353.5, 0.808085
1358.5, 0.805372
1363.5, 0.800514
1368.5, 0.793682
1373.5, 0.782348
1378.5, 0.768892
1383.5, 0.709583
1388.5, 0.565585
1393.5, 0.544078
1398.5, 0.625588
1403.5, 0.649102
1408.5, 0.647491
1413.5, 0.655033
1418.5, 0.660289
1423.5, 0.659429
1428.5, 0.660425
1433.5, 0.659535
1438.5, 0.661937
1443.5, 0.666455
1448.5, 0.673493
1453.5, 0.682039
1458.5, 0.688023
1463.5, 0.696200
1468.5, 0.703305
1473.5, 0.710922
1478.5, 0.714358
1483.5, 0.719457
1488.5, 0.720704
1493.5, 0.719321
1498.5, 0.720784
1503.5, 0.718969
1508.5, 0.718429
1513.5, 0.717174
1518.5, 0.716217
1523.5, 0.714765
1528.5, 0.715826
1534.0, 0.716310
1540.0, 0.717997
1546.0, 0.720259
1552.0, 0.722622
1558.0, 0.728387
1564.0, 0.730702
1570.5, 0.735695
1577.5, 0.741445
1584.5, 0.747462
1591.5, 0.755059
1598.5, 0.761347
1605.5, 0.767265
1612.5, 0.772819
1619.5, 0.778516
1626.5, 0.784757
1633.5, 0.789146
1640.5, 0.794734
1647.5, 0.799412
1654.5, 0.803886
1661.5, 0.807050
1668.5, 0.810839
1676.0, 0.812459
1684.0, 0.815186
1692.0, 0.818596
1700.0, 0.819956
1708.0, 0.821141
1716.0, 0.817561
1724.0, 0.817486
1732.0, 0.814113
1740.0, 0.814155
1748.0, 0.810854
1756.0, 0.807941
1764.0, 0.806588
1772.0, 0.801014
1780.0, 0.798825
1788.0, 0.796304
1796.0, 0.791207
1805.0, 0.779474
1815.0, 0.769409
1825.0, 0.760137
1835.0, 0.750360
1845.0, 0.731924
1855.0, 0.716692
1865.0, 0.701624
1875.0, 0.682111
1885.0, 0.664257
1895.0, 0.641353
1905.0, 0.619035
1915.0, 0.614923
1925.0, 0.624429
1935.0, 0.627191
1945.0, 0.621446
1955.0, 0.615963
1965.0, 0.611466
1975.0, 0.606422
1985.0, 0.603312
1995.0, 0.605431
2005.0, 0.613296
2015.0, 0.624611
2025.0, 0.641742
2035.0, 0.657902
2045.0, 0.673490
2055.0, 0.684973
2065.0, 0.694361
2075.0, 0.697635
2085.0, 0.698665
2095.0, 0.689327
2105.0, 0.681392
2115.0, 0.680252
2125.0, 0.677091
2135.0, 0.680397
2145.0, 0.680645
2155.0, 0.677581
2165.0, 0.668757
2175.0, 0.659774
2185.0, 0.642990
2195.0, 0.626445
2205.0, 0.606519
2215.0, 0.584901
2225.0, 0.549524
2235.0, 0.498792
2245.0, 0.455729
2255.0, 0.458150
2265.0, 0.467889
2275.0, 0.465808
2285.0, 0.440986
2295.0, 0.409324
2305.0, 0.396366
2315.0, 0.378529
2325.0, 0.369473
2335.0, 0.378594
2345.0, 0.398096
2355.0, 0.413065
2365.0, 0.429753
2375.0, 0.443536
2386.0, 0.439633
2400.0, 0.447782
2418.0, 0.452407
2440.0, 0.432978
2466.0, 0.408612
2496.0, 0.403517
2528.0, 0.398339
2560.0, 0.394659
2592.0, 0.398153
2624.0, 0.411424
2656.0, 0.399210
2688.0, 0.285202
2720.0, 0.0914740
2752.0, 0.0322180
2784.0, 0.0251610
2816.0, 0.0214800
2848.0, 0.0304520
2880.0, 0.0257920
2912.0, 0.0355110
2944.0, 0.0262200
2976.0, 0.0377870
