Database of Origin, USGS Spectral Database
Sample Description, See USGS database for additional info
Date Added,2016-08-10 05:09:16.770419

Data ID,USGS_mir02          
Sample ID, mirabilite_gds150.13978
Mineral Name, mirabilite
Material Class,Sulfate

Wavelength
1607.49, 0.194427
1607.99, 0.194563
1608.49, 0.194699
1608.99, 0.194767
1609.49, 0.194903
1609.99, 0.194926
1610.49, 0.194881
1610.99, 0.194949
1611.49, 0.195039
1611.99, 0.195175
1612.49, 0.195221
1612.99, 0.195153
1613.49, 0.195221
1614.0, 0.195448
1614.5, 0.195561
1615.0, 0.195697
1615.51, 0.195765
1616.01, 0.195743
1616.51, 0.195833
1617.02, 0.195879
1617.52, 0.195992
1618.03, 0.196128
1618.53, 0.196083
1619.04, 0.196015
1619.54, 0.196174
1620.05, 0.196310
1620.55, 0.196378
1621.06, 0.196491
1621.57, 0.196491
1622.08, 0.196559
1622.58, 0.196786
1623.09, 0.196877
1623.6, 0.196900
1624.11, 0.196854
1624.62, 0.197013
1625.13, 0.197195
1625.64, 0.197195
1626.15, 0.197195
1626.66, 0.197240
1627.17, 0.197240
1627.68, 0.197490
1628.19, 0.197580
1628.7, 0.197512
1629.21, 0.197603
1629.72, 0.197694
1630.24, 0.197762
1630.75, 0.197875
1631.26, 0.197966
1631.78, 0.197989
1632.29, 0.197989
1632.8, 0.198034
1633.32, 0.198193
1633.83, 0.198261
1634.35, 0.198306
1634.86, 0.198488
1635.38, 0.198556
1635.9, 0.198692
1636.41, 0.198556
1636.93, 0.198533
1637.45, 0.198647
1637.96, 0.198692
1638.48, 0.198737
1639.0, 0.198919
1639.52, 0.199123
1640.04, 0.199146
1640.56, 0.199078
1641.08, 0.199010
1641.59, 0.199100
1642.11, 0.199327
1642.63, 0.199327
1643.16, 0.199282
1643.68, 0.199373
1644.2, 0.199577
1644.72, 0.199554
1645.24, 0.199645
1645.76, 0.199735
1646.29, 0.199804
1646.81, 0.199804
1647.33, 0.199872
1647.86, 0.199985
1648.38, 0.199985
1648.9, 0.200076
1649.43, 0.200348
1649.95, 0.200461
1650.48, 0.200325
1651.0, 0.200257
1651.53, 0.200303
1652.06, 0.200325
1652.58, 0.200325
1653.11, 0.200371
1653.64, 0.200484
1654.17, 0.200598
1654.69, 0.200688
1655.22, 0.200643
1655.75, 0.200734
1656.28, 0.200824
1656.81, 0.200983
1657.34, 0.200983
1657.87, 0.200961
1658.4, 0.200961
1658.93, 0.201029
1659.46, 0.201051
1659.99, 0.201256
1660.52, 0.201392
1661.05, 0.201482
1661.59, 0.201437
1662.12, 0.201414
1662.65, 0.201596
1663.19, 0.201800
1663.72, 0.201755
1664.26, 0.201664
1664.79, 0.201755
1665.32, 0.201823
1665.86, 0.201913
1666.39, 0.201845
1666.93, 0.201868
1667.47, 0.202118
1668.0, 0.202254
1668.54, 0.202231
1669.08, 0.202322
1669.61, 0.202503
1670.15, 0.202571
1670.69, 0.202549
1671.23, 0.202549
1671.77, 0.202639
1672.31, 0.202685
1672.85, 0.202776
1673.39, 0.202776
1673.93, 0.202866
1674.47, 0.202980
1675.01, 0.203093
1675.55, 0.203048
1676.09, 0.203048
1676.64, 0.203116
1677.18, 0.203184
1677.72, 0.203343
1678.26, 0.203388
1678.81, 0.203365
1679.35, 0.203365
1679.89, 0.203479
1680.44, 0.203615
1680.98, 0.203570
1681.53, 0.203479
1682.07, 0.203547
1682.62, 0.203728
1683.17, 0.203796
1683.71, 0.203751
1684.26, 0.203796
1684.81, 0.204001
1685.36, 0.204091
1685.9, 0.204273
1686.45, 0.204364
1687.0, 0.204296
1687.55, 0.204318
1688.1, 0.204341
1688.65, 0.204364
1689.2, 0.204364
1689.75, 0.204341
1690.3, 0.204454
1690.85, 0.204590
1691.41, 0.204681
1691.96, 0.204749
1692.51, 0.204727
1693.06, 0.204749
1693.61, 0.204863
1694.17, 0.204863
1694.72, 0.204817
1695.28, 0.204953
1695.83, 0.205044
1696.39, 0.205090
1696.94, 0.205135
1697.5, 0.205203
1698.05, 0.205294
1698.61, 0.205407
1699.17, 0.205385
1699.72, 0.205339
1700.28, 0.205430
1700.84, 0.205543
1701.4, 0.205611
1701.95, 0.205679
1702.51, 0.205589
1703.07, 0.205589
1703.63, 0.205748
1704.19, 0.205793
1704.75, 0.205816
1705.31, 0.205770
1705.88, 0.205748
1706.44, 0.205838
1707.0, 0.206065
1707.56, 0.206111
1708.12, 0.206065
1708.69, 0.206111
1709.25, 0.206201
1709.81, 0.206224
1710.38, 0.206179
1710.94, 0.206179
1711.51, 0.206156
1712.07, 0.206156
1712.64, 0.206269
1713.2, 0.206405
1713.77, 0.206451
1714.34, 0.206405
1714.9, 0.206405
1715.47, 0.206405
1716.04, 0.206360
1716.61, 0.206383
1717.18, 0.206519
1717.74, 0.206700
1718.31, 0.206610
1718.88, 0.206632
1719.45, 0.206632
1720.02, 0.206723
1720.59, 0.206814
1721.17, 0.206814
1721.74, 0.206905
1722.31, 0.206973
1722.88, 0.206973
1723.45, 0.206995
1724.03, 0.207063
1724.6, 0.207041
1725.18, 0.207018
1725.75, 0.207154
1726.33, 0.207222
1726.9, 0.207199
1727.48, 0.207177
1728.05, 0.207109
1728.63, 0.207109
1729.2, 0.207313
1729.78, 0.207313
1730.36, 0.207313
1730.94, 0.207381
1731.51, 0.207404
1732.09, 0.207494
1732.67, 0.207608
1733.25, 0.207653
1733.83, 0.207631
1734.41, 0.207653
1734.99, 0.207699
1735.57, 0.207767
1736.15, 0.207767
1736.73, 0.207789
1737.32, 0.207812
1737.9, 0.207812
1738.48, 0.207812
1739.07, 0.207925
1739.65, 0.207880
1740.23, 0.207880
1740.82, 0.207994
1741.4, 0.208016
1741.99, 0.208062
1742.57, 0.208107
1743.16, 0.208130
1743.74, 0.208220
1744.33, 0.208288
1744.92, 0.208198
1745.51, 0.208243
1746.09, 0.208288
1746.68, 0.208334
1747.27, 0.208425
1747.86, 0.208538
1748.45, 0.208493
1749.04, 0.208515
1749.63, 0.208493
1750.22, 0.208651
1750.81, 0.208742
1751.4, 0.208765
1751.99, 0.208833
1752.59, 0.208810
1753.18, 0.208788
1753.77, 0.208697
1754.37, 0.208810
1754.96, 0.208878
1755.56, 0.208924
1756.15, 0.208946
1756.74, 0.208969
1757.34, 0.209014
1757.94, 0.209105
1758.53, 0.209173
1759.13, 0.209105
1759.73, 0.209196
1760.32, 0.209377
1760.92, 0.209377
1761.52, 0.209332
1762.12, 0.209219
1762.72, 0.209219
1763.32, 0.209309
1763.92, 0.209514
1764.52, 0.209582
1765.12, 0.209514
1765.72, 0.209536
1766.32, 0.209559
1766.92, 0.209559
1767.53, 0.209718
1768.13, 0.209808
1768.73, 0.209740
1769.34, 0.209740
1769.94, 0.209808
1770.55, 0.209877
1771.15, 0.209945
1771.76, 0.209990
1772.36, 0.210081
1772.97, 0.210081
1773.57, 0.209945
1774.18, 0.209945
1774.79, 0.210035
1775.4, 0.210035
1776.0, 0.210013
1776.61, 0.210149
1777.22, 0.210330
1777.83, 0.210262
1778.44, 0.210149
1779.05, 0.210171
1779.66, 0.210285
1780.27, 0.210330
1780.88, 0.210353
1781.5, 0.210421
1782.11, 0.210534
1782.72, 0.210534
1783.33, 0.210421
1783.95, 0.210421
1784.56, 0.210421
1785.18, 0.210512
1785.79, 0.210557
1786.41, 0.210489
1787.02, 0.210534
1787.64, 0.210603
1788.26, 0.210671
1788.87, 0.210716
1789.49, 0.210716
1790.11, 0.210761
1790.73, 0.210784
1791.35, 0.210761
1791.96, 0.210829
1792.58, 0.210875
1793.21, 0.210875
1793.83, 0.210875
1794.45, 0.210875
1795.07, 0.210852
1795.69, 0.210920
1796.31, 0.210943
1796.93, 0.210966
1797.56, 0.211034
1798.18, 0.211170
1798.8, 0.211192
1799.43, 0.211124
1800.05, 0.211079
1800.68, 0.211034
1801.3, 0.211124
1801.93, 0.211192
1802.56, 0.211102
1803.18, 0.211170
1803.81, 0.211238
1804.44, 0.211238
1805.07, 0.211192
1805.7, 0.211102
1806.33, 0.211170
1806.95, 0.211260
1807.58, 0.211283
1808.22, 0.211351
1808.85, 0.211465
1809.48, 0.211555
1810.11, 0.211397
1810.74, 0.211329
1811.38, 0.211419
1812.01, 0.211487
1812.64, 0.211397
1813.28, 0.211533
1813.91, 0.211669
1814.55, 0.211487
1815.18, 0.211102
1815.82, 0.211170
1816.45, 0.211419
1817.09, 0.211691
1817.73, 0.211737
1818.36, 0.211646
1819.0, 0.211669
1819.64, 0.211215
1820.28, 0.210739
1820.92, 0.211011
1821.56, 0.211170
1822.2, 0.211465
1822.84, 0.211896
1823.48, 0.212100
1824.12, 0.212213
1824.76, 0.212168
1825.41, 0.211397
1826.05, 0.210444
1826.69, 0.211238
1827.34, 0.212168
1827.98, 0.211941
1828.63, 0.211669
1829.27, 0.211805
1829.92, 0.211760
1830.56, 0.211238
1831.21, 0.211238
1831.86, 0.211828
1832.5, 0.212032
1833.15, 0.212327
1833.8, 0.212417
1834.45, 0.211828
1835.1, 0.211397
1835.75, 0.210943
1836.4, 0.210988
1837.05, 0.211238
1837.7, 0.211056
1838.35, 0.212077
1839.01, 0.212032
1839.66, 0.211056
1840.31, 0.211646
1840.96, 0.211782
1841.62, 0.210557
1842.27, 0.211124
1842.93, 0.212463
1843.58, 0.212826
1844.24, 0.212939
1844.9, 0.213053
1845.55, 0.212894
1846.21, 0.211828
1846.87, 0.210398
1847.53, 0.210534
1848.18, 0.211124
1848.84, 0.212236
1849.5, 0.212780
1850.16, 0.212780
1850.82, 0.212917
1851.48, 0.213302
1852.14, 0.213007
1852.81, 0.212168
1853.47, 0.211260
1854.13, 0.211714
1854.8, 0.213007
1855.46, 0.213212
1856.12, 0.212259
1856.79, 0.212009
1857.45, 0.212917
1858.12, 0.213370
1858.79, 0.212758
1859.45, 0.211351
1860.12, 0.211669
1860.79, 0.212667
1861.46, 0.213416
1862.12, 0.213552
1862.79, 0.213416
1863.46, 0.213030
1864.13, 0.212871
1864.8, 0.213212
1865.48, 0.213574
1866.15, 0.213574
1866.82, 0.212735
1867.49, 0.211306
1868.16, 0.211623
1868.84, 0.212440
1869.51, 0.212508
1870.19, 0.211465
1870.86, 0.210512
1871.54, 0.211918
1872.21, 0.212009
1872.89, 0.210580
1873.56, 0.211170
1874.24, 0.212486
1874.92, 0.212531
1875.6, 0.212576
1876.28, 0.212236
1876.96, 0.211828
1877.64, 0.212622
1878.32, 0.213189
1879.0, 0.213302
1879.68, 0.213212
1880.36, 0.213007
1881.04, 0.212962
1881.73, 0.213166
1882.41, 0.213257
1883.09, 0.212894
1883.78, 0.212213
1884.46, 0.212576
1885.15, 0.213053
1885.83, 0.213053
1886.52, 0.212849
1887.21, 0.212917
1887.89, 0.213075
1888.58, 0.213098
1889.27, 0.212622
1889.96, 0.211896
1890.65, 0.212349
1891.34, 0.212712
1892.03, 0.212576
1892.72, 0.212735
1893.41, 0.212712
1894.1, 0.212894
1894.79, 0.213030
1895.49, 0.213121
1896.18, 0.213143
1896.87, 0.212871
1897.57, 0.212508
1898.26, 0.212372
1898.96, 0.211555
1899.65, 0.210988
1900.35, 0.211737
1901.05, 0.212644
1901.74, 0.212735
1902.44, 0.211737
1903.14, 0.211646
1903.84, 0.212508
1904.54, 0.211896
1905.24, 0.211011
1905.94, 0.211306
1906.64, 0.211533
1907.34, 0.212281
1908.04, 0.212758
1908.75, 0.212780
1909.45, 0.212803
1910.15, 0.212622
1910.86, 0.212304
1911.56, 0.212145
1912.27, 0.212349
1912.97, 0.211646
1913.68, 0.211374
1914.39, 0.212281
1915.09, 0.212644
1915.8, 0.212463
1916.51, 0.212531
1917.22, 0.212871
1917.93, 0.212962
1918.64, 0.212690
1919.35, 0.211850
1920.06, 0.210875
1920.77, 0.211056
1921.48, 0.212395
1922.19, 0.212894
1922.91, 0.212826
1923.62, 0.212417
1924.33, 0.212486
1925.05, 0.212826
1925.76, 0.212871
1926.48, 0.212735
1927.19, 0.212712
1927.91, 0.212486
1928.63, 0.212463
1929.35, 0.212849
1930.07, 0.212917
1930.78, 0.212985
1931.5, 0.213030
1932.22, 0.213053
1932.94, 0.212939
1933.66, 0.212849
1934.39, 0.212985
1935.11, 0.213189
1935.83, 0.212985
1936.55, 0.212894
1937.28, 0.213121
1938.0, 0.213189
1938.73, 0.213075
1939.45, 0.213075
1940.18, 0.213302
1940.9, 0.213234
1941.63, 0.213302
1942.36, 0.213506
1943.09, 0.213484
1943.81, 0.213393
1944.54, 0.213302
1945.27, 0.213370
1946.0, 0.213461
1946.73, 0.213484
1947.47, 0.213506
1948.2, 0.213529
1948.93, 0.213620
1949.66, 0.213665
1950.4, 0.213665
1951.13, 0.213688
1951.86, 0.213779
1952.6, 0.213756
1953.34, 0.213733
1954.07, 0.213733
1954.81, 0.213733
1955.55, 0.213824
1956.29, 0.213847
1957.02, 0.213937
1957.76, 0.213937
1958.5, 0.213824
1959.24, 0.213824
1959.98, 0.213801
1960.72, 0.213869
1961.47, 0.213937
1962.21, 0.213915
1962.95, 0.213915
1963.7, 0.214006
1964.44, 0.214074
1965.18, 0.214028
1965.93, 0.214006
1966.67, 0.214006
1967.42, 0.214074
1968.17, 0.214074
1968.92, 0.214028
1969.66, 0.214051
1970.41, 0.214074
1971.16, 0.214096
1971.91, 0.214119
1972.66, 0.214164
1973.41, 0.214187
1974.16, 0.214119
1974.92, 0.214164
1975.67, 0.214232
1976.42, 0.214255
1977.18, 0.214255
1977.93, 0.214300
1978.69, 0.214232
1979.44, 0.214187
1980.2, 0.214346
1980.95, 0.214414
1981.71, 0.214369
1982.47, 0.214437
1983.23, 0.214414
1983.99, 0.214391
1984.74, 0.214414
1985.51, 0.214482
1986.27, 0.214414
1987.03, 0.214414
1987.79, 0.214505
1988.55, 0.214573
1989.32, 0.214573
1990.08, 0.214527
1990.84, 0.214595
1991.61, 0.214595
1992.37, 0.214595
1993.14, 0.214595
1993.9, 0.214595
1994.67, 0.214618
1995.44, 0.214618
1996.21, 0.214641
1996.98, 0.214754
1997.75, 0.214800
1998.52, 0.214686
1999.29, 0.214641
2000.06, 0.214732
2000.83, 0.214732
2001.6, 0.214800
2002.38, 0.214868
2003.15, 0.214845
2003.93, 0.214845
2004.7, 0.214868
2005.48, 0.214890
2006.25, 0.214958
2007.03, 0.214958
2007.81, 0.214936
2008.58, 0.214958
2009.36, 0.214981
2010.14, 0.215004
2010.92, 0.215072
2011.7, 0.215095
2012.48, 0.215072
2013.26, 0.215072
2014.05, 0.215117
2014.83, 0.215140
2015.61, 0.215117
2016.4, 0.215095
2017.18, 0.215095
2017.97, 0.215208
2018.75, 0.215185
2019.54, 0.215185
2020.32, 0.215163
2021.11, 0.215231
2021.9, 0.215276
2022.69, 0.215231
2023.48, 0.215321
2024.27, 0.215367
2025.06, 0.215344
2025.85, 0.215367
2026.64, 0.215367
2027.44, 0.215367
2028.23, 0.215480
2029.02, 0.215480
2029.82, 0.215458
2030.61, 0.215503
2031.41, 0.215571
2032.2, 0.215571
2033.0, 0.215480
2033.8, 0.215526
2034.6, 0.215526
2035.4, 0.215548
2036.2, 0.215639
2037.0, 0.215616
2037.8, 0.215662
2038.6, 0.215707
2039.4, 0.215594
2040.2, 0.215571
2041.01, 0.215662
2041.81, 0.215639
2042.61, 0.215730
2043.42, 0.215775
2044.22, 0.215775
2045.03, 0.215775
2045.84, 0.215843
2046.65, 0.215775
2047.46, 0.215843
2048.26, 0.215889
2049.07, 0.215866
2049.88, 0.215911
2050.69, 0.215979
2051.51, 0.215979
2052.32, 0.215934
2053.13, 0.215889
2053.94, 0.215889
2054.76, 0.215957
2055.57, 0.215979
2056.39, 0.215979
2057.2, 0.216002
2058.02, 0.215934
2058.84, 0.215934
2059.66, 0.216002
2060.48, 0.216047
2061.29, 0.216047
2062.11, 0.216070
2062.94, 0.216070
2063.76, 0.216002
2064.58, 0.216025
2065.4, 0.216093
2066.22, 0.216047
2067.05, 0.216025
2067.87, 0.216025
2068.7, 0.216025
2069.52, 0.216093
2070.35, 0.216070
2071.18, 0.216070
2072.0, 0.216138
2072.83, 0.216093
2073.66, 0.216070
2074.49, 0.216115
2075.32, 0.216115
2076.15, 0.216183
2076.98, 0.216161
2077.82, 0.216093
2078.65, 0.216093
2079.48, 0.216093
2080.32, 0.216161
2081.15, 0.216206
2081.99, 0.216183
2082.83, 0.216161
2083.66, 0.216161
2084.5, 0.216070
2085.34, 0.216047
2086.18, 0.216115
2087.02, 0.216183
2087.86, 0.216229
2088.7, 0.216161
2089.54, 0.216070
2090.39, 0.216093
2091.23, 0.216115
2092.07, 0.216183
2092.92, 0.216206
2093.76, 0.216115
2094.61, 0.216138
2095.45, 0.216183
2096.3, 0.216229
2097.15, 0.216183
2098.0, 0.216161
2098.85, 0.216206
2099.7, 0.216274
2100.55, 0.216297
2101.4, 0.216252
2102.25, 0.216206
2103.1, 0.216252
2103.96, 0.216297
2104.81, 0.216297
2105.67, 0.216274
2106.52, 0.216297
2107.38, 0.216252
2108.24, 0.216297
2109.09, 0.216297
2109.95, 0.216274
2110.81, 0.216252
2111.67, 0.216274
2112.53, 0.216297
2113.39, 0.216320
2114.25, 0.216342
2115.12, 0.216365
2115.98, 0.216320
2116.84, 0.216297
2117.71, 0.216229
2118.58, 0.216297
2119.44, 0.216297
2120.31, 0.216320
2121.18, 0.216320
2122.04, 0.216365
2122.91, 0.216388
2123.78, 0.216388
2124.65, 0.216388
2125.52, 0.216388
2126.4, 0.216478
2127.27, 0.216501
2128.14, 0.216433
2129.02, 0.216478
2129.89, 0.216433
2130.77, 0.216433
2131.64, 0.216433
2132.52, 0.216433
2133.4, 0.216433
2134.27, 0.216388
2135.15, 0.216388
2136.03, 0.216456
2136.91, 0.216478
2137.79, 0.216501
2138.68, 0.216456
2139.56, 0.216478
2140.44, 0.216478
2141.33, 0.216433
2142.21, 0.216478
2143.1, 0.216456
2143.99, 0.216410
2144.87, 0.216478
2145.76, 0.216524
2146.65, 0.216501
2147.54, 0.216456
2148.43, 0.216456
2149.32, 0.216433
2150.21, 0.216501
2151.1, 0.216546
2151.99, 0.216501
2152.89, 0.216501
2153.78, 0.216524
2154.68, 0.216524
2155.57, 0.216569
2156.47, 0.216569
2157.37, 0.216569
2158.27, 0.216592
2159.16, 0.216615
2160.06, 0.216569
2160.96, 0.216546
2161.86, 0.216524
2162.77, 0.216546
2163.67, 0.216592
2164.57, 0.216615
2165.48, 0.216615
2166.38, 0.216592
2167.29, 0.216615
2168.2, 0.216660
2169.1, 0.216592
2170.01, 0.216524
2170.92, 0.216592
2171.83, 0.216615
2172.74, 0.216524
2173.65, 0.216478
2174.56, 0.216501
2175.47, 0.216456
2176.39, 0.216501
2177.3, 0.216569
2178.22, 0.216592
2179.13, 0.216615
2180.05, 0.216592
2180.96, 0.216637
2181.88, 0.216548
2182.8, 0.216481
2183.72, 0.216525
2184.64, 0.216481
2185.56, 0.216503
2186.48, 0.216548
2187.41, 0.216525
2188.33, 0.216503
2189.25, 0.216548
2190.18, 0.216525
2191.1, 0.216481
2192.03, 0.216369
2192.96, 0.216302
2193.89, 0.216369
2194.82, 0.216257
2195.74, 0.216101
2196.68, 0.216146
2197.61, 0.216146
2198.54, 0.216168
2199.47, 0.216235
2200.4, 0.216302
2201.34, 0.216213
2202.28, 0.216168
2203.21, 0.216079
2204.15, 0.215945
2205.08, 0.215855
2206.02, 0.215833
2206.96, 0.215833
2207.9, 0.215945
2208.84, 0.216034
2209.78, 0.216101
2210.73, 0.216101
2211.67, 0.216056
2212.61, 0.215989
2213.56, 0.215900
2214.5, 0.215855
2215.45, 0.215833
2216.4, 0.215922
2217.35, 0.215833
2218.3, 0.215744
2219.24, 0.215722
2220.2, 0.215833
2221.15, 0.215811
2222.1, 0.215833
2223.05, 0.215788
2224.0, 0.215699
2224.96, 0.215833
2225.91, 0.215855
2226.87, 0.215744
2227.83, 0.215788
2228.79, 0.215788
2229.74, 0.215744
2230.7, 0.215855
2231.66, 0.215878
2232.63, 0.215833
2233.59, 0.215744
2234.55, 0.215654
2235.51, 0.215744
2236.48, 0.215788
2237.44, 0.215722
2238.41, 0.215788
2239.38, 0.215855
2240.34, 0.215766
2241.31, 0.215945
2242.28, 0.216190
2243.25, 0.216101
2244.22, 0.215989
2245.19, 0.216034
2246.17, 0.216056
2247.14, 0.216012
2248.12, 0.216123
2249.09, 0.216168
2250.07, 0.216123
2251.04, 0.216146
2252.02, 0.216280
2253.0, 0.216324
2253.98, 0.216347
2254.96, 0.216324
2255.94, 0.216347
2256.92, 0.216481
2257.91, 0.216503
2258.89, 0.216302
2259.88, 0.216257
2260.86, 0.216280
2261.85, 0.216369
2262.83, 0.216481
2263.82, 0.216503
2264.81, 0.216570
2265.8, 0.216704
2266.79, 0.216704
2267.78, 0.216615
2268.78, 0.216749
2269.77, 0.216682
2270.76, 0.216637
2271.76, 0.216816
2272.75, 0.216860
2273.75, 0.216749
2274.75, 0.216682
2275.75, 0.216592
2276.75, 0.216615
2277.75, 0.216637
2278.75, 0.216503
2279.75, 0.216436
2280.75, 0.216280
2281.76, 0.216347
2282.76, 0.216503
2283.77, 0.216592
2284.77, 0.216503
2285.78, 0.216347
2286.79, 0.216391
2287.8, 0.216302
2288.81, 0.216257
2289.82, 0.216213
2290.83, 0.216369
2291.84, 0.216369
2292.86, 0.216324
2293.87, 0.216280
2294.89, 0.216213
2295.91, 0.216146
2296.92, 0.216123
2297.94, 0.216168
2298.96, 0.216257
2299.98, 0.216146
2301.0, 0.216123
2302.02, 0.216123
2303.04, 0.216056
2304.07, 0.215967
2305.09, 0.216101
2306.12, 0.216056
2307.15, 0.215945
2308.17, 0.215989
2309.2, 0.216101
2310.23, 0.216034
2311.26, 0.216034
2312.29, 0.215989
2313.32, 0.215811
2314.35, 0.215788
2315.39, 0.215811
2316.42, 0.215788
2317.46, 0.215744
2318.5, 0.215744
2319.53, 0.215677
2320.57, 0.215543
2321.61, 0.215632
2322.65, 0.215654
2323.69, 0.215610
2324.73, 0.215476
2325.78, 0.215409
2326.82, 0.215342
2327.86, 0.215275
2328.91, 0.215253
2329.96, 0.215230
2331.01, 0.215186
2332.05, 0.215253
2333.1, 0.215275
2334.15, 0.215029
2335.21, 0.214940
2336.26, 0.215052
2337.31, 0.215029
2338.36, 0.214940
2339.42, 0.214962
2340.48, 0.214985
2341.53, 0.214918
2342.59, 0.214940
2343.65, 0.214828
2344.71, 0.214784
2345.77, 0.214784
2346.83, 0.214784
2347.9, 0.214717
2348.96, 0.214672
2350.02, 0.214627
2351.09, 0.214605
2352.16, 0.214560
2353.23, 0.214538
2354.29, 0.214382
2355.36, 0.214471
2356.43, 0.214627
2357.51, 0.214538
2358.58, 0.214382
2359.65, 0.214315
2360.73, 0.214248
2361.8, 0.214159
2362.88, 0.214114
2363.96, 0.214203
2365.03, 0.214136
2366.11, 0.214226
2367.19, 0.214248
2368.27, 0.214226
2369.36, 0.214337
2370.44, 0.214226
2371.53, 0.214159
2372.61, 0.214203
2373.7, 0.214226
2374.78, 0.214270
2375.87, 0.214248
2376.96, 0.214203
2378.05, 0.214181
2379.14, 0.214114
2380.24, 0.214092
2381.33, 0.214203
2382.42, 0.214270
2383.52, 0.214181
2384.61, 0.214203
2385.71, 0.214270
2386.81, 0.214159
2387.91, 0.214159
2389.01, 0.214226
2390.11, 0.214293
2391.22, 0.214293
2392.32, 0.214203
2393.42, 0.214226
2394.53, 0.214315
2395.64, 0.214270
2396.74, 0.214404
2397.85, 0.214360
2398.96, 0.214248
2400.07, 0.214181
2401.18, 0.214203
2402.3, 0.214337
2403.41, 0.214404
2404.52, 0.214427
2405.64, 0.214449
2406.76, 0.214471
2407.88, 0.214449
2408.99, 0.214382
2410.11, 0.214360
2411.23, 0.214315
2412.36, 0.214270
2413.48, 0.214337
2414.6, 0.214427
2415.73, 0.214315
2416.85, 0.214382
2417.98, 0.214427
2419.11, 0.214404
2420.24, 0.214360
2421.37, 0.214337
2422.5, 0.214203
2423.64, 0.214159
2424.77, 0.214114
2425.9, 0.214181
2427.04, 0.214226
2428.18, 0.214248
2429.31, 0.214159
2430.45, 0.214047
2431.59, 0.214069
2432.73, 0.214092
2433.88, 0.213980
2435.02, 0.213824
2436.16, 0.213824
2437.31, 0.213935
2438.45, 0.213891
2439.6, 0.213824
2440.75, 0.213846
2441.9, 0.213846
2443.05, 0.213734
2444.2, 0.213779
2445.35, 0.213600
2446.51, 0.213556
2447.67, 0.213623
2448.82, 0.213578
2449.98, 0.213399
2451.14, 0.213243
2452.3, 0.213288
2453.46, 0.213310
2454.62, 0.213377
2455.78, 0.213377
2456.94, 0.213243
2458.11, 0.213199
2459.28, 0.213132
2460.44, 0.213042
2461.61, 0.212908
2462.78, 0.212864
2463.95, 0.212953
2465.12, 0.212975
2466.3, 0.212975
2467.47, 0.212841
2468.65, 0.212886
2469.82, 0.212953
2471.0, 0.212797
2472.18, 0.212596
2473.36, 0.212663
2474.54, 0.212730
2475.72, 0.212685
2476.9, 0.212596
2478.08, 0.212618
2479.27, 0.212573
2480.46, 0.212484
2481.64, 0.212506
2482.83, 0.212305
2484.02, 0.212105
2485.21, 0.212149
2486.4, 0.212149
2487.6, 0.212149
2488.79, 0.212194
2489.99, 0.212283
2491.18, 0.212172
2492.38, 0.212105
2493.58, 0.211971
2494.78, 0.211948
2495.98, 0.212060
2497.18, 0.212127
2498.39, 0.212082
2499.59, 0.212038
2500.8, 0.211971
2502.01, 0.211859
2503.21, 0.211792
2504.42, 0.211792
2505.63, 0.211658
2506.84, 0.211770
2508.06, 0.211881
2509.27, 0.211926
2510.49, 0.211792
2511.7, 0.211747
2512.92, 0.211814
2514.14, 0.211680
2515.36, 0.211435
2516.58, 0.211435
2517.8, 0.211569
2519.03, 0.211703
2520.25, 0.211814
2521.48, 0.211859
2522.7, 0.211524
2523.93, 0.211278
2525.16, 0.211457
2526.39, 0.211591
2527.62, 0.211658
2528.86, 0.211725
2530.09, 0.211278
2531.33, 0.210519
2532.56, 0.210363
2533.8, 0.211033
2535.04, 0.210497
2536.28, 0.210006
2537.52, 0.211189
2538.76, 0.211837
2540.01, 0.211859
2541.25, 0.210988
2542.5, 0.209269
2543.75, 0.209537
2544.99, 0.210854
2546.24, 0.210944
2547.49, 0.209827
2548.75, 0.210408
2550.0, 0.210296
2551.26, 0.208889
2552.51, 0.208041
2553.77, 0.210095
2555.03, 0.212060
2556.29, 0.212395
2557.55, 0.212417
2558.81, 0.210966
2560.08, 0.206255
2561.34, 0.202147
2562.61, 0.202035
2563.88, 0.203085
2565.14, 0.207081
2566.41, 0.211122
2567.68, 0.210318
2568.96, 0.206121
2570.23, 0.206679
2571.51, 0.209023
2572.78, 0.204067
2574.06, 0.204960
2575.34, 0.207304
2576.62, 0.205206
2577.9, 0.207952
2579.18, 0.210207
2580.47, 0.207126
2581.75, 0.206143
2583.04, 0.201432
2584.32, 0.200919
2585.61, 0.205518
2586.9, 0.203576
2588.2, 0.204469
2589.49, 0.207260
2590.78, 0.209626
2592.08, 0.207528
2593.37, 0.194801
2594.67, 0.182923
2595.97, 0.193238
2597.27, 0.205942
2598.57, 0.210743
2599.88, 0.209872
2601.18, 0.206902
2602.49, 0.204759
2603.79, 0.201142
2605.1, 0.196476
2606.41, 0.199133
2607.72, 0.203620
2609.03, 0.204804
2610.35, 0.206701
2611.66, 0.208376
2612.98, 0.207416
2614.3, 0.207684
2615.62, 0.201365
2616.94, 0.197034
2618.26, 0.202214
2619.58, 0.199579
2620.91, 0.200450
2622.23, 0.208465
2623.56, 0.210586
2624.89, 0.207483
2626.22, 0.200919
2627.55, 0.203531
2628.88, 0.202392
2630.21, 0.196052
2631.55, 0.201566
2632.89, 0.205295
2634.22, 0.205719
2635.56, 0.209090
2636.9, 0.210140
2638.25, 0.210363
2639.59, 0.209805
2640.93, 0.208889
2642.28, 0.208264
2643.63, 0.208622
2644.98, 0.205965
2646.33, 0.206277
2647.68, 0.208867
2649.03, 0.209783
2650.39, 0.208220
2651.74, 0.204089
2653.1, 0.203799
2654.46, 0.205295
2655.82, 0.205429
2657.18, 0.207706
2658.54, 0.204938
2659.9, 0.203196
2661.27, 0.204134
2662.64, 0.204379
2664.01, 0.196364
2665.38, 0.188594
2666.74, 0.188952
2668.12, 0.195270
2669.49, 0.188460
2670.87, 0.187277
2672.24, 0.200137
2673.62, 0.203509
2675.0, 0.198753
2676.38, 0.192926
2677.76, 0.194087
2679.15, 0.196476
2680.54, 0.202750
2681.92, 0.204558
2683.31, 0.202482
2684.7, 0.202482
2686.09, 0.202459
2687.48, 0.203464
2688.88, 0.204714
2690.27, 0.205407
2691.67, 0.202839
2693.07, 0.195538
2694.47, 0.193663
2695.87, 0.197949
2697.27, 0.202504
2698.67, 0.203710
2700.08, 0.200919
2701.49, 0.199378
2702.9, 0.201968
2704.31, 0.202861
2705.72, 0.202727
2707.13, 0.200830
2708.54, 0.195650
2709.96, 0.189956
2711.38, 0.191184
2712.8, 0.199401
2714.22, 0.202169
2715.64, 0.201879
2717.06, 0.199602
2718.49, 0.194935
2719.91, 0.185134
2721.34, 0.187634
2722.77, 0.191832
2724.2, 0.187545
2725.63, 0.191609
2727.07, 0.198106
2728.5, 0.200026
2729.94, 0.199758
2731.38, 0.199334
2732.82, 0.197101
2734.26, 0.192033
2735.7, 0.192680
2737.15, 0.193171
2738.59, 0.184799
2740.04, 0.179887
2741.49, 0.184017
2742.94, 0.191162
2744.39, 0.194064
2745.84, 0.193998
2747.3, 0.193573
2748.76, 0.193015
2750.21, 0.191876
2751.67, 0.190202
2753.14, 0.187389
2754.6, 0.178279
2756.06, 0.178012
2757.53, 0.186205
2759.0, 0.189019
2760.46, 0.187143
2761.94, 0.182053
2763.41, 0.181048
2764.88, 0.183482
2766.36, 0.182789
2767.83, 0.181249
2769.31, 0.180400
2770.79, 0.178949
2772.27, 0.181316
2773.76, 0.183727
2775.24, 0.183504
2776.73, 0.182030
2778.22, 0.181628
2779.71, 0.180825
2781.2, 0.179530
2782.69, 0.179753
2784.18, 0.179976
2785.68, 0.176426
2787.18, 0.173792
2788.68, 0.176158
2790.18, 0.178592
2791.68, 0.178748
2793.19, 0.178324
2794.69, 0.177855
2796.2, 0.177409
2797.71, 0.177096
2799.22, 0.176739
2800.73, 0.174551
2802.24, 0.170577
2803.76, 0.170063
2805.28, 0.172653
2806.8, 0.173769
2808.32, 0.173702
2809.84, 0.173725
2811.36, 0.173613
2812.89, 0.172832
2814.42, 0.171782
2815.94, 0.171671
2817.48, 0.171224
2819.01, 0.169862
2820.54, 0.169550
2822.08, 0.170242
2823.61, 0.170711
2825.15, 0.170420
2826.69, 0.169706
2828.23, 0.169259
2829.78, 0.169259
2831.32, 0.168679
2832.87, 0.167741
2834.42, 0.167004
2835.97, 0.166737
2837.52, 0.166379
2839.08, 0.166513
2840.63, 0.166647
2842.19, 0.166402
2843.75, 0.166245
2845.31, 0.165933
2846.87, 0.165352
2848.44, 0.164593
2850.0, 0.164392
2851.57, 0.164370
2853.14, 0.163477
2854.71, 0.163030
2856.28, 0.163298
2857.86, 0.163343
2859.43, 0.163008
2861.01, 0.162807
2862.59, 0.162762
2864.17, 0.162494
2865.76, 0.162048
2867.34, 0.161758
2868.93, 0.161646
2870.52, 0.161177
2872.11, 0.160820
2873.7, 0.160909
2875.29, 0.160909
2876.89, 0.160641
2878.49, 0.160418
2880.08, 0.160306
2881.69, 0.160172
2883.29, 0.159949
2884.89, 0.159704
2886.5, 0.159480
2888.11, 0.159190
2889.72, 0.159123
2891.33, 0.159056
2892.94, 0.158900
2894.56, 0.158766
2896.17, 0.158654
2897.79, 0.158498
2899.42, 0.157895
2901.04, 0.157538
2902.66, 0.157806
2904.29, 0.157806
2905.92, 0.157828
2907.55, 0.157850
2909.18, 0.157761
2910.81, 0.157672
2912.45, 0.157560
2914.08, 0.157493
2915.72, 0.157426
2917.36, 0.157359
2919.01, 0.157315
2920.65, 0.157114
2922.3, 0.156890
2923.94, 0.156868
2925.59, 0.157114
2927.25, 0.157136
2928.9, 0.157069
2930.56, 0.157069
2932.21, 0.157091
2933.87, 0.157024
2935.53, 0.157024
2937.2, 0.156980
2938.86, 0.157024
2940.53, 0.157047
2942.2, 0.157002
2943.87, 0.157002
2945.54, 0.157002
2947.22, 0.156957
2948.89, 0.157091
2950.57, 0.157225
2952.25, 0.157270
2953.93, 0.157181
2955.62, 0.157225
2957.3, 0.157337
2958.99, 0.157426
2960.68, 0.157493
2962.37, 0.157538
2964.07, 0.157650
2965.76, 0.157761
2967.46, 0.157783
2969.16, 0.157761
2970.86, 0.157850
2972.56, 0.157940
2974.27, 0.158007
2975.98, 0.158051
2977.69, 0.158118
2979.4, 0.158185
2981.11, 0.158297
2982.83, 0.158386
2984.54, 0.158431
2986.26, 0.158520
2987.98, 0.158565
2989.71, 0.158610
2991.43, 0.158699
2993.16, 0.158788
2994.89, 0.158855
2996.62, 0.158855
2998.35, 0.158944
3000.09, 0.159190
3001.83, 0.159302
3003.57, 0.159302
3005.31, 0.159324
3007.05, 0.159436
3008.79, 0.159614
3010.54, 0.159771
3012.29, 0.159904
3014.04, 0.160105
3015.8, 0.160239
3017.55, 0.160329
3019.31, 0.160530
3021.07, 0.160664
3022.83, 0.160865
3024.59, 0.161155
3026.36, 0.161356
3028.13, 0.161557
3029.9, 0.161758
3031.67, 0.161869
3033.44, 0.162048
3035.22, 0.162226
3037.0, 0.162316
3038.78, 0.162405
3040.56, 0.162561
3042.34, 0.162695
3044.13, 0.162852
3045.92, 0.163030
3047.71, 0.163231
3049.5, 0.163454
3051.3, 0.163655
3053.09, 0.163834
3054.89, 0.164080
3056.69, 0.164325
3058.5, 0.164526
3060.3, 0.164772
3062.11, 0.164973
3063.92, 0.165107
3065.73, 0.165285
3067.55, 0.165509
3069.36, 0.165642
3071.18, 0.165754
3073.0, 0.165888
3074.82, 0.166134
3076.65, 0.166290
3078.48, 0.166424
3080.31, 0.166513
3082.14, 0.166692
3083.97, 0.166937
3085.8, 0.167116
3087.64, 0.167205
3089.48, 0.167295
3091.33, 0.167451
3093.17, 0.167518
3095.02, 0.167607
3096.87, 0.167719
3098.72, 0.167853
3100.57, 0.168009
3102.43, 0.168054
3104.28, 0.168054
3106.14, 0.168054
3108.01, 0.168165
3109.87, 0.168143
3111.74, 0.168210
3113.61, 0.168411
3115.48, 0.168634
3117.35, 0.169058
3119.23, 0.169460
3121.1, 0.169929
3122.98, 0.170443
3124.87, 0.170912
3126.75, 0.171313
3128.64, 0.171872
3130.53, 0.172497
3132.42, 0.173144
3134.31, 0.173836
3136.21, 0.174484
3138.11, 0.174997
3140.01, 0.175444
3141.91, 0.175846
3143.82, 0.176091
3145.73, 0.176270
3147.64, 0.176583
3149.55, 0.176962
3151.46, 0.177252
3153.38, 0.177587
3155.3, 0.177945
3157.22, 0.178257
3159.14, 0.178614
3161.07, 0.179061
3163.0, 0.179463
3164.93, 0.179842
3166.86, 0.180200
3168.8, 0.180490
3170.74, 0.180802
3172.68, 0.181093
3174.62, 0.181316
3176.56, 0.181539
3178.51, 0.181762
3180.46, 0.182008
3182.42, 0.182187
3184.37, 0.182343
3186.33, 0.182566
3188.29, 0.182722
3190.25, 0.182767
3192.21, 0.182946
3194.18, 0.183236
3196.15, 0.183437
3198.12, 0.183593
3200.09, 0.183794
3202.07, 0.183973
3204.05, 0.184241
3206.03, 0.184352
3208.02, 0.184375
3210.0, 0.184464
3211.99, 0.184464
3213.98, 0.184464
3215.98, 0.184419
3217.97, 0.184218
3219.97, 0.183950
3221.97, 0.183504
3223.98, 0.183035
3225.98, 0.182745
3227.99, 0.182544
3230.0, 0.182388
3232.02, 0.182455
3234.03, 0.182544
3236.05, 0.182499
3238.07, 0.182343
3240.1, 0.182097
3242.12, 0.181561
3244.15, 0.180981
3246.18, 0.180802
3248.22, 0.181472
3250.25, 0.182722
3252.29, 0.184196
3254.33, 0.185536
3256.38, 0.186652
3258.43, 0.187478
3260.47, 0.188081
3262.53, 0.188661
3264.58, 0.189264
3266.64, 0.189800
3268.7, 0.190135
3270.76, 0.190358
3272.82, 0.190671
3274.89, 0.191028
3276.96, 0.191274
3279.04, 0.191385
3281.11, 0.191542
3283.19, 0.191765
3285.27, 0.191988
3287.35, 0.192144
3289.44, 0.192301
3291.53, 0.192435
3293.62, 0.192502
3295.71, 0.192546
3297.81, 0.192591
3299.91, 0.192792
3302.01, 0.193015
3304.11, 0.193127
3306.22, 0.193261
3308.33, 0.193439
3310.44, 0.193551
3312.56, 0.193685
3314.68, 0.193752
3316.8, 0.193730
3318.92, 0.193752
3321.05, 0.193908
3323.18, 0.194064
3325.31, 0.194154
3327.44, 0.194198
3329.58, 0.194332
3331.72, 0.194466
3333.86, 0.194600
3336.01, 0.194757
3338.16, 0.194846
3340.31, 0.194935
3342.46, 0.195092
3344.61, 0.195136
3346.77, 0.195203
3348.94, 0.195292
3351.1, 0.195337
3353.27, 0.195359
3355.44, 0.195337
3357.61, 0.195382
3359.79, 0.195404
3361.97, 0.195382
3364.15, 0.195382
3366.33, 0.195426
3368.52, 0.195471
3370.71, 0.195493
3372.9, 0.195538
3375.1, 0.195538
3377.3, 0.195605
3379.5, 0.195672
3381.71, 0.195650
3383.91, 0.195672
3386.12, 0.195739
3388.34, 0.195739
3390.55, 0.195784
3392.77, 0.195828
3394.99, 0.195873
3397.22, 0.195940
3399.45, 0.195962
3401.68, 0.195962
3403.91, 0.195962
3406.15, 0.195962
3408.39, 0.196029
3410.63, 0.196074
3412.87, 0.196119
3415.12, 0.196208
3417.37, 0.196297
3419.63, 0.196409
3421.88, 0.196476
3424.14, 0.196498
3426.41, 0.196587
3428.67, 0.196721
3430.94, 0.196811
3433.21, 0.196878
3435.49, 0.196945
3437.77, 0.197056
3440.05, 0.197146
3442.33, 0.197190
3444.62, 0.197257
3446.91, 0.197280
3449.2, 0.197347
3451.5, 0.197369
3453.8, 0.197369
3456.1, 0.197414
3458.41, 0.197436
3460.72, 0.197436
3463.03, 0.197436
3465.34, 0.197458
3467.66, 0.197436
3469.98, 0.197391
3472.31, 0.197369
3474.63, 0.197369
3476.96, 0.197414
3479.3, 0.197480
3481.64, 0.197503
3483.97, 0.197458
3486.32, 0.197458
3488.66, 0.197458
3491.01, 0.197436
3493.36, 0.197458
3495.72, 0.197458
3498.08, 0.197414
3500.44, 0.197436
3502.81, 0.197503
3505.18, 0.197503
3507.55, 0.197436
3509.92, 0.197458
3512.3, 0.197480
3514.68, 0.197503
3517.06, 0.197525
3519.45, 0.197547
3521.84, 0.197659
3524.24, 0.197681
3526.64, 0.197704
3529.04, 0.197771
3531.44, 0.197860
3533.85, 0.197905
3536.26, 0.197905
3538.67, 0.197927
3541.09, 0.197994
3543.51, 0.198083
3545.93, 0.198150
3548.36, 0.198173
3550.79, 0.198217
3553.22, 0.198240
3555.66, 0.198262
3558.1, 0.198262
3560.54, 0.198240
3562.99, 0.198284
3565.44, 0.198284
3567.9, 0.198262
3570.35, 0.198262
3572.81, 0.198329
3575.28, 0.198284
3577.75, 0.198262
3580.22, 0.198284
3582.69, 0.198262
3585.17, 0.198217
3587.65, 0.198195
3590.14, 0.198195
3592.62, 0.198173
3595.11, 0.198128
3597.61, 0.198083
3600.11, 0.198039
3602.61, 0.198016
3605.11, 0.197972
3607.62, 0.197927
3610.14, 0.197882
3612.65, 0.197838
3615.17, 0.197793
3617.69, 0.197726
3620.22, 0.197637
3622.75, 0.197637
3625.28, 0.197570
3627.82, 0.197525
3630.36, 0.197525
3632.9, 0.197436
3635.45, 0.197302
3638.0, 0.197257
3640.56, 0.197190
3643.12, 0.197101
3645.68, 0.197012
3648.24, 0.196922
3650.81, 0.196900
3653.39, 0.196833
3655.96, 0.196855
3658.54, 0.196833
3661.13, 0.196744
3663.71, 0.196721
3666.3, 0.196699
3668.9, 0.196677
3671.5, 0.196654
3674.1, 0.196654
3676.7, 0.196632
3679.31, 0.196654
3681.93, 0.196677
3684.54, 0.196721
3687.17, 0.196766
3689.79, 0.196878
3692.42, 0.196989
3695.05, 0.197056
3697.69, 0.197123
3700.32, 0.197190
3702.97, 0.197257
3705.61, 0.197347
3708.27, 0.197436
3710.92, 0.197503
3713.58, 0.197547
3716.24, 0.197570
3718.91, 0.197637
3721.58, 0.197681
3724.25, 0.197704
3726.93, 0.197681
3729.61, 0.197704
3732.29, 0.197726
3734.98, 0.197771
3737.67, 0.197748
3740.37, 0.197659
3743.07, 0.197592
3745.78, 0.197637
3748.49, 0.197659
3751.2, 0.197659
3753.91, 0.197614
3756.63, 0.197570
3759.36, 0.197547
3762.09, 0.197503
3764.82, 0.197458
3767.55, 0.197436
3770.29, 0.197414
3773.04, 0.197347
3775.78, 0.197257
3778.54, 0.197168
3781.29, 0.197079
3784.05, 0.196967
3786.82, 0.196811
3789.59, 0.196610
3792.36, 0.196409
3795.13, 0.196163
3797.92, 0.195851
3800.7, 0.195471
3803.49, 0.195203
3806.28, 0.195092
3809.08, 0.195136
3811.88, 0.195248
3814.68, 0.195382
3817.49, 0.195449
3820.31, 0.195382
3823.12, 0.195181
3825.94, 0.194913
3828.77, 0.194578
3831.6, 0.194288
3834.43, 0.193975
3837.27, 0.193774
3840.11, 0.193596
3842.96, 0.193395
3845.81, 0.193194
3848.67, 0.192993
3851.53, 0.192814
3854.39, 0.192725
3857.26, 0.192837
3860.13, 0.193037
3863.01, 0.193261
3865.89, 0.193372
3868.77, 0.193417
3871.66, 0.193372
3874.55, 0.193305
3877.45, 0.193216
3880.35, 0.193127
3883.26, 0.193060
3886.17, 0.192993
3889.09, 0.192881
3892.01, 0.192770
3894.93, 0.192703
3897.86, 0.192613
3900.79, 0.192524
3903.73, 0.192479
3906.67, 0.192412
3909.62, 0.192345
3912.57, 0.192211
3915.52, 0.192100
3918.48, 0.192033
3921.45, 0.191943
3924.42, 0.191832
3927.39, 0.191765
3930.37, 0.191743
3933.35, 0.191809
3936.34, 0.191876
3939.33, 0.191921
3942.32, 0.191988
3945.32, 0.192055
3948.33, 0.192077
3951.34, 0.192077
3954.35, 0.192055
3957.37, 0.192033
3960.39, 0.191966
3963.42, 0.191876
3966.45, 0.191809
3969.49, 0.191765
3972.53, 0.191743
3975.58, 0.191631
3978.63, 0.191564
3981.68, 0.191497
3984.75, 0.191430
3987.81, 0.191296
3990.88, 0.191184
3993.95, 0.191028
3997.03, 0.190872
4000.12, 0.190738
4003.21, 0.190582
4006.3, 0.190425
4009.4, 0.190247
4012.5, 0.190023
4015.61, 0.189867
4018.72, 0.189688
4021.84, 0.189487
4024.96, 0.189309
4028.09, 0.189086
4031.22, 0.188840
4034.36, 0.188617
4037.5, 0.188371
4040.65, 0.188126
4043.8, 0.187880
4046.96, 0.187612
4050.12, 0.187411
4053.29, 0.187143
4056.46, 0.186898
4059.64, 0.186607
4062.82, 0.186384
4066.0, 0.186183
4069.19, 0.185938
4072.39, 0.185692
4075.59, 0.185402
4078.8, 0.185111
4082.01, 0.184821
4085.23, 0.184598
4088.45, 0.184397
4091.68, 0.184151
4094.91, 0.183816
4098.15, 0.183504
4101.39, 0.183191
4104.63, 0.182901
4107.89, 0.182633
4111.14, 0.182321
4114.41, 0.181986
4117.67, 0.181673
4120.95, 0.181316
4124.23, 0.180981
4127.51, 0.180624
4130.8, 0.180244
4134.09, 0.179842
4137.39, 0.179463
4140.7, 0.179083
4144.01, 0.178704
4147.32, 0.178302
4150.64, 0.177878
4153.97, 0.177476
4157.3, 0.177096
4160.64, 0.176650
4163.98, 0.176203
4167.33, 0.175734
4170.68, 0.175265
4174.04, 0.174796
4177.4, 0.174328
4180.77, 0.173859
4184.14, 0.173435
4187.52, 0.172966
4190.91, 0.172519
4194.3, 0.172028
4197.69, 0.171514
4201.1, 0.170956
4204.5, 0.170376
4207.92, 0.169751
4211.34, 0.169014
4214.76, 0.168210
4218.19, 0.167406
4221.62, 0.166513
4225.06, 0.165509
4228.51, 0.164526
4231.96, 0.163477
4235.42, 0.162338
4238.88, 0.160932
4242.35, 0.159257
4245.83, 0.157047
4249.31, 0.154100
4252.79, 0.150259
4256.28, 0.145526
4259.78, 0.140101
4263.29, 0.134586
4266.79, 0.130031
4270.31, 0.127642
4273.83, 0.127866
4277.35, 0.129227
4280.89, 0.129875
4284.42, 0.128982
4287.97, 0.126459
4291.52, 0.122663
4295.07, 0.118109
4298.63, 0.113375
4302.2, 0.108955
4305.78, 0.105159
4309.35, 0.102212
4312.94, 0.0999570
4316.53, 0.0980590
4320.13, 0.0960720
4323.73, 0.0938840
4327.34, 0.0913390
4330.96, 0.0883920
4334.58, 0.0850650
4338.21, 0.0815150
4341.84, 0.0780770
4345.48, 0.0751070
4349.12, 0.0728750
4352.77, 0.0716470
4356.43, 0.0713120
4360.1, 0.0717140
4363.76, 0.0727180
4367.44, 0.0741250
4371.12, 0.0757550
4374.81, 0.0775190
4378.51, 0.0790590
4382.21, 0.0799970
4385.92, 0.0801530
4389.63, 0.0796620
4393.35, 0.0786130
4397.08, 0.0772280
4400.81, 0.0757550
4404.55, 0.0743480
4408.29, 0.0730530
4412.04, 0.0718480
4415.8, 0.0706420
4419.57, 0.0694590
4423.34, 0.0682530
4427.12, 0.0670470
4430.9, 0.0657520
4434.69, 0.0642120
4438.49, 0.0626270
4442.29, 0.0614660
4446.1, 0.0611080
4449.92, 0.0615330
4453.74, 0.0623140
4457.57, 0.0631400
4461.41, 0.0637430
4465.25, 0.0639890
4469.1, 0.0637650
4472.95, 0.0634750
4476.82, 0.0636090
4480.69, 0.0641900
4484.56, 0.0645910
4488.44, 0.0647030
4492.33, 0.0646140
4496.23, 0.0651940
4500.13, 0.0671370
4504.04, 0.0699950
4507.96, 0.0726510
4511.88, 0.0751300
4515.81, 0.0785680
4519.75, 0.0839490
4523.69, 0.0908920
4527.65, 0.0983500
4531.6, 0.105159
4535.57, 0.110585
4539.54, 0.113956
4543.52, 0.114447
4547.5, 0.111210
4551.5, 0.103730
4555.5, 0.0923880
4559.5, 0.0797740
4563.52, 0.0692800
4567.54, 0.0624700
4571.56, 0.0586300
4575.6, 0.0567320
4579.64, 0.0559960
4583.69, 0.0561520
4587.75, 0.0569110
4591.81, 0.0582950
4595.88, 0.0603050
4599.96, 0.0629390
4604.04, 0.0660870
4608.14, 0.0696370
4612.24, 0.0730090
4616.34, 0.0755990
4620.46, 0.0765810
4624.58, 0.0756880
4628.71, 0.0735220
4632.84, 0.0709990
4636.99, 0.0686770
4641.14, 0.0668240
4645.3, 0.0653510
4649.47, 0.0641000
4653.64, 0.0629170
4657.82, 0.0617340
4662.01, 0.0604830
4666.21, 0.0595230
4670.41, 0.0592550
4674.62, 0.0597910
4678.84, 0.0608850
4683.07, 0.0620910
4687.3, 0.0624930
4691.54, 0.0615330
4695.79, 0.0593450
4700.05, 0.0566210
4704.31, 0.0535620
4708.59, 0.0500790
4712.87, 0.0462390
4717.15, 0.0420410
4721.45, 0.0374870
4725.76, 0.0330440
4730.07, 0.0289580
4734.39, 0.0260330
4738.72, 0.0249390
4743.05, 0.0252290
4747.39, 0.0256310
4751.75, 0.0255640
4756.1, 0.0253190
4760.47, 0.0252070
4764.85, 0.0246490
4769.23, 0.0231530
4773.62, 0.0218800
4778.02, 0.0232200
4782.43, 0.0280650
4786.85, 0.0356340
4791.27, 0.0448990
4795.7, 0.0558170
4800.14, 0.0680970
4804.59, 0.0802870
4809.05, 0.0910040
4813.51, 0.100158
4817.99, 0.108151
4822.47, 0.115117
4826.96, 0.120922
4831.46, 0.125477
4835.96, 0.128647
4840.48, 0.131103
4845.0, 0.134296
4849.54, 0.138136
4854.08, 0.141597
4858.63, 0.144454
4863.18, 0.146732
4867.75, 0.148652
4872.33, 0.150460
4876.91, 0.152157
4881.5, 0.153675
4886.1, 0.155015
4890.71, 0.156109
4895.33, 0.157091
4899.96, 0.158074
4904.59, 0.159101
4909.24, 0.159971
4913.89, 0.160731
4918.55, 0.161423
4923.22, 0.162093
4927.9, 0.162651
4932.59, 0.163164
4937.29, 0.163655
4942.0, 0.164080
4946.71, 0.164437
4951.44, 0.164682
4956.17, 0.164772
4960.91, 0.165196
4965.67, 0.165709
4970.43, 0.166022
4975.2, 0.166245
4979.98, 0.166402
4984.76, 0.166625
4989.56, 0.166826
4994.37, 0.167004
4999.18, 0.167183
5004.01, 0.167362
5008.84, 0.167540
5013.69, 0.167406
5018.54, 0.166937
5023.4, 0.167295
5028.28, 0.167808
5033.16, 0.168031
5038.05, 0.168277
5042.95, 0.168411
5047.86, 0.168500
5052.78, 0.168567
5057.71, 0.168657
5062.65, 0.168679
5067.6, 0.168768
5072.56, 0.168880
5077.53, 0.168701
5082.5, 0.168277
5087.49, 0.168657
5092.49, 0.169148
5097.5, 0.169282
5102.51, 0.169349
5107.54, 0.169349
5112.58, 0.169304
5117.62, 0.169349
5122.68, 0.169282
5127.75, 0.169103
5132.82, 0.168992
5137.91, 0.168969
5143.01, 0.168389
5148.12, 0.167897
5153.23, 0.169014
5158.36, 0.169594
5163.5, 0.169617
5168.65, 0.169572
5173.81, 0.169594
5178.98, 0.169617
5184.15, 0.169617
5189.34, 0.169505
5194.54, 0.168947
5199.75, 0.168121
5204.98, 0.168411
5210.21, 0.167205
5215.45, 0.166870
5220.7, 0.168612
5225.96, 0.168969
5231.23, 0.168590
5236.52, 0.168098
5241.81, 0.168344
5247.12, 0.168545
5252.44, 0.168545
5257.76, 0.168456
5263.1, 0.168433
5268.45, 0.168165
5273.81, 0.167607
5279.18, 0.167473
5284.56, 0.167429
5289.95, 0.166089
5295.36, 0.166379
5300.77, 0.167317
5306.2, 0.167295
5311.63, 0.167272
5317.08, 0.167205
5322.54, 0.167071
5328.01, 0.166960
5333.49, 0.166870
5338.98, 0.166536
5344.49, 0.164370
5350.0, 0.161914
5355.53, 0.163387
5361.07, 0.165352
5366.62, 0.165866
5372.18, 0.165665
5377.75, 0.165486
5383.34, 0.165285
5388.93, 0.165151
5394.54, 0.164727
5400.16, 0.164214
5405.79, 0.163053
5411.44, 0.161557
5417.09, 0.157761
5422.76, 0.154814
5428.43, 0.158185
5434.12, 0.159793
5439.83, 0.158989
5445.54, 0.158275
5451.26, 0.157627
5457.0, 0.155372
5462.75, 0.151309
5468.52, 0.150773
5474.29, 0.150505
5480.08, 0.149165
5485.88, 0.150483
5491.69, 0.150728
5497.51, 0.150460
5503.35, 0.150148
5509.2, 0.150460
5515.06, 0.149924
5520.93, 0.149165
5526.82, 0.149523
5532.71, 0.150438
5538.63, 0.150550
5544.55, 0.149835
5550.49, 0.148250
5556.44, 0.148317
5562.4, 0.149411
5568.37, 0.149299
5574.36, 0.145638
5580.36, 0.143762
5586.37, 0.147044
5592.4, 0.148719
5598.44, 0.147223
5604.49, 0.146285
5610.56, 0.145861
5616.63, 0.144700
5622.73, 0.144611
5628.83, 0.143271
5634.95, 0.138984
5641.08, 0.133514
5647.23, 0.134765
5653.39, 0.135992
5659.56, 0.136707
5665.74, 0.137488
5671.94, 0.134095
5678.15, 0.132934
5684.38, 0.133715
5690.62, 0.131728
5696.87, 0.131259
5703.14, 0.128803
5709.42, 0.123802
5715.72, 0.123936
5722.03, 0.126191
5728.35, 0.128223
5734.69, 0.128468
5741.03, 0.127665
5747.4, 0.126102
5753.78, 0.128267
5760.17, 0.124293
5766.58, 0.118823
5773.0, 0.124650
5779.44, 0.129071
5785.88, 0.131103
5792.35, 0.133001
5798.83, 0.134095
5805.32, 0.136193
5811.83, 0.135903
5818.35, 0.130679
5824.89, 0.131081
5831.45, 0.137377
5838.01, 0.142557
5844.59, 0.145280
5851.19, 0.145169
5857.8, 0.143204
5864.43, 0.141954
5871.07, 0.142021
5877.73, 0.132219
5884.4, 0.132108
5891.09, 0.136193
5897.79, 0.135189
5904.5, 0.142825
5911.23, 0.144968
5917.98, 0.143450
5924.75, 0.141597
5931.53, 0.133090
5938.32, 0.127933
5945.13, 0.135792
5951.96, 0.139118
5958.8, 0.138649
5965.65, 0.132978
5972.53, 0.132063
5979.42, 0.132911
5986.32, 0.128334
5993.24, 0.127799
6000.18, 0.130880
6007.13, 0.128714
6014.1, 0.125276
6021.08, 0.126392
6028.09, 0.126749
6035.1, 0.123690
6042.14, 0.112639
6049.19, 0.102592
6056.25, 0.110227
6063.34, 0.112014
6070.44, 0.104244
6077.55, 0.100627
6084.69, 0.0994210
6091.84, 0.0955140
6099.0, 0.0924780
6106.19, 0.0893520
6113.39, 0.0883920
6120.61, 0.0957370
6127.84, 0.101654
6135.09, 0.101989
6142.36, 0.100046
6149.65, 0.0966080
6156.95, 0.0895300
6164.27, 0.0839040
6171.61, 0.0809570
6178.97, 0.0757550
6186.34, 0.0725840
6193.73, 0.0748170
6201.14, 0.0751520
6208.57, 0.0733440
6216.01, 0.0713560
6223.47, 0.0703290
6230.95, 0.0712000
6238.45, 0.0742370
6245.97, 0.0784340
6253.5, 0.0819840
6261.06, 0.0839260
6268.63, 0.0846410
6276.21, 0.0848190
6283.82, 0.0846190
6291.45, 0.0840380
6299.1, 0.0835690
6306.76, 0.0831670
6314.44, 0.0832120
6322.14, 0.0834350
6329.86, 0.0834580
6337.6, 0.0803760
6345.35, 0.0784790
6353.13, 0.0826540
6360.92, 0.0837920
6368.74, 0.0818280
6376.57, 0.0834350
6384.43, 0.0849310
6392.3, 0.0847080
6400.19, 0.0828320
6408.1, 0.0748840
6416.03, 0.0722050
6423.98, 0.0795950
6431.95, 0.0849530
6439.94, 0.0906470
6447.95, 0.0955360
6455.98, 0.0999790
6464.03, 0.103306
6472.1, 0.103395
6480.19, 0.102413
6488.31, 0.0990190
6496.44, 0.101073
6504.59, 0.110652
6512.76, 0.113532
6520.95, 0.111723
6529.16, 0.115206
6537.4, 0.116479
6545.65, 0.114737
6553.92, 0.113152
6562.22, 0.111835
6570.54, 0.107593
6578.88, 0.109647
6587.23, 0.112014
6595.61, 0.112773
6604.02, 0.114849
6612.44, 0.114402
6620.89, 0.112840
6629.35, 0.106365
6637.84, 0.101810
6646.35, 0.109022
6654.88, 0.114737
6663.44, 0.113621
6672.01, 0.110607
6680.61, 0.108486
6689.23, 0.110897
6697.88, 0.112348
6706.54, 0.108999
6715.23, 0.107682
6723.94, 0.109089
6732.67, 0.110763
6741.42, 0.111031
6750.2, 0.110026
6759.0, 0.109558
6767.82, 0.107414
6776.67, 0.104713
6785.54, 0.101185
6794.44, 0.101341
6803.35, 0.105449
6812.29, 0.105896
6821.26, 0.102994
6830.24, 0.102234
6839.25, 0.103887
6848.29, 0.101274
6857.35, 0.0945090
6866.43, 0.0928570
6875.54, 0.0985730
6884.67, 0.100180
6893.82, 0.0993770
6903.0, 0.0973000
6912.2, 0.0969650
6921.43, 0.0972330
6930.69, 0.0967420
6939.96, 0.0959610
6949.27, 0.0933930
6958.59, 0.0891060
6967.95, 0.0905130
6977.33, 0.0921430
6986.73, 0.0908250
6996.16, 0.0897540
7005.61, 0.0896640
7015.09, 0.0883250
7024.6, 0.0869410
7034.13, 0.0849090
7043.69, 0.0809570
7053.27, 0.0810460
7062.88, 0.0824310
7072.52, 0.0817610
7082.18, 0.0803540
7091.87, 0.0788360
7101.58, 0.0773400
7111.32, 0.0751070
7121.09, 0.0734110
7130.88, 0.0722500
7140.71, 0.0698830
7150.56, 0.0677170
7160.43, 0.0661540
7170.33, 0.0642570
7180.27, 0.0640330
7190.23, 0.0632740
7200.21, 0.0612200
7210.23, 0.0595460
7220.27, 0.0592330
7230.34, 0.0581170
7240.44, 0.0566430
7250.56, 0.0549460
7260.72, 0.0532720
7270.9, 0.0511060
7281.12, 0.0494320
7291.36, 0.0482040
7301.63, 0.0465510
7311.93, 0.0447430
7322.25, 0.0430010
7332.61, 0.0407240
7343.0, 0.0390270
7353.41, 0.0377550
7363.86, 0.0364150
7374.33, 0.0348520
7384.83, 0.0333790
7395.37, 0.0319050
7405.93, 0.0306320
7416.53, 0.0293820
7427.15, 0.0282880
7437.81, 0.0271050
7448.5, 0.0259440
7459.22, 0.0246040
7469.96, 0.0234650
7480.74, 0.0223490
7491.55, 0.0212330
7502.39, 0.0200050
7513.27, 0.0189110
7524.17, 0.0177500
7535.11, 0.0166780
7546.08, 0.0155170
7557.08, 0.0144900
7568.11, 0.0133740
7579.17, 0.0123240
7590.27, 0.0112080
7601.4, 0.0102030
7612.56, 0.00913200
7623.76, 0.00821600
7634.98, 0.00736800
7646.24, 0.00660900
7657.54, 0.00585000
7668.87, 0.00526900
7680.23, 0.00464400
7691.62, 0.00410800
7703.05, 0.00357200
7714.51, 0.00312600
7726.01, 0.00270200
7737.54, 0.00236700
7749.11, 0.00198700
7760.71, 0.00171900
7772.35, 0.00142900
7784.02, 0.00122800
7795.72, 0.00104900
7807.46, 0.000893000
7819.23, 0.000714000
7831.04, 0.000647000
7842.89, 0.000536000
7854.77, 0.000536000
7866.69, 0.000424000
7878.65, 0.000424000
7890.64, 0.000402000
7902.67, 0.000491000
7914.74, 0.000536000
7926.84, 0.000647000
7938.98, 0.000692000
7951.16, 0.000938000
7963.37, 0.00111600
7975.62, 0.00136200
7987.91, 0.00167500
8000.24, 0.00214300
8012.6, 0.00254500
8025.01, 0.00303600
8037.45, 0.00366200
8049.93, 0.00453200
8062.45, 0.00547000
8075.01, 0.00676500
8087.61, 0.00830600
8100.24, 0.0102260
8112.91, 0.0125250
8125.63, 0.0153390
8138.39, 0.0183750
8151.18, 0.0217460
8164.02, 0.0254080
8176.9, 0.0293600
8189.81, 0.0334230
8202.77, 0.0377100
8215.77, 0.0421080
8228.82, 0.0468860
8241.9, 0.0520440
8255.02, 0.0576480
8268.19, 0.0635200
8281.39, 0.0693250
8294.65, 0.0743930
8307.94, 0.0777200
8321.28, 0.0780990
8334.66, 0.0766930
8348.08, 0.0765590
8361.54, 0.0789480
8375.05, 0.0829660
8388.6, 0.0880120
8402.2, 0.0937280
8415.84, 0.0998230
8429.52, 0.105650
8443.25, 0.110585
8457.02, 0.113576
8470.84, 0.114402
8484.7, 0.113353
8498.61, 0.110830
8512.57, 0.107504
8526.57, 0.104266
8540.62, 0.101140
8554.71, 0.0981260
8568.85, 0.0953130
8583.04, 0.0931250
8597.27, 0.0917180
8611.55, 0.0910040
8625.88, 0.0906240
8640.26, 0.0905350
8654.68, 0.0905570
8669.16, 0.0907140
8683.68, 0.0910040
8698.25, 0.0915850
8712.87, 0.0925000
8727.53, 0.0937730
8742.25, 0.0953800
8757.02, 0.0971890
8771.83, 0.0989520
8786.7, 0.100538
8801.62, 0.101922
8816.59, 0.103172
8831.61, 0.103887
8846.68, 0.103708
8861.8, 0.102167
8876.97, 0.0990190
8892.2, 0.0943530
8907.48, 0.0882580
8922.81, 0.0806670
8938.2, 0.0728970
8953.63, 0.0664890
8969.13, 0.0618010
8984.67, 0.0579160
9000.27, 0.0544770
9015.92, 0.0511730
9031.63, 0.0479800
9047.39, 0.0444530
9063.21, 0.0402550
9079.08, 0.0355670
9095.01, 0.0315700
9111.0, 0.0288460
9127.04, 0.0272390
9143.13, 0.0259440
9159.28, 0.0248050
9175.49, 0.0238000
9191.76, 0.0231530
9208.09, 0.0227290
9224.47, 0.0227060
9240.92, 0.0228850
9257.42, 0.0234210
9273.98, 0.0240910
9290.6, 0.0248500
9307.28, 0.0254970
9324.02, 0.0261890
9340.82, 0.0268140
9357.68, 0.0274840
9374.6, 0.0282430
9391.58, 0.0291590
9408.62, 0.0300070
9425.73, 0.0309900
9442.9, 0.0318830
9460.13, 0.0328430
9477.42, 0.0337360
9494.78, 0.0347630
9512.2, 0.0357230
9529.69, 0.0366830
9547.24, 0.0375090
9564.86, 0.0382230
9582.54, 0.0388260
9600.28, 0.0395850
9618.1, 0.0405900
9635.97, 0.0417290
9653.92, 0.0428230
9671.93, 0.0439390
9690.01, 0.0448990
9708.16, 0.0456140
9726.37, 0.0460600
9744.65, 0.0463500
9763.0, 0.0465740
9781.43, 0.0469310
9799.92, 0.0473770
9818.48, 0.0480030
9837.1, 0.0486720
9855.8, 0.0494760
9874.58, 0.0502130
9893.42, 0.0509940
9912.34, 0.0517090
9931.33, 0.0523340
9950.39, 0.0530040
9969.52, 0.0539190
9988.74, 0.0549690
10008.0, 0.0561520
10027.4, 0.0571790
10046.8, 0.0579830
10066.3, 0.0584740
10085.9, 0.0588530
10105.6, 0.0591660
10125.3, 0.0595900
10145.1, 0.0601260
10165.0, 0.0609070
10185.0, 0.0617560
10205.0, 0.0619350
10225.2, 0.0597240
10245.4, 0.0581170
10265.7, 0.0615770
10286.0, 0.0655070
10306.5, 0.0673820
10327.0, 0.0686770
10347.6, 0.0697490
10368.3, 0.0708210
10389.1, 0.0718250
10409.9, 0.0728970
10430.9, 0.0741030
10451.9, 0.0753750
10473.0, 0.0764690
10494.2, 0.0773400
10515.5, 0.0780100
10536.9, 0.0786800
10558.4, 0.0793940
10579.9, 0.0802870
10601.5, 0.0813370
10623.3, 0.0824530
10645.1, 0.0835020
10667.0, 0.0844180
10689.0, 0.0851100
10711.1, 0.0858020
10733.2, 0.0862930
10755.5, 0.0867840
10777.9, 0.0874090
10800.3, 0.0881690
10822.9, 0.0889500
10845.5, 0.0896640
10868.2, 0.0902670
10891.1, 0.0909370
10914.0, 0.0915400
10937.0, 0.0922100
10960.2, 0.0926790
10983.4, 0.0929910
11006.7, 0.0930800
11030.1, 0.0929690
11053.6, 0.0925000
11077.3, 0.0920090
11101.0, 0.0916070
11124.8, 0.0914510
11148.7, 0.0915850
11172.7, 0.0919190
11196.9, 0.0922100
11221.1, 0.0923660
11245.4, 0.0923440
11269.9, 0.0923440
11294.4, 0.0923880
11319.1, 0.0925890
11343.9, 0.0928570
11368.8, 0.0932140
11393.7, 0.0935720
11418.8, 0.0939960
11444.0, 0.0942410
11469.4, 0.0943080
11494.8, 0.0943980
11520.3, 0.0946430
11546.0, 0.0949560
11571.8, 0.0952460
11597.7, 0.0954690
11623.7, 0.0955360
11649.8, 0.0954470
11676.0, 0.0956030
11702.4, 0.0959610
11728.9, 0.0964520
11755.5, 0.0969430
11782.2, 0.0973450
11809.0, 0.0974790
11836.0, 0.0974790
11863.0, 0.0972780
11890.3, 0.0969430
11917.6, 0.0965190
11945.0, 0.0961390
11972.6, 0.0955810
12000.4, 0.0947770
12028.2, 0.0936610
12056.2, 0.0923880
12084.3, 0.0908700
12112.5, 0.0893740
12140.9, 0.0881240
12169.4, 0.0872310
12198.0, 0.0866280
12226.8, 0.0863600
12255.7, 0.0862040
12284.7, 0.0860250
12313.9, 0.0855120
12343.2, 0.0845960
12372.7, 0.0833010
12402.3, 0.0819170
12432.0, 0.0805330
12461.9, 0.0793940
12491.9, 0.0785010
12522.1, 0.0777870
12552.4, 0.0771170
12582.9, 0.0766480
12613.5, 0.0762240
12644.3, 0.0757320
12675.2, 0.0751300
12706.3, 0.0746160
12737.5, 0.0740800
12768.9, 0.0735890
12800.4, 0.0730310
12832.1, 0.0724500
12863.9, 0.0718920
12895.9, 0.0714680
12928.1, 0.0711330
12960.4, 0.0710660
12992.9, 0.0712000
13025.5, 0.0715800
13058.3, 0.0719590
13091.3, 0.0722500
13124.4, 0.0723160
13157.8, 0.0721380
13191.2, 0.0717810
13224.9, 0.0712890
13258.7, 0.0706200
13292.7, 0.0699050
13326.9, 0.0692800
13361.2, 0.0687890
13395.7, 0.0683870
13430.4, 0.0683420
13465.3, 0.0684540
13500.4, 0.0685210
13535.7, 0.0684540
13571.1, 0.0684090
13606.7, 0.0682310
13642.5, 0.0678730
13678.5, 0.0671140
13714.7, 0.0659530
13751.1, 0.0644570
13787.6, 0.0628050
13824.4, 0.0610640
13861.4, 0.0597470
13898.5, 0.0590100
13935.9, 0.0588530
13973.5, 0.0588530
14011.2, 0.0587640
14049.2, 0.0582950
14087.4, 0.0574690
14125.8, 0.0564870
14164.3, 0.0554370
14203.2, 0.0541650
14242.2, 0.0528920
14281.4, 0.0515970
14320.9, 0.0501460
14360.5, 0.0486280
14400.4, 0.0471100
14440.5, 0.0455470
14480.9, 0.0440510
14521.4, 0.0425100
14562.2, 0.0409250
14603.3, 0.0391840
14644.5, 0.0372630
14686.0, 0.0350310
14727.7, 0.0326640
14769.7, 0.0299400
14811.9, 0.0270380
14854.3, 0.0242020
14897.0, 0.0215680
14939.9, 0.0188880
14983.1, 0.0164330
15026.5, 0.0141550
15070.2, 0.0121460
15114.2, 0.0103820
15158.3, 0.00908700
15202.8, 0.00850700
15247.5, 0.00895300
15292.5, 0.0105160
15337.7, 0.0133070
15383.2, 0.0165000
15429.0, 0.0191120
15475.1, 0.0204070
15521.4, 0.0206750
15568.0, 0.0200720
15614.9, 0.0186880
15662.1, 0.0165440
15709.6, 0.0143340
15757.3, 0.0125920
15805.4, 0.0121900
15853.7, 0.0129500
15902.3, 0.0147580
15951.2, 0.0174150
16000.5, 0.0204740
16050.0, 0.0230410
16099.8, 0.0245150
16150.0, 0.0250730
16200.5, 0.0250280
16251.3, 0.0241350
16302.4, 0.0224160
16353.8, 0.0201160
16405.5, 0.0180400
16457.6, 0.0165440
16510.0, 0.0161200
16562.8, 0.0167450
16615.9, 0.0181740
16669.3, 0.0198040
16723.1, 0.0220590
16777.2, 0.0248500
16831.7, 0.0279980
16886.5, 0.0311910
16941.7, 0.0347850
16997.2, 0.0385140
17053.1, 0.0422200
17109.4, 0.0455470
17166.1, 0.0487170
17223.1, 0.0517980
17280.5, 0.0549460
17338.3, 0.0581610
17396.5, 0.0616220
17455.1, 0.0650830
17514.0, 0.0678510
17573.4, 0.0701510
17633.2, 0.0724950
17693.4, 0.0747950
17754.0, 0.0770500
17815.0, 0.0790820
17876.4, 0.0808450
17938.3, 0.0823410
18000.5, 0.0836360
18063.3, 0.0848420
18126.4, 0.0861140
18190.0, 0.0874990
18254.1, 0.0891290
18318.6, 0.0906020
18383.5, 0.0920980
18449.0, 0.0933040
18514.9, 0.0944650
18581.2, 0.0951790
18648.0, 0.0957150
18715.4, 0.0961840
18783.2, 0.0966080
18851.5, 0.0967870
18920.3, 0.0965860
18989.6, 0.0959610
19059.4, 0.0960720
19129.7, 0.0965630
19200.6, 0.0966750
19272.0, 0.0964520
19343.9, 0.0966750
19416.3, 0.0972110
19489.3, 0.0975460
19562.8, 0.0976570
19637.0, 0.0976570
19711.6, 0.0972780
19786.8, 0.0970550
19862.6, 0.0964290
19939.0, 0.0958940
20016.0, 0.0959610
20093.6, 0.0953800
20171.8, 0.0943750
20250.6, 0.0932590
20330.0, 0.0920530
20410.0, 0.0910040
20490.7, 0.0897980
20572.0, 0.0883920
20654.0, 0.0868290
20736.6, 0.0857350
20819.9, 0.0844850
20903.8, 0.0833910
20988.5, 0.0822070
21073.8, 0.0807780
21159.8, 0.0792820
21246.5, 0.0784790
21334.0, 0.0776300
21422.1, 0.0767150
21511.0, 0.0754870
21600.7, 0.0744150
21691.0, 0.0731870
21782.1, 0.0711110
21874.0, 0.0695030
21966.7, 0.0696820
22060.2, 0.0687890
22154.5, 0.0672040
22249.6, 0.0655510
22345.5, 0.0643460
22442.2, 0.0629390
22539.8, 0.0610860
22638.2, 0.0593670
22737.5, 0.0582730
22837.7, 0.0561300
22938.7, 0.0549460
23040.7, 0.0545670
23143.5, 0.0525570
23247.3, 0.0499900
23352.1, 0.0480030
23457.7, 0.0461940
23564.4, 0.0450330
23672.0, 0.0438050
23780.5, 0.0409700
23890.1, 0.0379110
24000.7, 0.0367720
24112.3, 0.0357450
24225.0, 0.0348970
24338.7, 0.0341600
24453.5, 0.0325970
24569.4, 0.0306990
24686.4, 0.0300740
24804.5, 0.0283550
