Database of Origin,USGS Spectral Database
Sample Description,See USGS database for additional info
Date Added,2017-02-22 02:48:42.976833

Data ID,USGS_ule04          
Sample ID,ulexite_hs4413b.23282
Mineral Name,ulexite

Wavelength
1499.61, 0.145252
1500.04, 0.145003
1500.48, 0.144604
1500.91, 0.144953
1501.35, 0.144853
1501.78, 0.144903
1502.22, 0.144853
1502.65, 0.144953
1503.09, 0.144704
1503.53, 0.144455
1503.96, 0.144555
1504.4, 0.144903
1504.83, 0.144953
1505.27, 0.145451
1505.71, 0.145550
1506.15, 0.145500
1506.58, 0.145401
1507.02, 0.145600
1507.46, 0.145849
1507.9, 0.146844
1508.34, 0.147193
1508.78, 0.146446
1509.21, 0.146645
1509.66, 0.146795
1510.09, 0.146596
1510.53, 0.146745
1510.97, 0.146994
1511.42, 0.147492
1511.86, 0.147840
1512.3, 0.148188
1512.74, 0.148537
1513.18, 0.148736
1513.62, 0.148537
1514.06, 0.148487
1514.51, 0.148636
1514.95, 0.149184
1515.39, 0.149732
1515.83, 0.150528
1516.28, 0.150180
1516.72, 0.149781
1517.16, 0.150329
1517.61, 0.150578
1518.05, 0.150428
1518.5, 0.150478
1518.94, 0.150727
1519.39, 0.151225
1519.83, 0.151026
1520.28, 0.151026
1520.73, 0.151324
1521.17, 0.151772
1521.62, 0.152071
1522.07, 0.151972
1522.51, 0.151474
1522.96, 0.152370
1523.41, 0.153266
1523.85, 0.153614
1524.3, 0.153515
1524.75, 0.153813
1525.2, 0.154112
1525.65, 0.154660
1526.1, 0.154460
1526.55, 0.154212
1527.0, 0.153863
1527.45, 0.153813
1527.9, 0.154112
1528.35, 0.155008
1528.8, 0.155356
1529.25, 0.155506
1529.7, 0.155804
1530.15, 0.156651
1530.6, 0.156850
1531.05, 0.157049
1531.51, 0.157099
1531.96, 0.157248
1532.41, 0.157447
1532.87, 0.157397
1533.32, 0.157646
1533.77, 0.158393
1534.23, 0.158692
1534.68, 0.158393
1535.14, 0.158692
1535.59, 0.159289
1536.05, 0.159339
1536.5, 0.159438
1536.96, 0.159388
1537.41, 0.159488
1537.87, 0.159986
1538.32, 0.160732
1538.78, 0.160932
1539.24, 0.161330
1539.7, 0.161330
1540.15, 0.161180
1540.61, 0.161529
1541.07, 0.161977
1541.53, 0.161927
1541.98, 0.162724
1542.44, 0.162724
1542.9, 0.162773
1543.36, 0.163420
1543.82, 0.164068
1544.28, 0.164466
1544.74, 0.164615
1545.2, 0.164267
1545.66, 0.164814
1546.12, 0.165013
1546.59, 0.165412
1547.05, 0.165561
1547.51, 0.165810
1547.97, 0.166208
1548.43, 0.166009
1548.9, 0.165660
1549.36, 0.166208
1549.82, 0.166507
1550.29, 0.166756
1550.75, 0.166855
1551.21, 0.167602
1551.68, 0.167900
1552.14, 0.167801
1552.61, 0.168000
1553.07, 0.168348
1553.54, 0.168647
1554.0, 0.169045
1554.47, 0.169195
1554.93, 0.169294
1555.4, 0.169145
1555.87, 0.169493
1556.34, 0.169742
1556.8, 0.169892
1557.27, 0.170290
1557.74, 0.170638
1558.21, 0.170738
1558.68, 0.170738
1559.14, 0.170837
1559.61, 0.171136
1560.08, 0.171534
1560.55, 0.172231
1561.02, 0.172231
1561.49, 0.172430
1561.96, 0.172480
1562.43, 0.172331
1562.9, 0.172331
1563.38, 0.172530
1563.85, 0.172480
1564.32, 0.172828
1564.79, 0.173276
1565.26, 0.173874
1565.74, 0.173724
1566.21, 0.173525
1566.68, 0.173426
1567.16, 0.173326
1567.63, 0.173227
1568.1, 0.174123
1568.58, 0.174421
1569.05, 0.174521
1569.53, 0.174571
1570.0, 0.174720
1570.48, 0.174720
1570.96, 0.174820
1571.43, 0.174471
1571.91, 0.174820
1572.39, 0.174919
1572.86, 0.175068
1573.34, 0.175068
1573.82, 0.175417
1574.3, 0.175616
1574.77, 0.175566
1575.25, 0.175566
1575.73, 0.175765
1576.21, 0.175118
1576.69, 0.174820
1577.17, 0.175118
1577.65, 0.175716
1578.13, 0.175865
1578.61, 0.176263
1579.09, 0.176562
1579.57, 0.176462
1580.05, 0.176263
1580.54, 0.176910
1581.02, 0.176860
1581.5, 0.176761
1581.98, 0.176960
1582.47, 0.177358
1582.95, 0.177010
1583.43, 0.177010
1583.92, 0.177109
1584.4, 0.176811
1584.88, 0.177010
1585.37, 0.177508
1585.85, 0.177259
1586.34, 0.177408
1586.82, 0.177358
1587.31, 0.177458
1587.8, 0.177508
1588.28, 0.177906
1588.77, 0.177906
1589.26, 0.177557
1589.74, 0.177358
1590.23, 0.177657
1590.72, 0.177607
1591.21, 0.177458
1591.7, 0.177557
1592.19, 0.178155
1592.67, 0.178304
1593.16, 0.177906
1593.65, 0.177906
1594.14, 0.178204
1594.63, 0.177806
1595.12, 0.177806
1595.61, 0.178354
1596.11, 0.178652
1596.6, 0.178055
1597.09, 0.177806
1597.58, 0.178005
1598.08, 0.178155
1598.57, 0.178354
1599.06, 0.178553
1599.55, 0.178453
1600.05, 0.178702
1600.54, 0.178453
1601.04, 0.178254
1601.53, 0.178055
1602.03, 0.178254
1602.52, 0.178404
1603.02, 0.178404
1603.51, 0.178453
1604.01, 0.178553
1604.5, 0.178702
1605.0, 0.178802
1605.5, 0.178802
1606.0, 0.178702
1606.49, 0.178503
1606.99, 0.178603
1607.49, 0.178702
1607.99, 0.178802
1608.49, 0.178503
1608.99, 0.178802
1609.49, 0.179399
1609.99, 0.179150
1610.49, 0.178453
1610.99, 0.178453
1611.49, 0.178453
1611.99, 0.178852
1612.49, 0.178752
1612.99, 0.178802
1613.49, 0.179100
1614.0, 0.179300
1614.5, 0.179001
1615.0, 0.179051
1615.51, 0.179100
1616.01, 0.179051
1616.51, 0.179100
1617.02, 0.179300
1617.52, 0.178951
1618.03, 0.178802
1618.53, 0.178901
1619.04, 0.178852
1619.54, 0.178702
1620.05, 0.178852
1620.55, 0.178752
1621.06, 0.178901
1621.57, 0.179051
1622.08, 0.178802
1622.58, 0.178354
1623.09, 0.178503
1623.6, 0.178404
1624.11, 0.178652
1624.62, 0.178752
1625.13, 0.178404
1625.64, 0.178503
1626.15, 0.178652
1626.66, 0.178752
1627.17, 0.178752
1627.68, 0.178652
1628.19, 0.178652
1628.7, 0.178652
1629.21, 0.179001
1629.72, 0.178951
1630.24, 0.178852
1630.75, 0.178852
1631.26, 0.178802
1631.78, 0.178702
1632.29, 0.178802
1632.8, 0.178652
1633.32, 0.178453
1633.83, 0.178652
1634.35, 0.178852
1634.86, 0.178702
1635.38, 0.178503
1635.9, 0.178603
1636.41, 0.178652
1636.93, 0.178453
1637.45, 0.178404
1637.96, 0.178553
1638.48, 0.178901
1639.0, 0.178951
1639.52, 0.178802
1640.04, 0.178553
1640.56, 0.178652
1641.08, 0.178852
1641.59, 0.178901
1642.11, 0.178553
1642.63, 0.178204
1643.16, 0.178204
1643.68, 0.178404
1644.2, 0.178354
1644.72, 0.178453
1645.24, 0.178354
1645.76, 0.178155
1646.29, 0.178055
1646.81, 0.178453
1647.33, 0.178553
1647.86, 0.178254
1648.38, 0.178354
1648.9, 0.178702
1649.43, 0.178254
1649.95, 0.178204
1650.48, 0.178453
1651.0, 0.178304
1651.53, 0.178105
1652.06, 0.178304
1652.58, 0.178453
1653.11, 0.178702
1653.64, 0.178802
1654.17, 0.178852
1654.69, 0.178354
1655.22, 0.178254
1655.75, 0.178204
1656.28, 0.177956
1656.81, 0.177607
1657.34, 0.177856
1657.87, 0.178055
1658.4, 0.178453
1658.93, 0.178453
1659.46, 0.178204
1659.99, 0.178155
1660.52, 0.178503
1661.05, 0.178603
1661.59, 0.178603
1662.12, 0.178254
1662.65, 0.178005
1663.19, 0.178055
1663.72, 0.178304
1664.26, 0.178453
1664.79, 0.178304
1665.32, 0.178155
1665.86, 0.178404
1666.39, 0.178603
1666.93, 0.178852
1667.47, 0.178702
1668.0, 0.178802
1668.54, 0.178553
1669.08, 0.178453
1669.61, 0.178652
1670.15, 0.178802
1670.69, 0.178553
1671.23, 0.178404
1671.77, 0.178354
1672.31, 0.178404
1672.85, 0.178204
1673.39, 0.178304
1673.93, 0.178204
1674.47, 0.178553
1675.01, 0.178752
1675.55, 0.178702
1676.09, 0.178553
1676.64, 0.178304
1677.18, 0.178304
1677.72, 0.178702
1678.26, 0.178802
1678.81, 0.178901
1679.35, 0.178852
1679.89, 0.178852
1680.44, 0.178553
1680.98, 0.178603
1681.53, 0.178852
1682.07, 0.178951
1682.62, 0.178603
1683.17, 0.178951
1683.71, 0.178951
1684.26, 0.178652
1684.81, 0.178553
1685.36, 0.178503
1685.9, 0.178652
1686.45, 0.178852
1687.0, 0.178901
1687.55, 0.178901
1688.1, 0.178901
1688.65, 0.178852
1689.2, 0.178901
1689.75, 0.178951
1690.3, 0.178752
1690.85, 0.178852
1691.41, 0.178802
1691.96, 0.178802
1692.51, 0.178852
1693.06, 0.178652
1693.61, 0.178553
1694.17, 0.178603
1694.72, 0.178553
1695.28, 0.178652
1695.83, 0.178603
1696.39, 0.178652
1696.94, 0.178702
1697.5, 0.178752
1698.05, 0.178603
1698.61, 0.178453
1699.17, 0.178304
1699.72, 0.178354
1700.28, 0.178404
1700.84, 0.178553
1701.4, 0.178553
1701.95, 0.178503
1702.51, 0.178404
1703.07, 0.178503
1703.63, 0.178453
1704.19, 0.178404
1704.75, 0.178254
1705.31, 0.178254
1705.88, 0.178005
1706.44, 0.177956
1707.0, 0.178005
1707.56, 0.178304
1708.12, 0.178304
1708.69, 0.178204
1709.25, 0.178105
1709.81, 0.178204
1710.38, 0.177856
1710.94, 0.177756
1711.51, 0.177707
1712.07, 0.177756
1712.64, 0.177607
1713.2, 0.177508
1713.77, 0.177308
1714.34, 0.177508
1714.9, 0.177607
1715.47, 0.177756
1716.04, 0.177707
1716.61, 0.177508
1717.18, 0.177259
1717.74, 0.177159
1718.31, 0.177010
1718.88, 0.177209
1719.45, 0.177408
1720.02, 0.177308
1720.59, 0.177159
1721.17, 0.177308
1721.74, 0.177060
1722.31, 0.176860
1722.88, 0.176960
1723.45, 0.176960
1724.03, 0.176711
1724.6, 0.176910
1725.18, 0.177060
1725.75, 0.176960
1726.33, 0.176960
1726.9, 0.177010
1727.48, 0.176711
1728.05, 0.176761
1728.63, 0.176711
1729.2, 0.176661
1729.78, 0.176661
1730.36, 0.176910
1730.94, 0.176960
1731.51, 0.176910
1732.09, 0.176711
1732.67, 0.176910
1733.25, 0.176960
1733.83, 0.176960
1734.41, 0.176860
1734.99, 0.176761
1735.57, 0.176661
1736.15, 0.176761
1736.73, 0.176811
1737.32, 0.176910
1737.9, 0.176761
1738.48, 0.176612
1739.07, 0.176363
1739.65, 0.176462
1740.23, 0.176462
1740.82, 0.176412
1741.4, 0.176462
1741.99, 0.176512
1742.57, 0.176114
1743.16, 0.175865
1743.74, 0.175815
1744.33, 0.176014
1744.92, 0.176313
1745.51, 0.176363
1746.09, 0.176064
1746.68, 0.176114
1747.27, 0.176363
1747.86, 0.176412
1748.45, 0.176213
1749.04, 0.176313
1749.63, 0.176064
1750.22, 0.175865
1750.81, 0.175716
1751.4, 0.175765
1751.99, 0.175815
1752.59, 0.175865
1753.18, 0.175716
1753.77, 0.175964
1754.37, 0.175964
1754.96, 0.175865
1755.56, 0.175666
1756.15, 0.175616
1756.74, 0.175815
1757.34, 0.176014
1757.94, 0.175964
1758.53, 0.175915
1759.13, 0.175616
1759.73, 0.175367
1760.32, 0.175417
1760.92, 0.175716
1761.52, 0.175716
1762.12, 0.175666
1762.72, 0.175666
1763.32, 0.175765
1763.92, 0.175616
1764.52, 0.175616
1765.12, 0.175417
1765.72, 0.175417
1766.32, 0.175467
1766.92, 0.175417
1767.53, 0.175367
1768.13, 0.175417
1768.73, 0.175317
1769.34, 0.175516
1769.94, 0.175716
1770.55, 0.175666
1771.15, 0.175317
1771.76, 0.175218
1772.36, 0.175118
1772.97, 0.175268
1773.57, 0.175317
1774.18, 0.175417
1774.79, 0.175467
1775.4, 0.175516
1776.0, 0.175317
1776.61, 0.175317
1777.22, 0.175268
1777.83, 0.175317
1778.44, 0.175218
1779.05, 0.175268
1779.66, 0.175118
1780.27, 0.175218
1780.88, 0.175317
1781.5, 0.175516
1782.11, 0.175566
1782.72, 0.175616
1783.33, 0.175865
1783.95, 0.175915
1784.56, 0.175915
1785.18, 0.176064
1785.79, 0.176014
1786.41, 0.176114
1787.02, 0.176213
1787.64, 0.176412
1788.26, 0.176462
1788.87, 0.176512
1789.49, 0.176512
1790.11, 0.176512
1790.73, 0.176661
1791.35, 0.177010
1791.96, 0.177109
1792.58, 0.177010
1793.21, 0.176910
1793.83, 0.177209
1794.45, 0.177308
1795.07, 0.177259
1795.69, 0.177259
1796.31, 0.177508
1796.93, 0.177806
1797.56, 0.177906
1798.18, 0.178005
1798.8, 0.178055
1799.43, 0.178055
1800.05, 0.178204
1800.68, 0.178354
1801.3, 0.178503
1801.93, 0.178453
1802.56, 0.178603
1803.18, 0.178503
1803.81, 0.178553
1804.44, 0.178752
1805.07, 0.179001
1805.7, 0.178802
1806.33, 0.178901
1806.95, 0.179200
1807.58, 0.179499
1808.22, 0.179499
1808.85, 0.179250
1809.48, 0.179250
1810.11, 0.179300
1810.74, 0.179150
1811.38, 0.179648
1812.01, 0.179996
1812.64, 0.179897
1813.28, 0.179748
1813.91, 0.179797
1814.55, 0.179748
1815.18, 0.179698
1815.82, 0.179748
1816.45, 0.179996
1817.09, 0.180096
1817.73, 0.180096
1818.36, 0.179897
1819.0, 0.179996
1819.64, 0.179996
1820.28, 0.179847
1820.92, 0.180046
1821.56, 0.180196
1822.2, 0.180146
1822.84, 0.180245
1823.48, 0.180345
1824.12, 0.180395
1824.76, 0.180295
1825.41, 0.179897
1826.05, 0.179349
1826.69, 0.179648
1827.34, 0.179996
1827.98, 0.179897
1828.63, 0.179847
1829.27, 0.179947
1829.92, 0.179648
1830.56, 0.179548
1831.21, 0.179499
1831.86, 0.179499
1832.5, 0.179449
1833.15, 0.179698
1833.8, 0.179648
1834.45, 0.179051
1835.1, 0.178652
1835.75, 0.178553
1836.4, 0.178702
1837.05, 0.178752
1837.7, 0.178404
1838.35, 0.178752
1839.01, 0.178503
1839.66, 0.177956
1840.31, 0.178055
1840.96, 0.177906
1841.62, 0.177209
1842.27, 0.177657
1842.93, 0.178005
1843.58, 0.178005
1844.24, 0.177856
1844.9, 0.177607
1845.55, 0.177408
1846.21, 0.176960
1846.87, 0.175964
1847.53, 0.175765
1848.18, 0.175716
1848.84, 0.176064
1849.5, 0.176213
1850.16, 0.176014
1850.82, 0.175666
1851.48, 0.175516
1852.14, 0.175218
1852.81, 0.174620
1853.47, 0.173874
1854.13, 0.173973
1854.8, 0.174172
1855.46, 0.173924
1856.12, 0.173127
1856.79, 0.172779
1857.45, 0.172928
1858.12, 0.172828
1858.79, 0.171883
1859.45, 0.170738
1860.12, 0.170588
1860.79, 0.170937
1861.46, 0.170837
1862.12, 0.170489
1862.79, 0.169892
1863.46, 0.169244
1864.13, 0.168548
1864.8, 0.168299
1865.48, 0.168149
1866.15, 0.167652
1866.82, 0.166606
1867.49, 0.165611
1868.16, 0.165212
1868.84, 0.165063
1869.51, 0.164416
1870.19, 0.163371
1870.86, 0.162226
1871.54, 0.162176
1872.21, 0.161678
1872.89, 0.160732
1873.56, 0.160384
1874.24, 0.160036
1874.92, 0.159339
1875.6, 0.158542
1876.28, 0.157497
1876.96, 0.156850
1877.64, 0.156452
1878.32, 0.155954
1879.0, 0.155257
1879.68, 0.154460
1880.36, 0.153515
1881.04, 0.152668
1881.73, 0.151872
1882.41, 0.151026
1883.09, 0.149881
1883.78, 0.148736
1884.46, 0.147989
1885.15, 0.147392
1885.83, 0.146297
1886.52, 0.145152
1887.21, 0.144256
1887.89, 0.143460
1888.58, 0.142414
1889.27, 0.141120
1889.96, 0.139726
1890.65, 0.139079
1891.34, 0.138084
1892.03, 0.136839
1892.72, 0.135794
1893.41, 0.134748
1894.1, 0.133653
1894.79, 0.132558
1895.49, 0.131314
1896.18, 0.130268
1896.87, 0.129024
1897.57, 0.127580
1898.26, 0.126286
1898.96, 0.124843
1899.65, 0.123499
1900.35, 0.122603
1901.05, 0.121756
1901.74, 0.120661
1902.44, 0.118969
1903.14, 0.117625
1903.84, 0.116629
1904.54, 0.115236
1905.24, 0.113692
1905.94, 0.112647
1906.64, 0.111403
1907.34, 0.110357
1908.04, 0.109262
1908.75, 0.108068
1909.45, 0.106873
1910.15, 0.105728
1910.86, 0.104434
1911.56, 0.103289
1912.27, 0.101945
1912.97, 0.100302
1913.68, 0.0989580
1914.39, 0.0982610
1915.09, 0.0971160
1915.8, 0.0959220
1916.51, 0.0948270
1917.22, 0.0938310
1917.93, 0.0926860
1918.64, 0.0914420
1919.35, 0.0900480
1920.06, 0.0888040
1920.77, 0.0876590
1921.48, 0.0868120
1922.19, 0.0856680
1922.91, 0.0846220
1923.62, 0.0834770
1924.33, 0.0823820
1925.05, 0.0813870
1925.76, 0.0801920
1926.48, 0.0789970
1927.19, 0.0781010
1927.91, 0.0769560
1928.63, 0.0758120
1929.35, 0.0747660
1930.07, 0.0736210
1930.78, 0.0723770
1931.5, 0.0714310
1932.22, 0.0704360
1932.94, 0.0693400
1933.66, 0.0682450
1934.39, 0.0673990
1935.11, 0.0663040
1935.83, 0.0652590
1936.55, 0.0642130
1937.28, 0.0633170
1938.0, 0.0623720
1938.73, 0.0614260
1939.45, 0.0604800
1940.18, 0.0595840
1940.9, 0.0586880
1941.63, 0.0579910
1942.36, 0.0573440
1943.09, 0.0565970
1943.81, 0.0557510
1944.54, 0.0551540
1945.27, 0.0545560
1946.0, 0.0539590
1946.73, 0.0534120
1947.47, 0.0531130
1948.2, 0.0527640
1948.93, 0.0525160
1949.66, 0.0521170
1950.4, 0.0520180
1951.13, 0.0519680
1951.86, 0.0519180
1952.6, 0.0518680
1953.34, 0.0519180
1954.07, 0.0520180
1954.81, 0.0522670
1955.55, 0.0523660
1956.29, 0.0526150
1957.02, 0.0530630
1957.76, 0.0535610
1958.5, 0.0538600
1959.24, 0.0542580
1959.98, 0.0547060
1960.72, 0.0554030
1961.47, 0.0559000
1962.21, 0.0563980
1962.95, 0.0569960
1963.7, 0.0576430
1964.44, 0.0579910
1965.18, 0.0584890
1965.93, 0.0590360
1966.67, 0.0595340
1967.42, 0.0600820
1968.17, 0.0606790
1968.92, 0.0610770
1969.66, 0.0614760
1970.41, 0.0617740
1971.16, 0.0621230
1971.91, 0.0625710
1972.66, 0.0631180
1973.41, 0.0634170
1974.16, 0.0638150
1974.92, 0.0642130
1975.67, 0.0645120
1976.42, 0.0648110
1977.18, 0.0652590
1977.93, 0.0655080
1978.69, 0.0658560
1979.44, 0.0661550
1980.2, 0.0665530
1980.95, 0.0669010
1981.71, 0.0672000
1982.47, 0.0675480
1983.23, 0.0679960
1983.99, 0.0685940
1984.74, 0.0692410
1985.51, 0.0695400
1986.27, 0.0699880
1987.03, 0.0704850
1987.79, 0.0711820
1988.55, 0.0717800
1989.32, 0.0723770
1990.08, 0.0729240
1990.84, 0.0733720
1991.61, 0.0739200
1992.37, 0.0745670
1993.14, 0.0751640
1993.9, 0.0756620
1994.67, 0.0761100
1995.44, 0.0766080
1996.21, 0.0770560
1996.98, 0.0778030
1997.75, 0.0782010
1998.52, 0.0786990
1999.29, 0.0792460
2000.06, 0.0797440
2000.83, 0.0801920
2001.6, 0.0806400
2002.38, 0.0810380
2003.15, 0.0815360
2003.93, 0.0819340
2004.7, 0.0823820
2005.48, 0.0826310
2006.25, 0.0830290
2007.03, 0.0834280
2007.81, 0.0839250
2008.58, 0.0842240
2009.36, 0.0844230
2010.14, 0.0849210
2010.92, 0.0854190
2011.7, 0.0855180
2012.48, 0.0856180
2013.26, 0.0858670
2014.05, 0.0860660
2014.83, 0.0864640
2015.61, 0.0869620
2016.4, 0.0870610
2017.18, 0.0871110
2017.97, 0.0874600
2018.75, 0.0877580
2019.54, 0.0878080
2020.32, 0.0880570
2021.11, 0.0881560
2021.9, 0.0882060
2022.69, 0.0883560
2023.48, 0.0885550
2024.27, 0.0886540
2025.06, 0.0887540
2025.85, 0.0888530
2026.64, 0.0891520
2027.44, 0.0892520
2028.23, 0.0893010
2029.02, 0.0893010
2029.82, 0.0895000
2030.61, 0.0896500
2031.41, 0.0898490
2032.2, 0.0897490
2033.0, 0.0896500
2033.8, 0.0897490
2034.6, 0.0899480
2035.4, 0.0899480
2036.2, 0.0899980
2037.0, 0.0898490
2037.8, 0.0898990
2038.6, 0.0900480
2039.4, 0.0901970
2040.2, 0.0902470
2041.01, 0.0902970
2041.81, 0.0901970
2042.61, 0.0902470
2043.42, 0.0901480
2044.22, 0.0899980
2045.03, 0.0899980
2045.84, 0.0901970
2046.65, 0.0902970
2047.46, 0.0903470
2048.26, 0.0900980
2049.07, 0.0898490
2049.88, 0.0898990
2050.69, 0.0901480
2051.51, 0.0900480
2052.32, 0.0900980
2053.13, 0.0899980
2053.94, 0.0899480
2054.76, 0.0898990
2055.57, 0.0898490
2056.39, 0.0896500
2057.2, 0.0896500
2058.02, 0.0894010
2058.84, 0.0893510
2059.66, 0.0892020
2060.48, 0.0893010
2061.29, 0.0893010
2062.11, 0.0890030
2062.94, 0.0888530
2063.76, 0.0889530
2064.58, 0.0889530
2065.4, 0.0889530
2066.22, 0.0887040
2067.05, 0.0884550
2067.87, 0.0882560
2068.7, 0.0882060
2069.52, 0.0881070
2070.35, 0.0881560
2071.18, 0.0879570
2072.0, 0.0877080
2072.83, 0.0874600
2073.66, 0.0873100
2074.49, 0.0870610
2075.32, 0.0870120
2076.15, 0.0869620
2076.98, 0.0868120
2077.82, 0.0865140
2078.65, 0.0864140
2079.48, 0.0863150
2080.32, 0.0863150
2081.15, 0.0862150
2081.99, 0.0861650
2082.83, 0.0858170
2083.66, 0.0856180
2084.5, 0.0852690
2085.34, 0.0850700
2086.18, 0.0849710
2087.02, 0.0848710
2087.86, 0.0845720
2088.7, 0.0841240
2089.54, 0.0838260
2090.39, 0.0838760
2091.23, 0.0836270
2092.07, 0.0834280
2092.92, 0.0832280
2093.76, 0.0829800
2094.61, 0.0827310
2095.45, 0.0824820
2096.3, 0.0822330
2097.15, 0.0819340
2098.0, 0.0815360
2098.85, 0.0812870
2099.7, 0.0809880
2100.55, 0.0807890
2101.4, 0.0804410
2102.25, 0.0801920
2103.1, 0.0798930
2103.96, 0.0796440
2104.81, 0.0791470
2105.67, 0.0788480
2106.52, 0.0785490
2107.38, 0.0782510
2108.24, 0.0779020
2109.09, 0.0775040
2109.95, 0.0769560
2110.81, 0.0766080
2111.67, 0.0761600
2112.53, 0.0756620
2113.39, 0.0752140
2114.25, 0.0748160
2115.12, 0.0742680
2115.98, 0.0739200
2116.84, 0.0736210
2117.71, 0.0734220
2118.58, 0.0730240
2119.44, 0.0726760
2120.31, 0.0723770
2121.18, 0.0722280
2122.04, 0.0720280
2122.91, 0.0719790
2123.78, 0.0719290
2124.65, 0.0721280
2125.52, 0.0721280
2126.4, 0.0722770
2127.27, 0.0722770
2128.14, 0.0726260
2129.02, 0.0730240
2129.89, 0.0732230
2130.77, 0.0733230
2131.64, 0.0737710
2132.52, 0.0741190
2133.4, 0.0743680
2134.27, 0.0746670
2135.15, 0.0750150
2136.03, 0.0752140
2136.91, 0.0756120
2137.79, 0.0758610
2138.68, 0.0761100
2139.56, 0.0761600
2140.44, 0.0762600
2141.33, 0.0763090
2142.21, 0.0764590
2143.1, 0.0764590
2143.99, 0.0765080
2144.87, 0.0763590
2145.76, 0.0763090
2146.65, 0.0760600
2147.54, 0.0760110
2148.43, 0.0759610
2149.32, 0.0757120
2150.21, 0.0753140
2151.1, 0.0751640
2151.99, 0.0750150
2152.89, 0.0747660
2153.78, 0.0745170
2154.68, 0.0744180
2155.57, 0.0741690
2156.47, 0.0737710
2157.37, 0.0735220
2158.27, 0.0734220
2159.16, 0.0732230
2160.06, 0.0729240
2160.96, 0.0727250
2161.86, 0.0726260
2162.77, 0.0723270
2163.67, 0.0722770
2164.57, 0.0721780
2165.48, 0.0722280
2166.38, 0.0720780
2167.29, 0.0719290
2168.2, 0.0718290
2169.1, 0.0718790
2170.01, 0.0718290
2170.92, 0.0719290
2171.83, 0.0717800
2172.74, 0.0717300
2173.65, 0.0717300
2174.56, 0.0720780
2175.47, 0.0722770
2176.39, 0.0723270
2177.3, 0.0723770
2178.22, 0.0724760
2179.13, 0.0727750
2180.05, 0.0730740
2180.96, 0.0733720
2181.88, 0.0737710
2182.8, 0.0742190
2183.72, 0.0748660
2184.64, 0.0753140
2185.56, 0.0758610
2186.48, 0.0764090
2187.41, 0.0770560
2188.33, 0.0776040
2189.25, 0.0783500
2190.18, 0.0789480
2191.1, 0.0795950
2192.03, 0.0802420
2192.96, 0.0808890
2193.89, 0.0812370
2194.82, 0.0818350
2195.74, 0.0824820
2196.68, 0.0830790
2197.61, 0.0834280
2198.54, 0.0839750
2199.47, 0.0843240
2200.4, 0.0848210
2201.34, 0.0852690
2202.28, 0.0856180
2203.21, 0.0858670
2204.15, 0.0863150
2205.08, 0.0867130
2206.02, 0.0871610
2206.96, 0.0875090
2207.9, 0.0879570
2208.84, 0.0883060
2209.78, 0.0886040
2210.73, 0.0889030
2211.67, 0.0893510
2212.61, 0.0896500
2213.56, 0.0899480
2214.5, 0.0901970
2215.45, 0.0905460
2216.4, 0.0908440
2217.35, 0.0910440
2218.3, 0.0911930
2219.24, 0.0915910
2220.2, 0.0917400
2221.15, 0.0919400
2222.1, 0.0921390
2223.05, 0.0924370
2224.0, 0.0926360
2224.96, 0.0927860
2225.91, 0.0930840
2226.87, 0.0932840
2227.83, 0.0932840
2228.79, 0.0934330
2229.74, 0.0934330
2230.7, 0.0935320
2231.66, 0.0933830
2232.63, 0.0933830
2233.59, 0.0934330
2234.55, 0.0936320
2235.51, 0.0937320
2236.48, 0.0937320
2237.44, 0.0936820
2238.41, 0.0938310
2239.38, 0.0938310
2240.34, 0.0939310
2241.31, 0.0942790
2242.28, 0.0946280
2243.25, 0.0948270
2244.22, 0.0951620
2245.19, 0.0957210
2246.17, 0.0960560
2247.14, 0.0961680
2248.12, 0.0965030
2249.09, 0.0970250
2250.07, 0.0975840
2251.04, 0.0981430
2252.02, 0.0986640
2253.0, 0.0992610
2253.98, 0.0997820
2254.96, 0.100229
2255.94, 0.100826
2256.92, 0.101422
2257.91, 0.102130
2258.89, 0.102689
2259.88, 0.103285
2260.86, 0.103806
2261.85, 0.104142
2262.83, 0.104663
2263.82, 0.105297
2264.81, 0.105856
2265.8, 0.106154
2266.79, 0.106154
2267.78, 0.106415
2268.78, 0.106862
2269.77, 0.107197
2270.76, 0.107383
2271.76, 0.107458
2272.75, 0.107644
2273.75, 0.107868
2274.75, 0.108054
2275.75, 0.108352
2276.75, 0.108613
2277.75, 0.108799
2278.75, 0.108836
2279.75, 0.109023
2280.75, 0.109284
2281.76, 0.109433
2282.76, 0.109284
2283.77, 0.109321
2284.77, 0.109656
2285.78, 0.109768
2286.79, 0.109619
2287.8, 0.109619
2288.81, 0.109693
2289.82, 0.109805
2290.83, 0.109880
2291.84, 0.109992
2292.86, 0.110066
2293.87, 0.109992
2294.89, 0.109731
2295.91, 0.109805
2296.92, 0.109842
2297.94, 0.109582
2298.96, 0.109358
2299.98, 0.109321
2301.0, 0.109097
2302.02, 0.108836
2303.04, 0.108613
2304.07, 0.108576
2305.09, 0.108501
2306.12, 0.108389
2307.15, 0.108315
2308.17, 0.108203
2309.2, 0.107979
2310.23, 0.107607
2311.26, 0.107309
2312.29, 0.106936
2313.32, 0.106526
2314.35, 0.106377
2315.39, 0.106079
2316.42, 0.105632
2317.46, 0.105259
2318.5, 0.104999
2319.53, 0.104738
2320.57, 0.104552
2321.61, 0.104552
2322.65, 0.104589
2323.69, 0.104850
2324.73, 0.104812
2325.78, 0.104514
2326.82, 0.104291
2327.86, 0.104142
2328.91, 0.103918
2329.96, 0.103657
2331.01, 0.103471
2332.05, 0.103359
2333.1, 0.103396
2334.15, 0.103136
2335.21, 0.102726
2336.26, 0.102540
2337.31, 0.102167
2338.36, 0.101832
2339.42, 0.101645
2340.48, 0.101496
2341.53, 0.101384
2342.59, 0.101086
2343.65, 0.100565
2344.71, 0.0999310
2345.77, 0.0992610
2346.83, 0.0989250
2347.9, 0.0987020
2348.96, 0.0982550
2350.02, 0.0979570
2351.09, 0.0976210
2352.16, 0.0970620
2353.23, 0.0964660
2354.29, 0.0959440
2355.36, 0.0955350
2356.43, 0.0948270
2357.51, 0.0941560
2358.58, 0.0937460
2359.65, 0.0933740
2360.73, 0.0930380
2361.8, 0.0924790
2362.88, 0.0920320
2363.96, 0.0913620
2365.03, 0.0908030
2366.11, 0.0903930
2367.19, 0.0898710
2368.27, 0.0893490
2369.36, 0.0887910
2370.44, 0.0881570
2371.53, 0.0875980
2372.61, 0.0870390
2373.7, 0.0866290
2374.78, 0.0861080
2375.87, 0.0855490
2376.96, 0.0849160
2378.05, 0.0843570
2379.14, 0.0839470
2380.24, 0.0833880
2381.33, 0.0826800
2382.42, 0.0821210
2383.52, 0.0815250
2384.61, 0.0808910
2385.71, 0.0802580
2386.81, 0.0798110
2387.91, 0.0792150
2389.01, 0.0785070
2390.11, 0.0779110
2391.22, 0.0773890
2392.32, 0.0769050
2393.42, 0.0765320
2394.53, 0.0757500
2395.64, 0.0750790
2396.74, 0.0746690
2397.85, 0.0740360
2398.96, 0.0735140
2400.07, 0.0731790
2401.18, 0.0727690
2402.3, 0.0723960
2403.41, 0.0718750
2404.52, 0.0714270
2405.64, 0.0711670
2406.76, 0.0708310
2407.88, 0.0704590
2408.99, 0.0700860
2410.11, 0.0696020
2411.23, 0.0691170
2412.36, 0.0687820
2413.48, 0.0684840
2414.6, 0.0681860
2415.73, 0.0677760
2416.85, 0.0672920
2417.98, 0.0668070
2419.11, 0.0664350
2420.24, 0.0661740
2421.37, 0.0658760
2422.5, 0.0654290
2423.64, 0.0649810
2424.77, 0.0647210
2425.9, 0.0643850
2427.04, 0.0640500
2428.18, 0.0637890
2429.31, 0.0634540
2430.45, 0.0631560
2431.59, 0.0628950
2432.73, 0.0625970
2433.88, 0.0622990
2435.02, 0.0619260
2436.16, 0.0617400
2437.31, 0.0617770
2438.45, 0.0614790
2439.6, 0.0609950
2440.75, 0.0605470
2441.9, 0.0599890
2443.05, 0.0596530
2444.2, 0.0593180
2445.35, 0.0590200
2446.51, 0.0586100
2447.67, 0.0580880
2448.82, 0.0575670
2449.98, 0.0570820
2451.14, 0.0567470
2452.3, 0.0563370
2453.46, 0.0559270
2454.62, 0.0556290
2455.78, 0.0552190
2456.94, 0.0546600
2458.11, 0.0543250
2459.28, 0.0541390
2460.44, 0.0538030
2461.61, 0.0533940
2462.78, 0.0530210
2463.95, 0.0527600
2465.12, 0.0524620
2466.3, 0.0522010
2467.47, 0.0519030
2468.65, 0.0517540
2469.82, 0.0515680
2471.0, 0.0511950
2472.18, 0.0510830
2473.36, 0.0511210
2474.54, 0.0510090
2475.72, 0.0509720
2476.9, 0.0508970
2478.08, 0.0508230
2479.27, 0.0506740
2480.46, 0.0506740
2481.64, 0.0504500
2482.83, 0.0502640
2484.02, 0.0503010
2485.21, 0.0504130
2486.4, 0.0503760
2487.6, 0.0504130
2488.79, 0.0504500
2489.99, 0.0505250
2491.18, 0.0504130
2492.38, 0.0503760
2493.58, 0.0503760
2494.78, 0.0505250
2495.98, 0.0507480
2497.18, 0.0507850
2498.39, 0.0507110
2499.59, 0.0507480
2500.8, 0.0509720
2502.01, 0.0510460
2503.21, 0.0510460
2504.42, 0.0513440
2505.63, 0.0515680
2506.84, 0.0515310
2508.06, 0.0515310
2509.27, 0.0516050
2510.49, 0.0516050
2511.7, 0.0518660
2512.92, 0.0520520
2514.14, 0.0520520
2515.36, 0.0520520
2516.58, 0.0521270
2517.8, 0.0522390
2519.03, 0.0523500
2520.25, 0.0524990
2521.48, 0.0527230
2522.7, 0.0525740
2523.93, 0.0523880
2525.16, 0.0522760
2526.39, 0.0522760
2527.62, 0.0523500
2528.86, 0.0524990
2530.09, 0.0526480
2531.33, 0.0526860
2532.56, 0.0526480
2533.8, 0.0528350
2535.04, 0.0526480
2536.28, 0.0526480
2537.52, 0.0530210
2538.76, 0.0532820
2540.01, 0.0533560
2541.25, 0.0531330
2542.5, 0.0529460
2543.75, 0.0533190
2544.99, 0.0536540
2546.24, 0.0535800
2547.49, 0.0532820
2548.75, 0.0535430
2550.0, 0.0536170
2551.26, 0.0535800
2552.51, 0.0536170
2553.77, 0.0542130
2555.03, 0.0546230
2556.29, 0.0548840
2557.55, 0.0551080
2558.81, 0.0549210
2560.08, 0.0540270
2561.34, 0.0533190
2562.61, 0.0533560
2563.88, 0.0536540
2565.14, 0.0545490
2566.41, 0.0552570
2567.68, 0.0550700
2568.96, 0.0543250
2570.23, 0.0546600
2571.51, 0.0548840
2572.78, 0.0536170
2574.06, 0.0539520
2575.34, 0.0542880
2576.62, 0.0537660
2577.9, 0.0542130
2579.18, 0.0543250
2580.47, 0.0533940
2581.75, 0.0530210
2583.04, 0.0517170
2584.32, 0.0517910
2585.61, 0.0525370
2586.9, 0.0518290
2588.2, 0.0519400
2589.49, 0.0523880
2590.78, 0.0527230
2592.08, 0.0521640
2593.37, 0.0492200
2594.67, 0.0469100
2595.97, 0.0492200
2597.27, 0.0516420
2598.57, 0.0523500
2599.88, 0.0521270
2601.18, 0.0517170
2602.49, 0.0513440
2603.79, 0.0501890
2605.1, 0.0487730
2606.41, 0.0496300
2607.72, 0.0505620
2609.03, 0.0505990
2610.35, 0.0508970
2611.66, 0.0509720
2612.98, 0.0505250
2614.3, 0.0503380
2615.62, 0.0489970
2616.94, 0.0480650
2618.26, 0.0487360
2619.58, 0.0477300
2620.91, 0.0479160
2622.23, 0.0491090
2623.56, 0.0490710
2624.89, 0.0482140
2626.22, 0.0466870
2627.55, 0.0469850
2628.88, 0.0463140
2630.21, 0.0447490
2631.55, 0.0455690
2632.89, 0.0458300
2634.22, 0.0455690
2635.56, 0.0458670
2636.9, 0.0456060
2638.25, 0.0451220
2639.59, 0.0448240
2640.93, 0.0444140
2642.28, 0.0438920
2643.63, 0.0434450
2644.98, 0.0424760
2646.33, 0.0421410
2647.68, 0.0420670
2649.03, 0.0418800
2650.39, 0.0413960
2651.74, 0.0403900
2653.1, 0.0398680
2654.46, 0.0395700
2655.82, 0.0391230
2657.18, 0.0391230
2658.54, 0.0383780
2659.9, 0.0378190
2661.27, 0.0375580
2662.64, 0.0369990
2664.01, 0.0353600
2665.38, 0.0340560
2666.74, 0.0339810
2668.12, 0.0345030
2669.49, 0.0327890
2670.87, 0.0320440
2672.24, 0.0334590
2673.62, 0.0334590
2675.0, 0.0323790
2676.38, 0.0312610
2677.76, 0.0308890
2679.15, 0.0306280
2680.54, 0.0309630
2681.92, 0.0305530
2683.31, 0.0299200
2684.7, 0.0294350
2686.09, 0.0288390
2687.48, 0.0283920
2688.88, 0.0280570
2690.27, 0.0276100
2691.67, 0.0268640
2693.07, 0.0256350
2694.47, 0.0251500
2695.87, 0.0249640
2697.27, 0.0248900
2698.67, 0.0244430
2700.08, 0.0236970
2701.49, 0.0230640
2702.9, 0.0226910
2704.31, 0.0222440
2705.72, 0.0218340
2707.13, 0.0210890
2708.54, 0.0201200
2709.96, 0.0192630
2711.38, 0.0190400
2712.8, 0.0191520
2714.22, 0.0188160
2715.64, 0.0184440
2717.06, 0.0181080
2718.49, 0.0173260
2719.91, 0.0162080
2721.34, 0.0160960
2722.77, 0.0160220
2724.2, 0.0153510
2725.63, 0.0152770
2727.07, 0.0152390
2728.5, 0.0150160
2729.94, 0.0147920
2731.38, 0.0145690
2732.82, 0.0140840
2734.26, 0.0133760
2735.7, 0.0130040
2737.15, 0.0126680
2738.59, 0.0119230
2740.04, 0.0113270
2741.49, 0.0112150
2742.94, 0.0111780
2744.39, 0.0109540
2745.84, 0.0108050
2747.3, 0.0106560
2748.76, 0.0105070
2750.21, 0.0104330
2751.67, 0.0102460
2753.14, 0.00998600
2754.6, 0.00972500
2756.06, 0.00972500
2757.53, 0.00998600
2759.0, 0.00983700
2760.46, 0.00953900
2761.94, 0.00916600
2763.41, 0.00905400
2764.88, 0.00901700
2766.36, 0.00875600
2767.83, 0.00853300
2769.31, 0.00860700
2770.79, 0.00875600
2772.27, 0.00916600
2773.76, 0.00991100
2775.24, 0.0108430
2776.73, 0.0118110
2778.22, 0.0128170
2779.71, 0.0134140
2781.2, 0.0137120
2782.69, 0.0138610
2784.18, 0.0138610
2785.68, 0.0133760
2787.18, 0.0129660
2788.68, 0.0128550
2790.18, 0.0125570
2791.68, 0.0121090
2793.19, 0.0118490
2794.69, 0.0115510
2796.2, 0.0112900
2797.71, 0.0111030
2799.22, 0.0109920
2800.73, 0.0106940
2802.24, 0.0104330
2803.76, 0.0104330
2805.28, 0.0105450
2806.8, 0.0104700
2808.32, 0.0102460
2809.84, 0.0101350
2811.36, 0.0100600
2812.89, 0.00983700
2814.42, 0.00965000
2815.94, 0.00957600
2817.48, 0.00957600
2819.01, 0.00950100
2820.54, 0.00942700
2822.08, 0.00939000
2823.61, 0.00950100
2825.15, 0.00953900
2826.69, 0.00968800
2828.23, 0.00976200
2829.78, 0.00983700
2831.32, 0.00983700
2832.87, 0.00987400
2834.42, 0.00994800
2835.97, 0.0100600
2837.52, 0.0101350
2839.08, 0.0102460
2840.63, 0.0102090
2842.19, 0.0100970
2843.75, 0.0101350
2845.31, 0.0102460
2846.87, 0.0102090
2848.44, 0.0101350
2850.0, 0.0101350
2851.57, 0.0101720
2853.14, 0.0101350
2854.71, 0.0100230
2856.28, 0.00998600
2857.86, 0.0100600
2859.43, 0.0100230
2861.01, 0.0100230
2862.59, 0.0101720
2864.17, 0.0103210
2865.76, 0.0103960
2867.34, 0.0105070
2868.93, 0.0105070
2870.52, 0.0104700
2872.11, 0.0103960
2873.7, 0.0103580
2875.29, 0.0103960
2876.89, 0.0103960
2878.49, 0.0104700
2880.08, 0.0105450
2881.69, 0.0105070
2883.29, 0.0105450
2884.89, 0.0105070
2886.5, 0.0106190
2888.11, 0.0106560
2889.72, 0.0106940
2891.33, 0.0106940
2892.94, 0.0108050
2894.56, 0.0108800
2896.17, 0.0109170
2897.79, 0.0109920
2899.42, 0.0109920
2901.04, 0.0109920
2902.66, 0.0110660
2904.29, 0.0112150
2905.92, 0.0113270
2907.55, 0.0114390
2909.18, 0.0114390
2910.81, 0.0114760
2912.45, 0.0116250
2914.08, 0.0118860
2915.72, 0.0121090
2917.36, 0.0122590
2919.01, 0.0124080
2920.65, 0.0124820
2922.3, 0.0126310
2923.94, 0.0128170
2925.59, 0.0128920
2927.25, 0.0130040
2928.9, 0.0131900
2930.56, 0.0133020
2932.21, 0.0133020
2933.87, 0.0133390
2935.53, 0.0134140
2937.2, 0.0134140
2938.86, 0.0134880
2940.53, 0.0135250
2942.2, 0.0135630
2943.87, 0.0134880
2945.54, 0.0134510
2947.22, 0.0135250
2948.89, 0.0135630
2950.57, 0.0135630
2952.25, 0.0135630
2953.93, 0.0134510
2955.62, 0.0134510
2957.3, 0.0134880
2958.99, 0.0135250
2960.68, 0.0134880
2962.37, 0.0136000
2964.07, 0.0136370
2965.76, 0.0136740
2967.46, 0.0136740
2969.16, 0.0136740
2970.86, 0.0136370
2972.56, 0.0136740
2974.27, 0.0136370
2975.98, 0.0136000
2977.69, 0.0137120
2979.4, 0.0138230
2981.11, 0.0137860
2982.83, 0.0137120
2984.54, 0.0136370
2986.26, 0.0136740
2987.98, 0.0137490
2989.71, 0.0137120
2991.43, 0.0137120
2993.16, 0.0137120
2994.89, 0.0136370
2996.62, 0.0136370
2998.35, 0.0137120
3000.09, 0.0137490
3001.83, 0.0137860
3003.57, 0.0137860
3005.31, 0.0137860
3007.05, 0.0137860
3008.79, 0.0137860
3010.54, 0.0138230
3012.29, 0.0138230
3014.04, 0.0138980
3015.8, 0.0140100
3017.55, 0.0141220
3019.31, 0.0141590
3021.07, 0.0141590
3022.83, 0.0142710
3024.59, 0.0144200
3026.36, 0.0143450
3028.13, 0.0143080
3029.9, 0.0143450
3031.67, 0.0144940
3033.44, 0.0146060
3035.22, 0.0146430
3037.0, 0.0146430
3038.78, 0.0147180
3040.56, 0.0147920
3042.34, 0.0148290
3044.13, 0.0148290
3045.92, 0.0148670
3047.71, 0.0149410
3049.5, 0.0149410
3051.3, 0.0149040
3053.09, 0.0149790
3054.89, 0.0150530
3056.69, 0.0150530
3058.5, 0.0151280
3060.3, 0.0152020
3062.11, 0.0152020
3063.92, 0.0152020
3065.73, 0.0152390
3067.55, 0.0152390
3069.36, 0.0152020
3071.18, 0.0151280
3073.0, 0.0152020
3074.82, 0.0153510
3076.65, 0.0153140
3078.48, 0.0153510
3080.31, 0.0154630
3082.14, 0.0155000
3083.97, 0.0155370
3085.8, 0.0156120
3087.64, 0.0157240
3089.48, 0.0157980
3091.33, 0.0158730
3093.17, 0.0159470
3095.02, 0.0160960
3096.87, 0.0161340
3098.72, 0.0161340
3100.57, 0.0162080
3102.43, 0.0163940
3104.28, 0.0165430
3106.14, 0.0165430
3108.01, 0.0165810
3109.87, 0.0166550
3111.74, 0.0166550
3113.61, 0.0166920
3115.48, 0.0168420
3117.35, 0.0169160
3119.23, 0.0169530
3121.1, 0.0169530
3122.98, 0.0170280
3124.87, 0.0170280
3126.75, 0.0170280
3128.64, 0.0169910
3130.53, 0.0170650
3132.42, 0.0171400
3134.31, 0.0171770
3136.21, 0.0172140
3138.11, 0.0171770
3140.01, 0.0171770
3141.91, 0.0171770
3143.82, 0.0171400
3145.73, 0.0170650
3147.64, 0.0170280
3149.55, 0.0171020
3151.46, 0.0171400
3153.38, 0.0171400
3155.3, 0.0171770
3157.22, 0.0171770
3159.14, 0.0171770
3161.07, 0.0171400
3163.0, 0.0172140
3164.93, 0.0173260
3166.86, 0.0173260
3168.8, 0.0172890
3170.74, 0.0173630
3172.68, 0.0175120
3174.62, 0.0174750
3176.56, 0.0175120
3178.51, 0.0176610
3180.46, 0.0177360
3182.42, 0.0177730
3184.37, 0.0178480
3186.33, 0.0180710
3188.29, 0.0182570
3190.25, 0.0183320
3192.21, 0.0183690
3194.18, 0.0186670
3196.15, 0.0188540
3198.12, 0.0189280
3200.09, 0.0190770
3202.07, 0.0192630
3204.05, 0.0194500
3206.03, 0.0195240
3208.02, 0.0195610
3210.0, 0.0196730
3211.99, 0.0197850
3213.98, 0.0198970
3215.98, 0.0199340
3217.97, 0.0198970
3219.97, 0.0199710
3221.97, 0.0200460
3223.98, 0.0201200
3225.98, 0.0201580
3227.99, 0.0200460
3230.0, 0.0200460
3232.02, 0.0201950
3234.03, 0.0202690
3236.05, 0.0201950
3238.07, 0.0201950
3240.1, 0.0202320
3242.12, 0.0202320
3244.15, 0.0202690
3246.18, 0.0202320
3248.22, 0.0202320
3250.25, 0.0203070
3252.29, 0.0203440
3254.33, 0.0202690
3256.38, 0.0203440
3258.43, 0.0203810
3260.47, 0.0203440
3262.53, 0.0203440
3264.58, 0.0203810
3266.64, 0.0204560
3268.7, 0.0204180
3270.76, 0.0203440
3272.82, 0.0202690
3274.89, 0.0202690
3276.96, 0.0203070
3279.04, 0.0202320
3281.11, 0.0201950
3283.19, 0.0202320
3285.27, 0.0203810
3287.35, 0.0204180
3289.44, 0.0203440
3291.53, 0.0203070
3293.62, 0.0203070
3295.71, 0.0203070
3297.81, 0.0203810
3299.91, 0.0204560
3302.01, 0.0204930
3304.11, 0.0204180
3306.22, 0.0203810
3308.33, 0.0203810
3310.44, 0.0204930
3312.56, 0.0204930
3314.68, 0.0204930
3316.8, 0.0204930
3318.92, 0.0205300
3321.05, 0.0205300
3323.18, 0.0204180
3325.31, 0.0204180
3327.44, 0.0204930
3329.58, 0.0204930
3331.72, 0.0205680
3333.86, 0.0205680
3336.01, 0.0205680
3338.16, 0.0206420
3340.31, 0.0206790
3342.46, 0.0206790
3344.61, 0.0206790
3346.77, 0.0207170
3348.94, 0.0207170
3351.1, 0.0206420
3353.27, 0.0206050
3355.44, 0.0206420
3357.61, 0.0206790
3359.79, 0.0206790
3361.97, 0.0206790
3364.15, 0.0206790
3366.33, 0.0206420
3368.52, 0.0206050
3370.71, 0.0206050
3372.9, 0.0206790
3375.1, 0.0207540
3377.3, 0.0207540
3379.5, 0.0207170
3381.71, 0.0207170
3383.91, 0.0207540
3386.12, 0.0208280
3388.34, 0.0209030
3390.55, 0.0209030
3392.77, 0.0208660
3394.99, 0.0209030
3397.22, 0.0209030
3399.45, 0.0208660
3401.68, 0.0209030
3403.91, 0.0209030
3406.15, 0.0209030
3408.39, 0.0208660
3410.63, 0.0209030
3412.87, 0.0209400
3415.12, 0.0210520
3417.37, 0.0210520
3419.63, 0.0210150
3421.88, 0.0209770
3424.14, 0.0210520
3426.41, 0.0210890
3428.67, 0.0210520
3430.94, 0.0211260
3433.21, 0.0211260
3435.49, 0.0210890
3437.77, 0.0211640
3440.05, 0.0211260
3442.33, 0.0210890
3444.62, 0.0211640
3446.91, 0.0211640
3449.2, 0.0212380
3451.5, 0.0213130
3453.8, 0.0212750
3456.1, 0.0212380
3458.41, 0.0212750
3460.72, 0.0213500
3463.03, 0.0213130
3465.34, 0.0212750
3467.66, 0.0213500
3469.98, 0.0214240
3472.31, 0.0214620
3474.63, 0.0214990
3476.96, 0.0214620
3479.3, 0.0213870
3481.64, 0.0213500
3483.97, 0.0213870
3486.32, 0.0214240
3488.66, 0.0214990
3491.01, 0.0214990
3493.36, 0.0214990
3495.72, 0.0214990
3498.08, 0.0215740
3500.44, 0.0215740
3502.81, 0.0215740
3505.18, 0.0215360
3507.55, 0.0215360
3509.92, 0.0215360
3512.3, 0.0215740
3514.68, 0.0216110
3517.06, 0.0216850
3519.45, 0.0217230
3521.84, 0.0217600
3524.24, 0.0217970
3526.64, 0.0217970
3529.04, 0.0217970
3531.44, 0.0218340
3533.85, 0.0217600
3536.26, 0.0217970
3538.67, 0.0218340
3541.09, 0.0217970
3543.51, 0.0217230
3545.93, 0.0217600
3548.36, 0.0218340
3550.79, 0.0218720
3553.22, 0.0219460
3555.66, 0.0219460
3558.1, 0.0219460
3560.54, 0.0219460
3562.99, 0.0219460
3565.44, 0.0220210
3567.9, 0.0221320
3570.35, 0.0221700
3572.81, 0.0221320
3575.28, 0.0221320
3577.75, 0.0222070
3580.22, 0.0222440
3582.69, 0.0222810
3585.17, 0.0222810
3587.65, 0.0222440
3590.14, 0.0223190
3592.62, 0.0223930
3595.11, 0.0223560
3597.61, 0.0223190
3600.11, 0.0223190
3602.61, 0.0223560
3605.11, 0.0224680
3607.62, 0.0225420
3610.14, 0.0225800
3612.65, 0.0225420
3615.17, 0.0224680
3617.69, 0.0225050
3620.22, 0.0225800
3622.75, 0.0226170
3625.28, 0.0226540
3627.82, 0.0226910
3630.36, 0.0226540
3632.9, 0.0226170
3635.45, 0.0226910
3638.0, 0.0227290
3640.56, 0.0227660
3643.12, 0.0227660
3645.68, 0.0227660
3648.24, 0.0228400
3650.81, 0.0229150
3653.39, 0.0229150
3655.96, 0.0228780
3658.54, 0.0228780
3661.13, 0.0228780
3663.71, 0.0229150
3666.3, 0.0229520
3668.9, 0.0229890
3671.5, 0.0229150
3674.1, 0.0228400
3676.7, 0.0229150
3679.31, 0.0229520
3681.93, 0.0229520
3684.54, 0.0228400
3687.17, 0.0227660
3689.79, 0.0228780
3692.42, 0.0228780
3695.05, 0.0228400
3697.69, 0.0228780
3700.32, 0.0228780
3702.97, 0.0228400
3705.61, 0.0227660
3708.27, 0.0228030
3710.92, 0.0227660
3713.58, 0.0227290
3716.24, 0.0226910
3718.91, 0.0227290
3721.58, 0.0227290
3724.25, 0.0226540
3726.93, 0.0226170
3729.61, 0.0226540
3732.29, 0.0226170
3734.98, 0.0225800
3737.67, 0.0225050
3740.37, 0.0224680
3743.07, 0.0225420
3745.78, 0.0225420
3748.49, 0.0224680
3751.2, 0.0224680
3753.91, 0.0224680
3756.63, 0.0225050
3759.36, 0.0224680
3762.09, 0.0224680
3764.82, 0.0224310
3767.55, 0.0224310
3770.29, 0.0224310
3773.04, 0.0223560
3775.78, 0.0223930
3778.54, 0.0224680
3781.29, 0.0224680
3784.05, 0.0224680
3786.82, 0.0224680
3789.59, 0.0224310
3792.36, 0.0223560
3795.13, 0.0223560
3797.92, 0.0224310
3800.7, 0.0224310
3803.49, 0.0223190
3806.28, 0.0222440
3809.08, 0.0222810
3811.88, 0.0223190
3814.68, 0.0222440
3817.49, 0.0223190
3820.31, 0.0223190
3823.12, 0.0222440
3825.94, 0.0222440
3828.77, 0.0222810
3831.6, 0.0222810
3834.43, 0.0222070
3837.27, 0.0222070
3840.11, 0.0222440
3842.96, 0.0222440
3845.81, 0.0222810
3848.67, 0.0222810
3851.53, 0.0222810
3854.39, 0.0222440
3857.26, 0.0222440
3860.13, 0.0223190
3863.01, 0.0223190
3865.89, 0.0223190
3868.77, 0.0223190
3871.66, 0.0222810
3874.55, 0.0222440
3877.45, 0.0222070
3880.35, 0.0221700
3883.26, 0.0221700
3886.17, 0.0221700
3889.09, 0.0221320
3892.01, 0.0220580
3894.93, 0.0220210
3897.86, 0.0219830
3900.79, 0.0219090
3903.73, 0.0217600
3906.67, 0.0217230
3909.62, 0.0216480
3912.57, 0.0215740
3915.52, 0.0215740
3918.48, 0.0215740
3921.45, 0.0214990
3924.42, 0.0213500
3927.39, 0.0213130
3930.37, 0.0213130
3933.35, 0.0212750
3936.34, 0.0212380
3939.33, 0.0211640
3942.32, 0.0211640
3945.32, 0.0210890
3948.33, 0.0209770
3951.34, 0.0210150
3954.35, 0.0210150
3957.37, 0.0209770
3960.39, 0.0209400
3963.42, 0.0209400
3966.45, 0.0208660
3969.49, 0.0208660
3972.53, 0.0209030
3975.58, 0.0208660
3978.63, 0.0208280
3981.68, 0.0208660
3984.75, 0.0209030
3987.81, 0.0209030
3990.88, 0.0207910
3993.95, 0.0207540
3997.03, 0.0207910
4000.12, 0.0208280
4003.21, 0.0209030
4006.3, 0.0209400
4009.4, 0.0208660
4012.5, 0.0208660
4015.61, 0.0208660
4018.72, 0.0209400
4021.84, 0.0209400
4024.96, 0.0209030
4028.09, 0.0209030
4031.22, 0.0209400
4034.36, 0.0209770
4037.5, 0.0210150
4040.65, 0.0210520
4043.8, 0.0210890
4046.96, 0.0210890
4050.12, 0.0210150
4053.29, 0.0210520
4056.46, 0.0211260
4059.64, 0.0212010
4062.82, 0.0212010
4066.0, 0.0212010
4069.19, 0.0212010
4072.39, 0.0212380
4075.59, 0.0212750
4078.8, 0.0212750
4082.01, 0.0213500
4085.23, 0.0213500
4088.45, 0.0213870
4091.68, 0.0213870
4094.91, 0.0213500
4098.15, 0.0213500
4101.39, 0.0213130
4104.63, 0.0213500
4107.89, 0.0213870
4111.14, 0.0213500
4114.41, 0.0213130
4117.67, 0.0213130
4120.95, 0.0213130
4124.23, 0.0213500
4127.51, 0.0213130
4130.8, 0.0212750
4134.09, 0.0212380
4137.39, 0.0212010
4140.7, 0.0212010
4144.01, 0.0211640
4147.32, 0.0210520
4150.64, 0.0209770
4153.97, 0.0209770
4157.3, 0.0209030
4160.64, 0.0207910
4163.98, 0.0207540
4167.33, 0.0207170
4170.68, 0.0206420
4174.04, 0.0205680
4177.4, 0.0204930
4180.77, 0.0204560
4184.14, 0.0204560
4187.52, 0.0203810
4190.91, 0.0202690
4194.3, 0.0202690
4197.69, 0.0203070
4201.1, 0.0202320
4204.5, 0.0201950
4207.92, 0.0201580
4211.34, 0.0201200
4214.76, 0.0200460
4218.19, 0.0198970
4221.62, 0.0198600
4225.06, 0.0198970
4228.51, 0.0198970
4231.96, 0.0198600
4235.42, 0.0199340
4238.88, 0.0199710
4242.35, 0.0201200
4245.83, 0.0202690
4249.31, 0.0204560
4252.79, 0.0206420
4256.28, 0.0208660
4259.78, 0.0208280
4263.29, 0.0206790
4266.79, 0.0205300
4270.31, 0.0205300
4273.83, 0.0205300
4277.35, 0.0204930
4280.89, 0.0204930
4284.42, 0.0205300
4287.97, 0.0205300
4291.52, 0.0205680
4295.07, 0.0206420
4298.63, 0.0206790
4302.2, 0.0207170
4305.78, 0.0207540
4309.35, 0.0207910
4312.94, 0.0208280
4316.53, 0.0208660
4320.13, 0.0209030
4323.73, 0.0209400
4327.34, 0.0209400
4330.96, 0.0209400
4334.58, 0.0209030
4338.21, 0.0209770
4341.84, 0.0210520
4345.48, 0.0210520
4349.12, 0.0210150
4352.77, 0.0209770
4356.43, 0.0209400
4360.1, 0.0209030
4363.76, 0.0208660
4367.44, 0.0208660
4371.12, 0.0209400
4374.81, 0.0209400
4378.51, 0.0208660
4382.21, 0.0209030
4385.92, 0.0208280
4389.63, 0.0207910
4393.35, 0.0207910
4397.08, 0.0207910
4400.81, 0.0207910
4404.55, 0.0207910
4408.29, 0.0207910
4412.04, 0.0207910
4415.8, 0.0207540
4419.57, 0.0206790
4423.34, 0.0207170
4427.12, 0.0206790
4430.9, 0.0206420
4434.69, 0.0206420
4438.49, 0.0206050
4442.29, 0.0205300
4446.1, 0.0205680
4449.92, 0.0204930
4453.74, 0.0204560
4457.57, 0.0204180
4461.41, 0.0203810
4465.25, 0.0204180
4469.1, 0.0204180
4472.95, 0.0204180
4476.82, 0.0204180
4480.69, 0.0203810
4484.56, 0.0203440
4488.44, 0.0202690
4492.33, 0.0202690
4496.23, 0.0202320
4500.13, 0.0201580
4504.04, 0.0201580
4507.96, 0.0201580
4511.88, 0.0201200
4515.81, 0.0200830
4519.75, 0.0200460
4523.69, 0.0200460
4527.65, 0.0199710
4531.6, 0.0199710
4535.57, 0.0200090
4539.54, 0.0200460
4543.52, 0.0200090
4547.5, 0.0199710
4551.5, 0.0200090
4555.5, 0.0200090
4559.5, 0.0199340
4563.52, 0.0199340
4567.54, 0.0199710
4571.56, 0.0200090
4575.6, 0.0200090
4579.64, 0.0199340
4583.69, 0.0199340
4587.75, 0.0199340
4591.81, 0.0199710
4595.88, 0.0199710
4599.96, 0.0199710
4604.04, 0.0199710
4608.14, 0.0199710
4612.24, 0.0199710
4616.34, 0.0200090
4620.46, 0.0200090
4624.58, 0.0200090
4628.71, 0.0200090
4632.84, 0.0199340
4636.99, 0.0199340
4641.14, 0.0200090
4645.3, 0.0200460
4649.47, 0.0200460
4653.64, 0.0200460
4657.82, 0.0200090
4662.01, 0.0200090
4666.21, 0.0199710
4670.41, 0.0199710
4674.62, 0.0200090
4678.84, 0.0200460
4683.07, 0.0200090
4687.3, 0.0200460
4691.54, 0.0200830
4695.79, 0.0200460
4700.05, 0.0200460
4704.31, 0.0200090
4708.59, 0.0199710
4712.87, 0.0200090
4717.15, 0.0199710
4721.45, 0.0199710
4725.76, 0.0200090
4730.07, 0.0200090
4734.39, 0.0200090
4738.72, 0.0199340
4743.05, 0.0199710
4747.39, 0.0200090
4751.75, 0.0200460
4756.1, 0.0200090
4760.47, 0.0200090
4764.85, 0.0200460
4769.23, 0.0200830
4773.62, 0.0200830
4778.02, 0.0201200
4782.43, 0.0200830
4786.85, 0.0200830
4791.27, 0.0200830
4795.7, 0.0201200
4800.14, 0.0201950
4804.59, 0.0201950
4809.05, 0.0201950
4813.51, 0.0202320
4817.99, 0.0202320
4822.47, 0.0202320
4826.96, 0.0202320
4831.46, 0.0202690
4835.96, 0.0203070
4840.48, 0.0202690
4845.0, 0.0202690
4849.54, 0.0203440
4854.08, 0.0203810
4858.63, 0.0204180
4863.18, 0.0203810
4867.75, 0.0203070
4872.33, 0.0202690
4876.91, 0.0202690
4881.5, 0.0203070
4886.1, 0.0203440
4890.71, 0.0203070
4895.33, 0.0202690
4899.96, 0.0202690
4904.59, 0.0202690
4909.24, 0.0202690
4913.89, 0.0202320
4918.55, 0.0202320
4923.22, 0.0201950
4927.9, 0.0201950
4932.59, 0.0201200
4937.29, 0.0201200
4942.0, 0.0201580
4946.71, 0.0201200
4951.44, 0.0201200
4956.17, 0.0200830
4960.91, 0.0200830
4965.67, 0.0200830
4970.43, 0.0200460
4975.2, 0.0200830
4979.98, 0.0200460
4984.76, 0.0200090
4989.56, 0.0200090
4994.37, 0.0200090
4999.18, 0.0200090
5004.01, 0.0200460
5008.84, 0.0200090
5013.69, 0.0199710
5018.54, 0.0198600
5023.4, 0.0198600
5028.28, 0.0198970
5033.16, 0.0198970
5038.05, 0.0198970
5042.95, 0.0198970
5047.86, 0.0198970
5052.78, 0.0199340
5057.71, 0.0198970
5062.65, 0.0198600
5067.6, 0.0198220
5072.56, 0.0198220
5077.53, 0.0198220
5082.5, 0.0197480
5087.49, 0.0198220
5092.49, 0.0198600
5097.5, 0.0198600
5102.51, 0.0198600
5107.54, 0.0197850
5112.58, 0.0197480
5117.62, 0.0197480
5122.68, 0.0197110
5127.75, 0.0196730
5132.82, 0.0196360
5137.91, 0.0195610
5143.01, 0.0194870
5148.12, 0.0194500
5153.23, 0.0194500
5158.36, 0.0194500
5163.5, 0.0194120
5168.65, 0.0193750
5173.81, 0.0193750
5178.98, 0.0193750
5184.15, 0.0192630
5189.34, 0.0191890
5194.54, 0.0190770
5199.75, 0.0190030
5204.98, 0.0189650
5210.21, 0.0188160
5215.45, 0.0187790
5220.7, 0.0188910
5225.96, 0.0188540
5231.23, 0.0187420
5236.52, 0.0186670
5241.81, 0.0186300
5247.12, 0.0186300
5252.44, 0.0186300
5257.76, 0.0185550
5263.1, 0.0184810
5268.45, 0.0184060
5273.81, 0.0183320
5279.18, 0.0182950
5284.56, 0.0182570
5289.95, 0.0181460
5295.36, 0.0181460
5300.77, 0.0181830
5306.2, 0.0181460
5311.63, 0.0181830
5317.08, 0.0181830
5322.54, 0.0180710
5328.01, 0.0180710
5333.49, 0.0180710
5338.98, 0.0180340
5344.49, 0.0178480
5350.0, 0.0176240
5355.53, 0.0177360
5361.07, 0.0178480
5366.62, 0.0178480
5372.18, 0.0177730
5377.75, 0.0177730
5383.34, 0.0177730
5388.93, 0.0177360
5394.54, 0.0176980
5400.16, 0.0176240
5405.79, 0.0175120
5411.44, 0.0174380
5417.09, 0.0171020
5422.76, 0.0168790
5428.43, 0.0172140
5434.12, 0.0172890
5439.83, 0.0171770
5445.54, 0.0171770
5451.26, 0.0171770
5457.0, 0.0170280
5462.75, 0.0167300
5468.52, 0.0168040
5474.29, 0.0168420
5480.08, 0.0166920
5485.88, 0.0167670
5491.69, 0.0168420
5497.51, 0.0168040
5503.35, 0.0166920
5509.2, 0.0166920
5515.06, 0.0166180
5520.93, 0.0165060
5526.82, 0.0165060
5532.71, 0.0165430
5538.63, 0.0165060
5544.55, 0.0163940
5550.49, 0.0162450
5556.44, 0.0161710
5562.4, 0.0162080
5568.37, 0.0161340
5574.36, 0.0158350
5580.36, 0.0156490
5586.37, 0.0159100
5592.4, 0.0159850
5598.44, 0.0158350
5604.49, 0.0157610
5610.56, 0.0156860
5616.63, 0.0155750
5622.73, 0.0155750
5628.83, 0.0154630
5634.95, 0.0150900
5641.08, 0.0146060
5647.23, 0.0147180
5653.39, 0.0147920
5659.56, 0.0149040
5665.74, 0.0149040
5671.94, 0.0146060
5678.15, 0.0144940
5684.38, 0.0145310
5690.62, 0.0143820
5696.87, 0.0143450
5703.14, 0.0141960
5709.42, 0.0138230
5715.72, 0.0138230
5722.03, 0.0139350
5728.35, 0.0138610
5734.69, 0.0137120
5741.03, 0.0135250
5747.4, 0.0133020
5753.78, 0.0133020
5760.17, 0.0127800
5766.58, 0.0122210
5773.0, 0.0125940
5779.44, 0.0127800
5785.88, 0.0127430
5792.35, 0.0126680
5798.83, 0.0124820
5805.32, 0.0123330
5811.83, 0.0119980
5818.35, 0.0113640
5824.89, 0.0111030
5831.45, 0.0113270
5838.01, 0.0115510
5844.59, 0.0115510
5851.19, 0.0114020
5857.8, 0.0111410
5864.43, 0.0109540
5871.07, 0.0108430
5877.73, 0.0101720
5884.4, 0.0101350
5891.09, 0.0102460
5897.79, 0.0101350
5904.5, 0.0105450
5911.23, 0.0105820
5917.98, 0.0104330
5924.75, 0.0102090
5931.53, 0.00961300
5938.32, 0.00931500
5945.13, 0.00976200
5951.96, 0.00983700
5958.8, 0.00972500
5965.65, 0.00935200
5972.53, 0.00931500
5979.42, 0.00942700
5986.32, 0.00939000
5993.24, 0.00961300
6000.18, 0.0100230
6007.13, 0.0100600
6014.1, 0.0100970
6021.08, 0.0103210
6028.09, 0.0104330
6035.1, 0.0103210
6042.14, 0.00961300
6049.19, 0.00905400
6056.25, 0.00979900
6063.34, 0.0100230
6070.44, 0.00965000
6077.55, 0.00979900
6084.69, 0.0101350
6091.84, 0.0100970
6099.0, 0.0100230
6106.19, 0.00968800
6113.39, 0.00946400
6120.61, 0.00991100
6127.84, 0.0102840
6135.09, 0.0102840
6142.36, 0.0103210
6149.65, 0.0103960
6156.95, 0.0103210
6164.27, 0.0104330
6171.61, 0.0105820
6178.97, 0.0102460
6186.34, 0.0100230
6193.73, 0.0104330
6201.14, 0.0106560
6208.57, 0.0105820
6216.01, 0.0105450
6223.47, 0.0105820
6230.95, 0.0105820
6238.45, 0.0105450
6245.97, 0.0105070
6253.5, 0.0104330
6261.06, 0.0103580
6268.63, 0.0102840
6276.21, 0.0102090
6283.82, 0.0101720
6291.45, 0.0101720
6299.1, 0.0100970
6306.76, 0.0100230
6314.44, 0.00998600
6322.14, 0.00991100
6329.86, 0.00979900
6337.6, 0.00935200
6345.35, 0.00905400
6353.13, 0.00935200
6360.92, 0.00939000
6368.74, 0.00909100
6376.57, 0.00909100
6384.43, 0.00909100
6392.3, 0.00905400
6400.19, 0.00879300
6408.1, 0.00797400
6416.03, 0.00771300
6423.98, 0.00816000
6431.95, 0.00827200
6439.94, 0.00834600
6447.95, 0.00830900
6455.98, 0.00819700
6464.03, 0.00801100
6472.1, 0.00771300
6480.19, 0.00741500
6488.31, 0.00704200
6496.44, 0.00693000
6504.59, 0.00722800
6512.76, 0.00726600
6520.95, 0.00704200
6529.16, 0.00707900
6537.4, 0.00700500
6545.65, 0.00678100
6553.92, 0.00652000
6562.22, 0.00637100
6570.54, 0.00611100
6578.88, 0.00611100
6587.23, 0.00603600
6595.61, 0.00599900
6604.02, 0.00596200
6612.44, 0.00585000
6620.89, 0.00573800
6629.35, 0.00529100
6637.84, 0.00499300
6646.35, 0.00521600
6654.88, 0.00536500
6663.44, 0.00532800
6672.01, 0.00521600
6680.61, 0.00517900
6689.23, 0.00536500
6697.88, 0.00555200
6706.54, 0.00558900
6715.23, 0.00592400
6723.94, 0.00640900
6732.67, 0.00693000
6741.42, 0.00737700
6750.2, 0.00771300
6759.0, 0.00789900
6767.82, 0.00782500
6776.67, 0.00760100
6785.54, 0.00726600
6794.44, 0.00719100
6803.35, 0.00737700
6812.29, 0.00741500
6821.26, 0.00745200
6830.24, 0.00782500
6839.25, 0.00838300
6848.29, 0.00868200
6857.35, 0.00871900
6866.43, 0.00935200
6875.54, 0.0106940
6884.67, 0.0119230
6893.82, 0.0133020
6903.0, 0.0149790
6912.2, 0.0172510
6921.43, 0.0197850
6930.69, 0.0223190
6939.96, 0.0246660
6949.27, 0.0263060
6958.59, 0.0273860
6967.95, 0.0295840
6977.33, 0.0312980
6986.73, 0.0318570
6996.16, 0.0321550
7005.61, 0.0323040
7015.09, 0.0319320
7024.6, 0.0314850
7034.13, 0.0306650
7043.69, 0.0292490
7053.27, 0.0291370
7062.88, 0.0291370
7072.52, 0.0285040
7082.18, 0.0277210
7091.87, 0.0269390
7101.58, 0.0261570
7111.32, 0.0253370
7121.09, 0.0248520
7130.88, 0.0245920
7140.71, 0.0239950
7150.56, 0.0236970
7160.43, 0.0235110
7170.33, 0.0232870
7180.27, 0.0235110
7190.23, 0.0234740
7200.21, 0.0228030
7210.23, 0.0221700
7220.27, 0.0217600
7230.34, 0.0210890
7240.44, 0.0203070
7250.56, 0.0195990
7260.72, 0.0191140
7270.9, 0.0187050
7281.12, 0.0186670
7291.36, 0.0189280
7301.63, 0.0192630
7311.93, 0.0198220
7322.25, 0.0204930
7332.61, 0.0210890
7343.0, 0.0218720
7353.41, 0.0227660
7363.86, 0.0234370
7374.33, 0.0239210
7384.83, 0.0243310
7395.37, 0.0246290
7405.93, 0.0249640
7416.53, 0.0253370
7427.15, 0.0257840
7437.81, 0.0263060
7448.5, 0.0268270
7459.22, 0.0273120
7469.96, 0.0280200
7480.74, 0.0288760
7491.55, 0.0296590
7502.39, 0.0302550
7513.27, 0.0306280
7524.17, 0.0308510
7535.11, 0.0309260
7546.08, 0.0308510
7557.08, 0.0305900
7568.11, 0.0301060
7579.17, 0.0295470
7590.27, 0.0289140
7601.4, 0.0282060
7612.56, 0.0274230
7623.76, 0.0266040
7634.98, 0.0256720
7646.24, 0.0247780
7657.54, 0.0238460
7668.87, 0.0230270
7680.23, 0.0222440
7691.62, 0.0215740
7703.05, 0.0209400
7714.51, 0.0204930
7726.01, 0.0200830
7737.54, 0.0197110
7749.11, 0.0193750
7760.71, 0.0190770
7772.35, 0.0188160
7784.02, 0.0185550
7795.72, 0.0182200
7807.46, 0.0179220
7819.23, 0.0176610
7831.04, 0.0174380
7842.89, 0.0171020
7854.77, 0.0167670
7866.69, 0.0165430
7878.65, 0.0162830
7890.64, 0.0159470
7902.67, 0.0156490
7914.74, 0.0153140
7926.84, 0.0150160
7938.98, 0.0147550
7951.16, 0.0144570
7963.37, 0.0141220
7975.62, 0.0138230
7987.91, 0.0135250
8000.24, 0.0131530
8012.6, 0.0127800
8025.01, 0.0124450
8037.45, 0.0121090
8049.93, 0.0118860
8062.45, 0.0117370
8075.01, 0.0116250
8087.61, 0.0115880
8100.24, 0.0118490
8112.91, 0.0122210
8125.63, 0.0127060
8138.39, 0.0134140
8151.18, 0.0143820
8164.02, 0.0155000
8176.9, 0.0167300
8189.81, 0.0181460
8202.77, 0.0196360
8215.77, 0.0209770
8228.82, 0.0221320
8241.9, 0.0229150
8255.02, 0.0232870
8268.19, 0.0231380
8281.39, 0.0227290
8294.65, 0.0222440
8307.94, 0.0217970
8321.28, 0.0213870
8334.66, 0.0210150
8348.08, 0.0208280
8361.54, 0.0208280
8375.05, 0.0208280
8388.6, 0.0207910
8402.2, 0.0206420
8415.84, 0.0205300
8429.52, 0.0203810
8443.25, 0.0201200
8457.02, 0.0197480
8470.84, 0.0195240
8484.7, 0.0192630
8498.61, 0.0190400
8512.57, 0.0188540
8526.57, 0.0187050
8540.62, 0.0185550
8554.71, 0.0184810
8568.85, 0.0185180
8583.04, 0.0186670
8597.27, 0.0188540
8611.55, 0.0190770
8625.88, 0.0193380
8640.26, 0.0198220
8654.68, 0.0202690
8669.16, 0.0207540
8683.68, 0.0213130
8698.25, 0.0219830
8712.87, 0.0226910
8727.53, 0.0234370
8742.25, 0.0242190
8757.02, 0.0249640
8771.83, 0.0256350
8786.7, 0.0262680
8801.62, 0.0269020
8816.59, 0.0275720
8831.61, 0.0283920
8846.68, 0.0292120
8861.8, 0.0298830
8876.97, 0.0305900
8892.2, 0.0313360
8907.48, 0.0320060
8922.81, 0.0325650
8938.2, 0.0331990
8953.63, 0.0337580
8969.13, 0.0342420
8984.67, 0.0346890
9000.27, 0.0351730
9015.92, 0.0354720
9031.63, 0.0357700
9047.39, 0.0361050
9063.21, 0.0363660
9079.08, 0.0365890
9095.01, 0.0368130
9111.0, 0.0369990
9127.04, 0.0373350
9143.13, 0.0377440
9159.28, 0.0382660
9175.49, 0.0387880
9191.76, 0.0393090
9208.09, 0.0400170
9224.47, 0.0409110
9240.92, 0.0417680
9257.42, 0.0424390
9273.98, 0.0429980
9290.6, 0.0434820
9307.28, 0.0438920
9324.02, 0.0441530
9340.82, 0.0443020
9357.68, 0.0443770
9374.6, 0.0443020
9391.58, 0.0442650
9408.62, 0.0443390
9425.73, 0.0444140
9442.9, 0.0445260
9460.13, 0.0444880
9477.42, 0.0443390
9494.78, 0.0441160
9512.2, 0.0436310
9529.69, 0.0429240
9547.24, 0.0419920
9564.86, 0.0408370
9582.54, 0.0395330
9600.28, 0.0382660
9618.1, 0.0369620
9635.97, 0.0357700
9653.92, 0.0346150
9671.93, 0.0337200
9690.01, 0.0331610
9708.16, 0.0329010
9726.37, 0.0330500
9744.65, 0.0337580
9763.0, 0.0350620
9781.43, 0.0368130
9799.92, 0.0389370
9818.48, 0.0414700
9837.1, 0.0441900
9855.8, 0.0468360
9874.58, 0.0491460
9893.42, 0.0509720
9912.34, 0.0523130
9931.33, 0.0530950
9950.39, 0.0534310
9969.52, 0.0533190
9988.74, 0.0527230
10008.0, 0.0517170
10027.4, 0.0505620
10046.8, 0.0494440
10066.3, 0.0485500
10085.9, 0.0477300
10105.6, 0.0469480
10125.3, 0.0463890
10145.1, 0.0460910
10165.0, 0.0458300
10185.0, 0.0457180
10205.0, 0.0459040
10225.2, 0.0463140
10245.4, 0.0467610
10265.7, 0.0469850
10286.0, 0.0469100
10306.5, 0.0465380
10327.0, 0.0458300
10347.6, 0.0447870
10368.3, 0.0437060
10389.1, 0.0427000
10409.9, 0.0419170
10430.9, 0.0414330
10451.9, 0.0410980
10473.0, 0.0409490
10494.2, 0.0406130
10515.5, 0.0401290
10536.9, 0.0393840
10558.4, 0.0385640
10579.9, 0.0377440
10601.5, 0.0368870
10623.3, 0.0360300
10645.1, 0.0352110
10667.0, 0.0343540
10689.0, 0.0336090
10711.1, 0.0329010
10733.2, 0.0322300
10755.5, 0.0316710
10777.9, 0.0311490
10800.3, 0.0307390
10822.9, 0.0304410
10845.5, 0.0301060
10868.2, 0.0298080
10891.1, 0.0293980
10914.0, 0.0289140
10937.0, 0.0283550
10960.2, 0.0276840
10983.4, 0.0270130
11006.7, 0.0263800
11030.1, 0.0257840
11053.6, 0.0251880
11077.3, 0.0246290
11101.0, 0.0240330
11124.8, 0.0234740
11148.7, 0.0231380
11172.7, 0.0230270
11196.9, 0.0232500
11221.1, 0.0239580
11245.4, 0.0252250
11269.9, 0.0271630
11294.4, 0.0296960
11319.1, 0.0327140
11343.9, 0.0358070
11368.8, 0.0388990
11393.7, 0.0419550
11418.8, 0.0448980
11444.0, 0.0478050
11469.4, 0.0505620
11494.8, 0.0530210
11520.3, 0.0550330
11546.0, 0.0565230
11571.8, 0.0574550
11597.7, 0.0578650
11623.7, 0.0576780
11649.8, 0.0571200
11676.0, 0.0562630
11702.4, 0.0550700
11728.9, 0.0535430
11755.5, 0.0520150
11782.2, 0.0503380
11809.0, 0.0485870
11836.0, 0.0469850
11863.0, 0.0455320
11890.3, 0.0444140
11917.6, 0.0435570
11945.0, 0.0429980
11972.6, 0.0427000
12000.4, 0.0427740
12028.2, 0.0432590
12056.2, 0.0438550
12084.3, 0.0443020
12112.5, 0.0444510
12140.9, 0.0443390
12169.4, 0.0441900
12198.0, 0.0437430
12226.8, 0.0429980
12255.7, 0.0421040
12284.7, 0.0411720
12313.9, 0.0403150
12343.2, 0.0394960
12372.7, 0.0386010
12402.3, 0.0376330
12432.0, 0.0365520
12461.9, 0.0357320
12491.9, 0.0348010
12522.1, 0.0339070
12552.4, 0.0332730
12582.9, 0.0325650
12613.5, 0.0318200
12644.3, 0.0310750
12675.2, 0.0303300
12706.3, 0.0296220
12737.5, 0.0290630
12768.9, 0.0284670
12800.4, 0.0279080
12832.1, 0.0273860
12863.9, 0.0266780
12895.9, 0.0259330
12928.1, 0.0253000
12960.4, 0.0247780
12992.9, 0.0242560
13025.5, 0.0235860
13058.3, 0.0229520
13091.3, 0.0225050
13124.4, 0.0219830
13157.8, 0.0215360
13191.2, 0.0213870
13224.9, 0.0216110
13258.7, 0.0223930
13292.7, 0.0239210
13326.9, 0.0260450
13361.2, 0.0280570
13395.7, 0.0294350
13430.4, 0.0302550
13465.3, 0.0304040
13500.4, 0.0302180
13535.7, 0.0297710
13571.1, 0.0289510
13606.7, 0.0281310
13642.5, 0.0274230
13678.5, 0.0267150
13714.7, 0.0262310
13751.1, 0.0261190
13787.6, 0.0262680
13824.4, 0.0270880
13861.4, 0.0281690
13898.5, 0.0290630
13935.9, 0.0299200
13973.5, 0.0308140
14011.2, 0.0315960
14049.2, 0.0321550
14087.4, 0.0323040
14125.8, 0.0321180
14164.3, 0.0320060
14203.2, 0.0320060
14242.2, 0.0318950
14281.4, 0.0317460
14320.9, 0.0317080
14360.5, 0.0317460
14400.4, 0.0317080
14440.5, 0.0316710
14480.9, 0.0315960
14521.4, 0.0312610
14562.2, 0.0307390
14603.3, 0.0305160
14644.5, 0.0302180
14686.0, 0.0299200
14727.7, 0.0296960
14769.7, 0.0295840
14811.9, 0.0293980
14854.3, 0.0293610
14897.0, 0.0291370
14939.9, 0.0286900
14983.1, 0.0285040
15026.5, 0.0289510
15070.2, 0.0294730
15114.2, 0.0299200
15158.3, 0.0304040
15202.8, 0.0309630
15247.5, 0.0317080
15292.5, 0.0326030
15337.7, 0.0334220
15383.2, 0.0341670
15429.0, 0.0348750
15475.1, 0.0354720
15521.4, 0.0360680
15568.0, 0.0365890
15614.9, 0.0370740
15662.1, 0.0372600
15709.6, 0.0371480
15757.3, 0.0369990
15805.4, 0.0368870
15853.7, 0.0367010
15902.3, 0.0365150
15951.2, 0.0361050
16000.5, 0.0356580
16050.0, 0.0352850
16099.8, 0.0348750
16150.0, 0.0346520
16200.5, 0.0344280
16251.3, 0.0342420
16302.4, 0.0339440
16353.8, 0.0338690
16405.5, 0.0342050
16457.6, 0.0343540
16510.0, 0.0345400
16562.8, 0.0348750
16615.9, 0.0349500
16669.3, 0.0349500
16723.1, 0.0350620
16777.2, 0.0350990
16831.7, 0.0352110
16886.5, 0.0353600
16941.7, 0.0352480
16997.2, 0.0352110
17053.1, 0.0353220
17109.4, 0.0351360
17166.1, 0.0350620
17223.1, 0.0348010
17280.5, 0.0343160
17338.3, 0.0339810
17396.5, 0.0337950
17455.1, 0.0335340
17514.0, 0.0329380
17573.4, 0.0326030
17633.2, 0.0324530
17693.4, 0.0324160
17754.0, 0.0324910
17815.0, 0.0325280
17876.4, 0.0325650
17938.3, 0.0325650
18000.5, 0.0325650
18063.3, 0.0330120
18126.4, 0.0335340
18190.0, 0.0339070
18254.1, 0.0342790
18318.6, 0.0350620
18383.5, 0.0355460
18449.0, 0.0359190
18514.9, 0.0367760
18581.2, 0.0376330
18648.0, 0.0381540
18715.4, 0.0388250
18783.2, 0.0395330
18851.5, 0.0399430
18920.3, 0.0397560
18989.6, 0.0395330
19059.4, 0.0393090
19129.7, 0.0389370
19200.6, 0.0384900
19272.0, 0.0382660
19343.9, 0.0379680
19416.3, 0.0380800
19489.3, 0.0381910
19562.8, 0.0383030
19637.0, 0.0385270
19711.6, 0.0382290
19786.8, 0.0380050
19862.6, 0.0384520
19939.0, 0.0387500
20016.0, 0.0383780
20093.6, 0.0378930
20171.8, 0.0380800
20250.6, 0.0383030
20330.0, 0.0381170
20410.0, 0.0381910
20490.7, 0.0384150
20572.0, 0.0378560
20654.0, 0.0375580
20736.6, 0.0378190
20819.9, 0.0375580
20903.8, 0.0375950
20988.5, 0.0376330
21073.8, 0.0378190
21159.8, 0.0382290
21246.5, 0.0388250
21334.0, 0.0390860
21422.1, 0.0393470
21511.0, 0.0397190
21600.7, 0.0395330
21691.0, 0.0392350
21782.1, 0.0387130
21874.0, 0.0378190
21966.7, 0.0381540
22060.2, 0.0389740
22154.5, 0.0406510
22249.6, 0.0425140
22345.5, 0.0440410
22442.2, 0.0448610
22539.8, 0.0453450
22638.2, 0.0461280
22737.5, 0.0474690
22837.7, 0.0468730
22938.7, 0.0457930
23040.7, 0.0457930
23143.5, 0.0452340
23247.3, 0.0447490
23352.1, 0.0454940
23457.7, 0.0460160
23564.4, 0.0455690
23672.0, 0.0452710
23780.5, 0.0441160
23890.1, 0.0431100
24000.7, 0.0444140
24112.3, 0.0459040
24225.0, 0.0452710
24338.7, 0.0436690
24453.5, 0.0440040
