Database of Origin, USGS Spectral Database
Sample Description, See USGS database for additional info
Date Added,2017-07-03 06:06:53.033731

Data ID,USGS_pyr01          
Sample ID, pyrite_gds483.18655
Mineral Name, pyrite
Material Class,Sulfide

Wavelength
1280.99, 0.0587670
1281.3, 0.0587940
1281.62, 0.0588110
1281.94, 0.0588320
1282.25, 0.0588690
1282.57, 0.0588890
1282.89, 0.0588930
1283.21, 0.0589140
1283.52, 0.0589600
1283.84, 0.0589890
1284.16, 0.0589960
1284.48, 0.0590110
1284.8, 0.0590260
1285.11, 0.0590560
1285.43, 0.0590820
1285.75, 0.0591120
1286.07, 0.0591530
1286.39, 0.0591720
1286.71, 0.0591740
1287.03, 0.0591990
1287.35, 0.0592380
1287.67, 0.0592650
1287.99, 0.0592960
1288.31, 0.0593310
1288.63, 0.0593580
1288.95, 0.0593580
1289.27, 0.0593720
1289.59, 0.0594100
1289.91, 0.0594290
1290.23, 0.0594370
1290.55, 0.0594760
1290.88, 0.0595030
1291.2, 0.0595070
1291.52, 0.0595190
1291.84, 0.0595510
1292.16, 0.0595880
1292.48, 0.0596170
1292.81, 0.0596350
1293.13, 0.0596560
1293.45, 0.0596950
1293.77, 0.0597270
1294.1, 0.0597310
1294.42, 0.0597400
1294.74, 0.0597760
1295.07, 0.0598130
1295.39, 0.0598250
1295.71, 0.0598310
1296.04, 0.0598670
1296.36, 0.0599290
1296.69, 0.0599540
1297.01, 0.0599700
1297.34, 0.0600010
1297.66, 0.0600160
1297.98, 0.0600300
1298.31, 0.0600550
1298.64, 0.0600840
1298.96, 0.0600940
1299.29, 0.0601240
1299.61, 0.0601600
1299.94, 0.0601730
1300.26, 0.0601920
1300.59, 0.0601930
1300.92, 0.0602150
1301.24, 0.0602550
1301.57, 0.0602950
1301.9, 0.0603240
1302.22, 0.0603510
1302.55, 0.0603840
1302.88, 0.0604000
1303.21, 0.0603920
1303.53, 0.0603920
1303.86, 0.0604330
1304.19, 0.0604720
1304.52, 0.0604960
1304.85, 0.0605380
1305.17, 0.0605560
1305.5, 0.0605660
1305.83, 0.0606070
1306.16, 0.0606400
1306.49, 0.0606530
1306.82, 0.0606810
1307.15, 0.0607110
1307.48, 0.0607300
1307.81, 0.0607480
1308.14, 0.0607680
1308.47, 0.0607840
1308.8, 0.0608050
1309.13, 0.0608310
1309.46, 0.0608620
1309.79, 0.0608910
1310.12, 0.0609180
1310.45, 0.0609350
1310.79, 0.0609620
1311.12, 0.0609890
1311.45, 0.0609980
1311.78, 0.0610110
1312.11, 0.0610300
1312.44, 0.0610580
1312.78, 0.0610930
1313.11, 0.0611220
1313.44, 0.0611390
1313.77, 0.0611440
1314.11, 0.0611650
1314.44, 0.0612040
1314.77, 0.0612240
1315.11, 0.0612290
1315.44, 0.0612600
1315.78, 0.0613040
1316.11, 0.0613240
1316.44, 0.0613520
1316.78, 0.0613890
1317.11, 0.0614110
1317.45, 0.0614230
1317.78, 0.0614440
1318.12, 0.0614840
1318.45, 0.0615160
1318.79, 0.0615380
1319.12, 0.0615600
1319.46, 0.0615790
1319.8, 0.0615930
1320.13, 0.0616150
1320.47, 0.0616410
1320.8, 0.0616650
1321.14, 0.0616970
1321.48, 0.0617290
1321.81, 0.0617490
1322.15, 0.0617690
1322.49, 0.0617880
1322.83, 0.0618050
1323.16, 0.0618180
1323.5, 0.0618460
1323.84, 0.0618920
1324.18, 0.0619210
1324.52, 0.0619330
1324.85, 0.0619430
1325.19, 0.0619820
1325.53, 0.0620180
1325.87, 0.0620300
1326.21, 0.0620640
1326.55, 0.0621030
1326.89, 0.0621260
1327.23, 0.0621470
1327.57, 0.0621620
1327.91, 0.0621840
1328.25, 0.0622180
1328.59, 0.0622460
1328.93, 0.0622570
1329.27, 0.0622780
1329.61, 0.0623120
1329.95, 0.0623480
1330.29, 0.0623770
1330.64, 0.0623910
1330.98, 0.0623950
1331.32, 0.0624260
1331.66, 0.0624800
1332.0, 0.0625140
1332.34, 0.0625270
1332.69, 0.0625420
1333.03, 0.0625710
1333.37, 0.0626130
1333.72, 0.0626490
1334.06, 0.0626690
1334.4, 0.0626850
1334.75, 0.0627180
1335.09, 0.0627470
1335.43, 0.0627810
1335.78, 0.0628090
1336.12, 0.0628290
1336.47, 0.0628510
1336.81, 0.0628780
1337.16, 0.0629000
1337.5, 0.0629280
1337.85, 0.0629810
1338.19, 0.0630090
1338.54, 0.0630280
1338.88, 0.0630630
1339.23, 0.0630990
1339.58, 0.0631310
1339.92, 0.0631600
1340.27, 0.0631860
1340.61, 0.0632110
1340.96, 0.0632440
1341.31, 0.0632860
1341.66, 0.0633200
1342.0, 0.0633370
1342.35, 0.0633620
1342.7, 0.0633930
1343.05, 0.0634310
1343.39, 0.0634700
1343.74, 0.0635050
1344.09, 0.0635330
1344.44, 0.0635670
1344.79, 0.0635870
1345.14, 0.0636100
1345.48, 0.0636330
1345.83, 0.0636660
1346.18, 0.0637140
1346.53, 0.0637460
1346.88, 0.0637730
1347.23, 0.0638120
1347.58, 0.0638510
1347.93, 0.0638830
1348.28, 0.0639150
1348.64, 0.0639430
1348.99, 0.0639600
1349.34, 0.0639880
1349.69, 0.0640200
1350.04, 0.0640480
1350.39, 0.0640810
1350.74, 0.0641080
1351.1, 0.0641520
1351.45, 0.0641920
1351.8, 0.0642190
1352.15, 0.0642520
1352.51, 0.0642950
1352.86, 0.0643200
1353.21, 0.0643520
1353.56, 0.0643970
1353.92, 0.0644210
1354.27, 0.0644360
1354.63, 0.0644730
1354.98, 0.0645170
1355.33, 0.0645570
1355.69, 0.0645930
1356.04, 0.0646240
1356.4, 0.0646460
1356.75, 0.0646740
1357.11, 0.0647190
1357.46, 0.0647550
1357.82, 0.0647870
1358.18, 0.0648310
1358.53, 0.0648680
1358.89, 0.0648950
1359.24, 0.0649260
1359.6, 0.0649640
1359.96, 0.0650000
1360.31, 0.0650410
1360.67, 0.0650830
1361.03, 0.0651140
1361.39, 0.0651330
1361.74, 0.0651700
1362.1, 0.0652100
1362.46, 0.0652480
1362.82, 0.0652960
1363.18, 0.0653250
1363.53, 0.0653610
1363.89, 0.0654060
1364.25, 0.0654420
1364.61, 0.0654770
1364.97, 0.0655200
1365.33, 0.0655530
1365.69, 0.0655890
1366.05, 0.0656290
1366.41, 0.0656670
1366.77, 0.0657090
1367.13, 0.0657590
1367.49, 0.0657990
1367.85, 0.0658240
1368.21, 0.0658590
1368.57, 0.0658970
1368.93, 0.0659300
1369.3, 0.0659740
1369.66, 0.0660270
1370.02, 0.0660720
1370.38, 0.0661020
1370.74, 0.0661360
1371.11, 0.0661850
1371.47, 0.0662230
1371.83, 0.0662620
1372.19, 0.0663110
1372.56, 0.0663540
1372.92, 0.0663780
1373.29, 0.0664100
1373.65, 0.0664490
1374.01, 0.0664920
1374.38, 0.0665430
1374.74, 0.0665900
1375.11, 0.0666220
1375.47, 0.0666540
1375.84, 0.0666830
1376.2, 0.0667310
1376.57, 0.0667760
1376.93, 0.0668110
1377.3, 0.0668550
1377.67, 0.0668980
1378.03, 0.0669370
1378.4, 0.0669710
1378.76, 0.0670150
1379.13, 0.0670620
1379.5, 0.0671000
1379.87, 0.0671280
1380.23, 0.0671630
1380.6, 0.0672100
1380.97, 0.0672560
1381.34, 0.0672900
1381.7, 0.0673270
1382.07, 0.0673610
1382.44, 0.0673960
1382.81, 0.0674420
1383.18, 0.0674920
1383.55, 0.0675260
1383.92, 0.0675640
1384.29, 0.0676160
1384.66, 0.0676570
1385.03, 0.0677000
1385.4, 0.0677540
1385.77, 0.0678000
1386.14, 0.0678400
1386.51, 0.0678820
1386.88, 0.0679220
1387.25, 0.0679500
1387.62, 0.0679840
1387.99, 0.0680290
1388.36, 0.0680770
1388.74, 0.0681330
1389.11, 0.0681850
1389.48, 0.0682190
1389.85, 0.0682580
1390.23, 0.0682940
1390.6, 0.0683180
1390.97, 0.0683520
1391.35, 0.0683960
1391.72, 0.0684270
1392.09, 0.0684500
1392.47, 0.0684850
1392.84, 0.0685150
1393.21, 0.0685170
1393.59, 0.0685270
1393.96, 0.0685730
1394.34, 0.0686350
1394.71, 0.0686910
1395.09, 0.0687550
1395.46, 0.0688220
1395.84, 0.0688780
1396.22, 0.0689350
1396.59, 0.0689900
1396.97, 0.0690370
1397.35, 0.0690970
1397.72, 0.0691480
1398.1, 0.0691890
1398.48, 0.0692390
1398.85, 0.0692890
1399.23, 0.0693370
1399.61, 0.0693810
1399.99, 0.0694190
1400.37, 0.0694550
1400.74, 0.0694950
1401.12, 0.0695530
1401.5, 0.0696080
1401.88, 0.0696440
1402.26, 0.0696820
1402.64, 0.0697410
1403.02, 0.0697900
1403.4, 0.0698210
1403.78, 0.0698570
1404.16, 0.0699060
1404.54, 0.0699400
1404.92, 0.0699800
1405.3, 0.0700310
1405.68, 0.0700770
1406.06, 0.0701270
1406.44, 0.0701710
1406.83, 0.0702130
1407.21, 0.0702570
1407.59, 0.0703080
1407.97, 0.0703590
1408.35, 0.0703990
1408.74, 0.0704380
1409.12, 0.0704830
1409.5, 0.0705320
1409.89, 0.0705870
1410.27, 0.0706390
1410.65, 0.0706840
1411.04, 0.0707230
1411.42, 0.0707700
1411.81, 0.0708200
1412.19, 0.0708580
1412.58, 0.0708990
1412.96, 0.0709390
1413.35, 0.0709730
1413.73, 0.0710070
1414.12, 0.0710540
1414.5, 0.0711010
1414.89, 0.0711420
1415.28, 0.0711980
1415.66, 0.0712460
1416.05, 0.0712830
1416.44, 0.0713240
1416.82, 0.0713730
1417.21, 0.0714260
1417.6, 0.0714760
1417.98, 0.0715320
1418.37, 0.0715730
1418.76, 0.0716150
1419.15, 0.0716690
1419.54, 0.0717040
1419.93, 0.0717350
1420.32, 0.0717840
1420.71, 0.0718260
1421.09, 0.0718650
1421.48, 0.0719160
1421.88, 0.0719630
1422.27, 0.0720000
1422.66, 0.0720310
1423.05, 0.0720740
1423.44, 0.0721260
1423.83, 0.0721640
1424.22, 0.0722080
1424.61, 0.0722540
1425.0, 0.0722930
1425.39, 0.0723380
1425.78, 0.0723780
1426.18, 0.0724160
1426.57, 0.0724580
1426.96, 0.0724770
1427.36, 0.0725190
1427.75, 0.0725680
1428.14, 0.0726010
1428.54, 0.0726540
1428.93, 0.0726900
1429.32, 0.0727230
1429.72, 0.0727750
1430.11, 0.0728160
1430.51, 0.0728460
1430.9, 0.0728800
1431.3, 0.0729250
1431.69, 0.0729780
1432.09, 0.0730280
1432.48, 0.0730670
1432.88, 0.0730950
1433.28, 0.0731280
1433.67, 0.0731690
1434.07, 0.0732010
1434.46, 0.0732360
1434.86, 0.0732920
1435.26, 0.0733450
1435.66, 0.0733810
1436.05, 0.0734200
1436.45, 0.0734600
1436.85, 0.0735060
1437.25, 0.0735430
1437.65, 0.0735750
1438.05, 0.0736190
1438.44, 0.0736590
1438.84, 0.0736940
1439.24, 0.0737310
1439.64, 0.0737730
1440.04, 0.0738230
1440.44, 0.0738670
1440.84, 0.0739030
1441.24, 0.0739430
1441.65, 0.0739850
1442.05, 0.0740240
1442.45, 0.0740690
1442.85, 0.0741080
1443.25, 0.0741520
1443.65, 0.0742040
1444.05, 0.0742510
1444.46, 0.0742900
1444.86, 0.0743280
1445.26, 0.0743620
1445.67, 0.0744020
1446.07, 0.0744530
1446.47, 0.0744990
1446.88, 0.0745300
1447.28, 0.0745650
1447.68, 0.0746110
1448.09, 0.0746520
1448.49, 0.0746790
1448.9, 0.0747170
1449.3, 0.0747660
1449.71, 0.0748000
1450.11, 0.0748350
1450.52, 0.0748780
1450.93, 0.0749220
1451.33, 0.0749660
1451.74, 0.0750130
1452.14, 0.0750540
1452.55, 0.0750820
1452.96, 0.0751150
1453.36, 0.0751610
1453.77, 0.0751930
1454.18, 0.0752190
1454.59, 0.0752560
1455.0, 0.0753020
1455.41, 0.0753380
1455.81, 0.0753600
1456.22, 0.0753880
1456.63, 0.0754420
1457.04, 0.0754900
1457.45, 0.0755230
1457.86, 0.0755510
1458.27, 0.0755880
1458.68, 0.0756330
1459.09, 0.0756740
1459.5, 0.0757060
1459.91, 0.0757470
1460.32, 0.0758020
1460.74, 0.0758450
1461.15, 0.0758730
1461.56, 0.0758940
1461.97, 0.0759250
1462.39, 0.0759770
1462.8, 0.0760240
1463.21, 0.0760580
1463.62, 0.0760990
1464.04, 0.0761310
1464.45, 0.0761640
1464.86, 0.0762020
1465.28, 0.0762320
1465.69, 0.0762720
1466.11, 0.0763120
1466.52, 0.0763450
1466.94, 0.0763810
1467.35, 0.0764130
1467.77, 0.0764520
1468.18, 0.0764950
1468.6, 0.0765220
1469.02, 0.0765520
1469.43, 0.0766030
1469.85, 0.0766460
1470.27, 0.0766730
1470.68, 0.0767080
1471.1, 0.0767400
1471.52, 0.0767650
1471.94, 0.0767920
1472.35, 0.0768310
1472.77, 0.0768760
1473.19, 0.0769130
1473.61, 0.0769380
1474.03, 0.0769650
1474.45, 0.0770020
1474.87, 0.0770370
1475.29, 0.0770650
1475.71, 0.0770930
1476.13, 0.0771180
1476.55, 0.0771430
1476.97, 0.0771720
1477.39, 0.0772030
1477.81, 0.0772390
1478.23, 0.0772780
1478.65, 0.0773180
1479.07, 0.0773500
1479.5, 0.0773780
1479.92, 0.0774110
1480.34, 0.0774430
1480.76, 0.0774810
1481.19, 0.0775240
1481.61, 0.0775500
1482.03, 0.0775810
1482.46, 0.0776190
1482.88, 0.0776560
1483.31, 0.0776840
1483.73, 0.0777190
1484.16, 0.0777610
1484.58, 0.0777960
1485.01, 0.0778180
1485.43, 0.0778420
1485.86, 0.0778780
1486.28, 0.0779140
1486.71, 0.0779500
1487.14, 0.0779850
1487.56, 0.0780240
1487.99, 0.0780650
1488.42, 0.0780950
1488.84, 0.0781250
1489.27, 0.0781510
1489.7, 0.0781750
1490.13, 0.0782150
1490.56, 0.0782630
1490.98, 0.0782910
1491.41, 0.0783060
1491.84, 0.0783380
1492.27, 0.0783750
1492.7, 0.0784070
1493.13, 0.0784500
1493.56, 0.0784900
1493.99, 0.0785280
1494.42, 0.0785640
1494.85, 0.0785870
1495.29, 0.0786050
1495.72, 0.0786380
1496.15, 0.0786880
1496.58, 0.0787310
1497.01, 0.0787540
1497.44, 0.0787810
1497.88, 0.0788280
1498.31, 0.0788690
1498.74, 0.0789030
1499.18, 0.0789350
1499.61, 0.0789690
1500.04, 0.0790060
1500.48, 0.0790380
1500.91, 0.0790720
1501.35, 0.0790990
1501.78, 0.0791290
1502.22, 0.0791630
1502.65, 0.0791930
1503.09, 0.0792230
1503.53, 0.0792560
1503.96, 0.0793060
1504.4, 0.0793420
1504.83, 0.0793640
1505.27, 0.0793920
1505.71, 0.0794250
1506.15, 0.0794630
1506.58, 0.0795030
1507.02, 0.0795340
1507.46, 0.0795610
1507.9, 0.0795940
1508.34, 0.0796310
1508.78, 0.0796690
1509.21, 0.0797000
1509.66, 0.0797250
1510.09, 0.0797540
1510.53, 0.0797780
1510.97, 0.0798090
1511.42, 0.0798420
1511.86, 0.0798730
1512.3, 0.0799100
1512.74, 0.0799450
1513.18, 0.0799710
1513.62, 0.0800010
1514.06, 0.0800330
1514.51, 0.0800580
1514.95, 0.0800840
1515.39, 0.0801150
1515.83, 0.0801460
1516.28, 0.0801730
1516.72, 0.0802030
1517.16, 0.0802390
1517.61, 0.0802710
1518.05, 0.0803030
1518.5, 0.0803340
1518.94, 0.0803710
1519.39, 0.0803970
1519.83, 0.0804100
1520.28, 0.0804340
1520.73, 0.0804610
1521.17, 0.0804880
1521.62, 0.0805180
1522.07, 0.0805490
1522.51, 0.0805780
1522.96, 0.0806200
1523.41, 0.0806660
1523.85, 0.0806910
1524.3, 0.0807120
1524.75, 0.0807350
1525.2, 0.0807580
1525.65, 0.0807870
1526.1, 0.0808080
1526.55, 0.0808350
1527.0, 0.0808700
1527.45, 0.0808930
1527.9, 0.0809310
1528.35, 0.0809850
1528.8, 0.0810200
1529.25, 0.0810390
1529.7, 0.0810630
1530.15, 0.0810960
1530.6, 0.0811250
1531.05, 0.0811480
1531.51, 0.0811820
1531.96, 0.0812220
1532.41, 0.0812530
1532.87, 0.0812800
1533.32, 0.0813100
1533.77, 0.0813430
1534.23, 0.0813680
1534.68, 0.0813900
1535.14, 0.0814290
1535.59, 0.0814600
1536.05, 0.0814770
1536.5, 0.0815080
1536.96, 0.0815490
1537.41, 0.0815820
1537.87, 0.0816090
1538.32, 0.0816390
1538.78, 0.0816630
1539.24, 0.0816890
1539.7, 0.0817280
1540.15, 0.0817610
1540.61, 0.0817800
1541.07, 0.0818100
1541.53, 0.0818450
1541.98, 0.0818810
1542.44, 0.0819150
1542.9, 0.0819320
1543.36, 0.0819510
1543.82, 0.0819830
1544.28, 0.0820170
1544.74, 0.0820570
1545.2, 0.0820940
1545.66, 0.0821190
1546.12, 0.0821430
1546.59, 0.0821720
1547.05, 0.0821980
1547.51, 0.0822240
1547.97, 0.0822570
1548.43, 0.0822860
1548.9, 0.0823160
1549.36, 0.0823460
1549.82, 0.0823720
1550.29, 0.0823960
1550.75, 0.0824270
1551.21, 0.0824640
1551.68, 0.0825010
1552.14, 0.0825310
1552.61, 0.0825510
1553.07, 0.0825830
1553.54, 0.0826190
1554.0, 0.0826360
1554.47, 0.0826560
1554.93, 0.0826850
1555.4, 0.0827060
1555.87, 0.0827260
1556.34, 0.0827520
1556.8, 0.0827760
1557.27, 0.0827980
1557.74, 0.0828210
1558.21, 0.0828470
1558.68, 0.0828760
1559.14, 0.0829080
1559.61, 0.0829270
1560.08, 0.0829370
1560.55, 0.0829590
1561.02, 0.0829940
1561.49, 0.0830340
1561.96, 0.0830600
1562.43, 0.0830820
1562.9, 0.0831190
1563.38, 0.0831440
1563.85, 0.0831600
1564.32, 0.0831850
1564.79, 0.0832150
1565.26, 0.0832460
1565.74, 0.0832750
1566.21, 0.0832940
1566.68, 0.0833170
1567.16, 0.0833520
1567.63, 0.0833790
1568.1, 0.0833990
1568.58, 0.0834230
1569.05, 0.0834400
1569.53, 0.0834570
1570.0, 0.0834840
1570.48, 0.0835090
1570.96, 0.0835300
1571.43, 0.0835470
1571.91, 0.0835640
1572.39, 0.0835850
1572.86, 0.0836140
1573.34, 0.0836430
1573.82, 0.0836600
1574.3, 0.0836770
1574.77, 0.0837010
1575.25, 0.0837240
1575.73, 0.0837470
1576.21, 0.0837760
1576.69, 0.0837960
1577.17, 0.0838110
1577.65, 0.0838330
1578.13, 0.0838600
1578.61, 0.0838870
1579.09, 0.0839180
1579.57, 0.0839430
1580.05, 0.0839600
1580.54, 0.0839790
1581.02, 0.0839990
1581.5, 0.0840100
1581.98, 0.0840210
1582.47, 0.0840440
1582.95, 0.0840710
1583.43, 0.0840960
1583.92, 0.0841040
1584.4, 0.0841210
1584.88, 0.0841430
1585.37, 0.0841600
1585.85, 0.0841770
1586.34, 0.0841960
1586.82, 0.0842220
1587.31, 0.0842470
1587.8, 0.0842590
1588.28, 0.0842690
1588.77, 0.0842950
1589.26, 0.0843250
1589.74, 0.0843470
1590.23, 0.0843590
1590.72, 0.0843750
1591.21, 0.0844030
1591.7, 0.0844290
1592.19, 0.0844440
1592.67, 0.0844560
1593.16, 0.0844710
1593.65, 0.0844880
1594.14, 0.0845030
1594.63, 0.0845220
1595.12, 0.0845450
1595.61, 0.0845640
1596.11, 0.0845810
1596.6, 0.0846060
1597.09, 0.0846260
1597.58, 0.0846300
1598.08, 0.0846420
1598.57, 0.0846680
1599.06, 0.0846890
1599.55, 0.0847060
1600.05, 0.0847260
1600.54, 0.0847430
1601.04, 0.0847540
1601.53, 0.0847650
1602.03, 0.0847850
1602.52, 0.0848080
1603.02, 0.0848370
1603.51, 0.0848690
1604.01, 0.0848850
1604.5, 0.0848940
1605.0, 0.0849050
1605.5, 0.0849230
1606.0, 0.0849430
1606.49, 0.0849600
1606.99, 0.0849750
1607.49, 0.0849910
1607.99, 0.0850100
1608.49, 0.0850270
1608.99, 0.0850410
1609.49, 0.0850540
1609.99, 0.0850690
1610.49, 0.0850890
1610.99, 0.0851150
1611.49, 0.0851310
1611.99, 0.0851410
1612.49, 0.0851610
1612.99, 0.0851840
1613.49, 0.0851970
1614.0, 0.0852190
1614.5, 0.0852460
1615.0, 0.0852670
1615.51, 0.0852860
1616.01, 0.0853000
1616.51, 0.0853160
1617.02, 0.0853370
1617.52, 0.0853580
1618.03, 0.0853750
1618.53, 0.0853870
1619.04, 0.0854030
1619.54, 0.0854200
1620.05, 0.0854360
1620.55, 0.0854480
1621.06, 0.0854650
1621.57, 0.0854780
1622.08, 0.0854850
1622.58, 0.0855030
1623.09, 0.0855230
1623.6, 0.0855320
1624.11, 0.0855360
1624.62, 0.0855510
1625.13, 0.0855710
1625.64, 0.0855930
1626.15, 0.0856060
1626.66, 0.0856140
1627.17, 0.0856390
1627.68, 0.0856670
1628.19, 0.0856820
1628.7, 0.0856930
1629.21, 0.0857000
1629.72, 0.0857060
1630.24, 0.0857170
1630.75, 0.0857340
1631.26, 0.0857540
1631.78, 0.0857710
1632.29, 0.0857820
1632.8, 0.0857910
1633.32, 0.0858040
1633.83, 0.0858280
1634.35, 0.0858480
1634.86, 0.0858560
1635.38, 0.0858610
1635.9, 0.0858720
1636.41, 0.0858870
1636.93, 0.0858950
1637.45, 0.0859030
1637.96, 0.0859110
1638.48, 0.0859130
1639.0, 0.0859240
1639.52, 0.0859430
1640.04, 0.0859650
1640.56, 0.0859810
1641.08, 0.0859930
1641.59, 0.0860060
1642.11, 0.0860230
1642.63, 0.0860340
1643.16, 0.0860300
1643.68, 0.0860340
1644.2, 0.0860500
1644.72, 0.0860590
1645.24, 0.0860680
1645.76, 0.0860720
1646.29, 0.0860880
1646.81, 0.0861090
1647.33, 0.0861070
1647.86, 0.0861100
1648.38, 0.0861290
1648.9, 0.0861470
1649.43, 0.0861570
1649.95, 0.0861650
1650.48, 0.0861800
1651.0, 0.0861890
1651.53, 0.0861960
1652.06, 0.0862140
1652.58, 0.0862340
1653.11, 0.0862430
1653.64, 0.0862460
1654.17, 0.0862500
1654.69, 0.0862600
1655.22, 0.0862710
1655.75, 0.0862770
1656.28, 0.0862890
1656.81, 0.0863010
1657.34, 0.0863070
1657.87, 0.0863190
1658.4, 0.0863330
1658.93, 0.0863400
1659.46, 0.0863460
1659.99, 0.0863600
1660.52, 0.0863750
1661.05, 0.0863780
1661.59, 0.0863900
1662.12, 0.0864040
1662.65, 0.0864110
1663.19, 0.0864200
1663.72, 0.0864250
1664.26, 0.0864250
1664.79, 0.0864220
1665.32, 0.0864250
1665.86, 0.0864320
1666.39, 0.0864330
1666.93, 0.0864380
1667.47, 0.0864520
1668.0, 0.0864670
1668.54, 0.0864710
1669.08, 0.0864700
1669.61, 0.0864700
1670.15, 0.0864750
1670.69, 0.0864800
1671.23, 0.0864870
1671.77, 0.0864940
1672.31, 0.0864970
1672.85, 0.0865070
1673.39, 0.0865180
1673.93, 0.0865240
1674.47, 0.0865340
1675.01, 0.0865320
1675.55, 0.0865260
1676.09, 0.0865330
1676.64, 0.0865430
1677.18, 0.0865500
1677.72, 0.0865550
1678.26, 0.0865550
1678.81, 0.0865530
1679.35, 0.0865560
1679.89, 0.0865600
1680.44, 0.0865620
1680.98, 0.0865720
1681.53, 0.0865880
1682.07, 0.0865960
1682.62, 0.0865950
1683.17, 0.0865950
1683.71, 0.0865950
1684.26, 0.0865990
1684.81, 0.0866070
1685.36, 0.0866120
1685.9, 0.0866190
1686.45, 0.0866310
1687.0, 0.0866330
1687.55, 0.0866230
1688.1, 0.0866150
1688.65, 0.0866120
1689.2, 0.0866150
1689.75, 0.0866180
1690.3, 0.0866120
1690.85, 0.0866050
1691.41, 0.0866070
1691.96, 0.0866250
1692.51, 0.0866390
1693.06, 0.0866430
1693.61, 0.0866490
1694.17, 0.0866520
1694.72, 0.0866500
1695.28, 0.0866510
1695.83, 0.0866550
1696.39, 0.0866580
1696.94, 0.0866560
1697.5, 0.0866460
1698.05, 0.0866360
1698.61, 0.0866340
1699.17, 0.0866440
1699.72, 0.0866500
1700.28, 0.0866440
1700.84, 0.0866370
1701.4, 0.0866310
1701.95, 0.0866260
1702.51, 0.0866300
1703.07, 0.0866280
1703.63, 0.0866200
1704.19, 0.0866100
1704.75, 0.0866040
1705.31, 0.0866020
1705.88, 0.0865940
1706.44, 0.0865850
1707.0, 0.0865790
1707.56, 0.0865750
1708.12, 0.0865680
1708.69, 0.0865580
1709.25, 0.0865470
1709.81, 0.0865480
1710.38, 0.0865490
1710.94, 0.0865330
1711.51, 0.0865160
1712.07, 0.0865110
1712.64, 0.0865060
1713.2, 0.0864970
1713.77, 0.0864880
1714.34, 0.0864810
1714.9, 0.0864800
1715.47, 0.0864700
1716.04, 0.0864570
1716.61, 0.0864520
1717.18, 0.0864380
1717.74, 0.0864200
1718.31, 0.0864050
1718.88, 0.0863880
1719.45, 0.0863830
1720.02, 0.0863820
1720.59, 0.0863690
1721.17, 0.0863590
1721.74, 0.0863560
1722.31, 0.0863450
1722.88, 0.0863310
1723.45, 0.0863220
1724.03, 0.0863090
1724.6, 0.0862930
1725.18, 0.0862790
1725.75, 0.0862670
1726.33, 0.0862530
1726.9, 0.0862430
1727.48, 0.0862240
1728.05, 0.0862020
1728.63, 0.0861880
1729.2, 0.0861730
1729.78, 0.0861640
1730.36, 0.0861550
1730.94, 0.0861390
1731.51, 0.0861130
1732.09, 0.0860830
1732.67, 0.0860680
1733.25, 0.0860610
1733.83, 0.0860490
1734.41, 0.0860440
1734.99, 0.0860400
1735.57, 0.0860230
1736.15, 0.0860080
1736.73, 0.0860050
1737.32, 0.0859880
1737.9, 0.0859650
1738.48, 0.0859520
1739.07, 0.0859350
1739.65, 0.0859170
1740.23, 0.0859070
1740.82, 0.0858960
1741.4, 0.0858810
1741.99, 0.0858540
1742.57, 0.0858350
1743.16, 0.0858220
1743.74, 0.0857930
1744.33, 0.0857700
1744.92, 0.0857570
1745.51, 0.0857450
1746.09, 0.0857400
1746.68, 0.0857290
1747.27, 0.0856960
1747.86, 0.0856610
1748.45, 0.0856400
1749.04, 0.0856200
1749.63, 0.0855980
1750.22, 0.0855780
1750.81, 0.0855590
1751.4, 0.0855420
1751.99, 0.0855260
1752.59, 0.0855020
1753.18, 0.0854820
1753.77, 0.0854600
1754.37, 0.0854280
1754.96, 0.0854020
1755.56, 0.0853770
1756.15, 0.0853510
1756.74, 0.0853290
1757.34, 0.0853090
1757.94, 0.0852940
1758.53, 0.0852770
1759.13, 0.0852510
1759.73, 0.0852240
1760.32, 0.0852000
1760.92, 0.0851750
1761.52, 0.0851520
1762.12, 0.0851210
1762.72, 0.0850870
1763.32, 0.0850620
1763.92, 0.0850360
1764.52, 0.0850090
1765.12, 0.0849810
1765.72, 0.0849560
1766.32, 0.0849330
1766.92, 0.0849050
1767.53, 0.0848830
1768.13, 0.0848700
1768.73, 0.0848480
1769.34, 0.0848170
1769.94, 0.0847760
1770.55, 0.0847350
1771.15, 0.0847060
1771.76, 0.0846810
1772.36, 0.0846440
1772.97, 0.0846080
1773.57, 0.0845820
1774.18, 0.0845560
1774.79, 0.0845280
1775.4, 0.0845020
1776.0, 0.0844760
1776.61, 0.0844510
1777.22, 0.0844280
1777.83, 0.0843950
1778.44, 0.0843590
1779.05, 0.0843300
1779.66, 0.0842960
1780.27, 0.0842580
1780.88, 0.0842270
1781.5, 0.0841940
1782.11, 0.0841550
1782.72, 0.0841200
1783.33, 0.0840840
1783.95, 0.0840510
1784.56, 0.0840190
1785.18, 0.0839820
1785.79, 0.0839490
1786.41, 0.0839180
1787.02, 0.0838840
1787.64, 0.0838550
1788.26, 0.0838280
1788.87, 0.0837990
1789.49, 0.0837700
1790.11, 0.0837370
1790.73, 0.0837020
1791.35, 0.0836660
1791.96, 0.0836290
1792.58, 0.0835950
1793.21, 0.0835650
1793.83, 0.0835310
1794.45, 0.0834980
1795.07, 0.0834690
1795.69, 0.0834300
1796.31, 0.0833860
1796.93, 0.0833430
1797.56, 0.0833070
1798.18, 0.0832780
1798.8, 0.0832480
1799.43, 0.0832110
1800.05, 0.0831720
1800.68, 0.0831350
1801.3, 0.0831000
1801.93, 0.0830640
1802.56, 0.0830300
1803.18, 0.0829920
1803.81, 0.0829530
1804.44, 0.0829160
1805.07, 0.0828750
1805.7, 0.0828270
1806.33, 0.0827720
1806.95, 0.0827250
1807.58, 0.0826910
1808.22, 0.0826570
1808.85, 0.0826110
1809.48, 0.0825700
1810.11, 0.0825310
1810.74, 0.0824860
1811.38, 0.0824450
1812.01, 0.0824070
1812.64, 0.0823680
1813.28, 0.0823300
1813.91, 0.0822900
1814.55, 0.0822480
1815.18, 0.0822040
1815.82, 0.0821600
1816.45, 0.0821190
1817.09, 0.0820850
1817.73, 0.0820440
1818.36, 0.0819950
1819.0, 0.0819470
1819.64, 0.0819010
1820.28, 0.0818610
1820.92, 0.0818170
1821.56, 0.0817680
1822.2, 0.0817260
1822.84, 0.0816940
1823.48, 0.0816590
1824.12, 0.0816250
1824.76, 0.0815870
1825.41, 0.0815410
1826.05, 0.0815030
1826.69, 0.0814750
1827.34, 0.0814350
1827.98, 0.0813860
1828.63, 0.0813320
1829.27, 0.0812830
1829.92, 0.0812410
1830.56, 0.0811940
1831.21, 0.0811440
1831.86, 0.0810960
1832.5, 0.0810520
1833.15, 0.0810160
1833.8, 0.0809730
1834.45, 0.0809270
1835.1, 0.0808880
1835.75, 0.0808390
1836.4, 0.0807870
1837.05, 0.0807430
1837.7, 0.0806950
1838.35, 0.0806520
1839.01, 0.0806020
1839.66, 0.0805570
1840.31, 0.0805220
1840.96, 0.0804720
1841.62, 0.0804260
1842.27, 0.0803890
1842.93, 0.0803400
1843.58, 0.0802930
1844.24, 0.0802570
1844.9, 0.0802180
1845.55, 0.0801740
1846.21, 0.0801320
1846.87, 0.0800940
1847.53, 0.0800590
1848.18, 0.0800120
1848.84, 0.0799580
1849.5, 0.0799060
1850.16, 0.0798570
1850.82, 0.0798070
1851.48, 0.0797560
1852.14, 0.0797060
1852.81, 0.0796560
1853.47, 0.0796090
1854.13, 0.0795660
1854.8, 0.0795190
1855.46, 0.0794610
1856.12, 0.0794090
1856.79, 0.0793660
1857.45, 0.0793230
1858.12, 0.0792730
1858.79, 0.0792210
1859.45, 0.0791810
1860.12, 0.0791470
1860.79, 0.0790980
1861.46, 0.0790380
1862.12, 0.0789820
1862.79, 0.0789350
1863.46, 0.0788920
1864.13, 0.0788570
1864.8, 0.0788160
1865.48, 0.0787580
1866.15, 0.0787020
1866.82, 0.0786570
1867.49, 0.0786180
1868.16, 0.0785790
1868.84, 0.0785250
1869.51, 0.0784740
1870.19, 0.0784360
1870.86, 0.0784000
1871.54, 0.0783630
1872.21, 0.0783100
1872.89, 0.0782630
1873.56, 0.0782200
1874.24, 0.0781680
1874.92, 0.0781120
1875.6, 0.0780590
1876.28, 0.0780070
1876.96, 0.0779580
1877.64, 0.0779160
1878.32, 0.0778700
1879.0, 0.0778280
1879.68, 0.0777840
1880.36, 0.0777360
1881.04, 0.0776850
1881.73, 0.0776360
1882.41, 0.0775890
1883.09, 0.0775390
1883.78, 0.0774890
1884.46, 0.0774430
1885.15, 0.0773920
1885.83, 0.0773440
1886.52, 0.0772920
1887.21, 0.0772330
1887.89, 0.0771810
1888.58, 0.0771320
1889.27, 0.0770830
1889.96, 0.0770440
1890.65, 0.0770050
1891.34, 0.0769520
1892.03, 0.0768980
1892.72, 0.0768500
1893.41, 0.0768090
1894.1, 0.0767700
1894.79, 0.0767280
1895.49, 0.0766900
1896.18, 0.0766480
1896.87, 0.0766080
1897.57, 0.0765610
1898.26, 0.0765090
1898.96, 0.0764640
1899.65, 0.0764220
1900.35, 0.0763700
1901.05, 0.0763130
1901.74, 0.0762570
1902.44, 0.0762010
1903.14, 0.0761470
1903.84, 0.0760990
1904.54, 0.0760540
1905.24, 0.0760060
1905.94, 0.0759600
1906.64, 0.0759130
1907.34, 0.0758610
1908.04, 0.0758180
1908.75, 0.0757800
1909.45, 0.0757360
1910.15, 0.0756860
1910.86, 0.0756360
1911.56, 0.0755910
1912.27, 0.0755490
1912.97, 0.0755020
1913.68, 0.0754610
1914.39, 0.0754250
1915.09, 0.0753800
1915.8, 0.0753330
1916.51, 0.0752840
1917.22, 0.0752400
1917.93, 0.0752020
1918.64, 0.0751610
1919.35, 0.0751140
1920.06, 0.0750630
1920.77, 0.0750190
1921.48, 0.0749710
1922.19, 0.0749170
1922.91, 0.0748690
1923.62, 0.0748190
1924.33, 0.0747720
1925.05, 0.0747270
1925.76, 0.0746760
1926.48, 0.0746260
1927.19, 0.0745740
1927.91, 0.0745220
1928.63, 0.0744840
1929.35, 0.0744430
1930.07, 0.0743920
1930.78, 0.0743480
1931.5, 0.0743040
1932.22, 0.0742610
1932.94, 0.0742230
1933.66, 0.0741800
1934.39, 0.0741330
1935.11, 0.0740880
1935.83, 0.0740430
1936.55, 0.0740040
1937.28, 0.0739690
1938.0, 0.0739230
1938.73, 0.0738840
1939.45, 0.0738510
1940.18, 0.0738070
1940.9, 0.0737620
1941.63, 0.0737220
1942.36, 0.0736800
1943.09, 0.0736400
1943.81, 0.0736020
1944.54, 0.0735560
1945.27, 0.0735090
1946.0, 0.0734680
1946.73, 0.0734270
1947.47, 0.0733840
1948.2, 0.0733440
1948.93, 0.0733060
1949.66, 0.0732660
1950.4, 0.0732280
1951.13, 0.0731940
1951.86, 0.0731580
1952.6, 0.0731200
1953.34, 0.0730810
1954.07, 0.0730430
1954.81, 0.0730030
1955.55, 0.0729600
1956.29, 0.0729170
1957.02, 0.0728790
1957.76, 0.0728440
1958.5, 0.0728090
1959.24, 0.0727700
1959.98, 0.0727260
1960.72, 0.0726790
1961.47, 0.0726420
1962.21, 0.0725990
1962.95, 0.0725490
1963.7, 0.0725030
1964.44, 0.0724630
1965.18, 0.0724210
1965.93, 0.0723810
1966.67, 0.0723420
1967.42, 0.0722960
1968.17, 0.0722460
1968.92, 0.0722070
1969.66, 0.0721670
1970.41, 0.0721270
1971.16, 0.0720900
1971.91, 0.0720480
1972.66, 0.0720090
1973.41, 0.0719760
1974.16, 0.0719410
1974.92, 0.0719050
1975.67, 0.0718710
1976.42, 0.0718340
1977.18, 0.0717980
1977.93, 0.0717700
1978.69, 0.0717390
1979.44, 0.0717010
1980.2, 0.0716620
1980.95, 0.0716360
1981.71, 0.0716200
1982.47, 0.0715880
1983.23, 0.0715530
1983.99, 0.0715220
1984.74, 0.0714920
1985.51, 0.0714660
1986.27, 0.0714350
1987.03, 0.0713990
1987.79, 0.0713700
1988.55, 0.0713550
1989.32, 0.0713370
1990.08, 0.0713180
1990.84, 0.0712980
1991.61, 0.0712770
1992.37, 0.0712530
1993.14, 0.0712260
1993.9, 0.0712030
1994.67, 0.0711850
1995.44, 0.0711640
1996.21, 0.0711440
1996.98, 0.0711300
1997.75, 0.0711150
1998.52, 0.0710950
1999.29, 0.0710790
2000.06, 0.0710640
2000.83, 0.0710450
2001.6, 0.0710300
2002.38, 0.0710160
2003.15, 0.0709960
2003.93, 0.0709820
2004.7, 0.0709720
2005.48, 0.0709550
2006.25, 0.0709420
2007.03, 0.0709360
2007.81, 0.0709270
2008.58, 0.0709150
2009.36, 0.0709080
2010.14, 0.0708980
2010.92, 0.0708850
2011.7, 0.0708820
2012.48, 0.0708770
2013.26, 0.0708590
2014.05, 0.0708480
2014.83, 0.0708420
2015.61, 0.0708240
2016.4, 0.0708090
2017.18, 0.0708030
2017.97, 0.0707960
2018.75, 0.0707900
2019.54, 0.0707780
2020.32, 0.0707650
2021.11, 0.0707520
2021.9, 0.0707370
2022.69, 0.0707290
2023.48, 0.0707220
2024.27, 0.0707090
2025.06, 0.0707020
2025.85, 0.0706960
2026.64, 0.0706900
2027.44, 0.0706920
2028.23, 0.0706920
2029.02, 0.0706920
2029.82, 0.0706870
2030.61, 0.0706760
2031.41, 0.0706730
2032.2, 0.0706700
2033.0, 0.0706520
2033.8, 0.0706360
2034.6, 0.0706260
2035.4, 0.0706210
2036.2, 0.0706190
2037.0, 0.0706110
2037.8, 0.0705980
2038.6, 0.0705940
2039.4, 0.0705960
2040.2, 0.0705890
2041.01, 0.0705830
2041.81, 0.0705810
2042.61, 0.0705760
2043.42, 0.0705680
2044.22, 0.0705600
2045.03, 0.0705540
2045.84, 0.0705500
2046.65, 0.0705490
2047.46, 0.0705480
2048.26, 0.0705430
2049.07, 0.0705380
2049.88, 0.0705410
2050.69, 0.0705370
2051.51, 0.0705210
2052.32, 0.0705130
2053.13, 0.0705120
2053.94, 0.0705160
2054.76, 0.0705140
2055.57, 0.0705030
2056.39, 0.0705000
2057.2, 0.0705000
2058.02, 0.0704980
2058.84, 0.0704990
2059.66, 0.0704950
2060.48, 0.0704910
2061.29, 0.0704920
2062.11, 0.0704900
2062.94, 0.0704880
2063.76, 0.0704970
2064.58, 0.0705020
2065.4, 0.0704990
2066.22, 0.0705000
2067.05, 0.0705070
2067.87, 0.0705150
2068.7, 0.0705260
2069.52, 0.0705370
2070.35, 0.0705500
2071.18, 0.0705670
2072.0, 0.0705780
2072.83, 0.0705810
2073.66, 0.0705870
2074.49, 0.0706020
2075.32, 0.0706130
2076.15, 0.0706150
2076.98, 0.0706190
2077.82, 0.0706270
2078.65, 0.0706310
2079.48, 0.0706340
2080.32, 0.0706400
2081.15, 0.0706450
2081.99, 0.0706520
2082.83, 0.0706520
2083.66, 0.0706550
2084.5, 0.0706700
2085.34, 0.0706880
2086.18, 0.0706960
2087.02, 0.0707040
2087.86, 0.0707230
2088.7, 0.0707460
2089.54, 0.0707590
2090.39, 0.0707720
2091.23, 0.0707880
2092.07, 0.0708000
2092.92, 0.0708190
2093.76, 0.0708400
2094.61, 0.0708570
2095.45, 0.0708760
2096.3, 0.0708980
2097.15, 0.0709210
2098.0, 0.0709410
2098.85, 0.0709550
2099.7, 0.0709720
2100.55, 0.0709970
2101.4, 0.0710190
2102.25, 0.0710350
2103.1, 0.0710550
2103.96, 0.0710760
2104.81, 0.0710970
2105.67, 0.0711190
2106.52, 0.0711450
2107.38, 0.0711710
2108.24, 0.0711920
2109.09, 0.0712190
2109.95, 0.0712510
2110.81, 0.0712810
2111.67, 0.0713070
2112.53, 0.0713420
2113.39, 0.0713760
2114.25, 0.0714050
2115.12, 0.0714430
2115.98, 0.0714790
2116.84, 0.0715080
2117.71, 0.0715450
2118.58, 0.0715790
2119.44, 0.0716120
2120.31, 0.0716500
2121.18, 0.0716890
2122.04, 0.0717260
2122.91, 0.0717660
2123.78, 0.0718050
2124.65, 0.0718420
2125.52, 0.0718800
2126.4, 0.0719190
2127.27, 0.0719620
2128.14, 0.0720070
2129.02, 0.0720470
2129.89, 0.0720870
2130.77, 0.0721240
2131.64, 0.0721550
2132.52, 0.0721870
2133.4, 0.0722160
2134.27, 0.0722570
2135.15, 0.0723010
2136.03, 0.0723330
2136.91, 0.0723650
2137.79, 0.0724070
2138.68, 0.0724470
2139.56, 0.0724780
2140.44, 0.0725020
2141.33, 0.0725350
2142.21, 0.0725750
2143.1, 0.0726080
2143.99, 0.0726310
2144.87, 0.0726520
2145.76, 0.0726860
2146.65, 0.0727240
2147.54, 0.0727590
2148.43, 0.0727960
2149.32, 0.0728290
2150.21, 0.0728610
2151.1, 0.0728930
2151.99, 0.0729180
2152.89, 0.0729410
2153.78, 0.0729680
2154.68, 0.0730030
2155.57, 0.0730380
2156.47, 0.0730670
2157.37, 0.0730950
2158.27, 0.0731180
2159.16, 0.0731350
2160.06, 0.0731550
2160.96, 0.0731800
2161.86, 0.0732010
2162.77, 0.0732190
2163.67, 0.0732360
2164.57, 0.0732540
2165.48, 0.0732700
2166.38, 0.0732930
2167.29, 0.0733230
2168.2, 0.0733520
2169.1, 0.0733850
2170.01, 0.0734210
2170.92, 0.0734570
2171.83, 0.0734890
2172.74, 0.0735230
2173.65, 0.0735640
2174.56, 0.0736050
2175.47, 0.0736400
2176.39, 0.0736760
2177.3, 0.0737170
2178.22, 0.0737490
2179.13, 0.0737780
2180.05, 0.0738100
2180.96, 0.0738330
2181.88, 0.0738520
2182.8, 0.0738810
2183.72, 0.0739180
2184.64, 0.0739480
2185.56, 0.0739770
2186.48, 0.0740050
2187.41, 0.0740300
2188.33, 0.0740550
2189.25, 0.0740870
2190.18, 0.0741230
2191.1, 0.0741490
2192.03, 0.0741690
2192.96, 0.0741970
2193.89, 0.0742330
2194.82, 0.0742690
2195.74, 0.0742970
2196.68, 0.0743170
2197.61, 0.0743380
2198.54, 0.0743700
2199.47, 0.0744130
2200.4, 0.0744520
2201.34, 0.0744840
2202.28, 0.0745140
2203.21, 0.0745350
2204.15, 0.0745530
2205.08, 0.0745860
2206.02, 0.0746220
2206.96, 0.0746530
2207.9, 0.0746870
2208.84, 0.0747210
2209.78, 0.0747590
2210.73, 0.0747950
2211.67, 0.0748260
2212.61, 0.0748600
2213.56, 0.0749000
2214.5, 0.0749360
2215.45, 0.0749630
2216.4, 0.0749950
2217.35, 0.0750280
2218.3, 0.0750580
2219.24, 0.0750910
2220.2, 0.0751290
2221.15, 0.0751650
2222.1, 0.0752070
2223.05, 0.0752550
2224.0, 0.0752910
2224.96, 0.0753230
2225.91, 0.0753630
2226.87, 0.0754060
2227.83, 0.0754440
2228.79, 0.0754790
2229.74, 0.0755190
2230.7, 0.0755540
2231.66, 0.0755840
2232.63, 0.0756240
2233.59, 0.0756610
2234.55, 0.0756840
2235.51, 0.0757100
2236.48, 0.0757400
2237.44, 0.0757710
2238.41, 0.0758070
2239.38, 0.0758380
2240.34, 0.0758660
2241.31, 0.0758970
2242.28, 0.0759240
2243.25, 0.0759570
2244.22, 0.0759910
2245.19, 0.0760200
2246.17, 0.0760580
2247.14, 0.0760890
2248.12, 0.0761140
2249.09, 0.0761460
2250.07, 0.0761850
2251.04, 0.0762170
2252.02, 0.0762410
2253.0, 0.0762650
2253.98, 0.0762890
2254.96, 0.0763230
2255.94, 0.0763640
2256.92, 0.0763950
2257.91, 0.0764230
2258.89, 0.0764550
2259.88, 0.0764910
2260.86, 0.0765320
2261.85, 0.0765650
2262.83, 0.0765930
2263.82, 0.0766220
2264.81, 0.0766470
2265.8, 0.0766740
2266.79, 0.0767100
2267.78, 0.0767460
2268.78, 0.0767730
2269.77, 0.0767950
2270.76, 0.0768240
2271.76, 0.0768550
2272.75, 0.0768800
2273.75, 0.0769020
2274.75, 0.0769310
2275.75, 0.0769620
2276.75, 0.0770010
2277.75, 0.0770390
2278.75, 0.0770620
2279.75, 0.0770830
2280.75, 0.0771070
2281.76, 0.0771270
2282.76, 0.0771460
2283.77, 0.0771760
2284.77, 0.0772160
2285.78, 0.0772480
2286.79, 0.0772710
2287.8, 0.0773010
2288.81, 0.0773360
2289.82, 0.0773630
2290.83, 0.0773820
2291.84, 0.0773990
2292.86, 0.0774250
2293.87, 0.0774530
2294.89, 0.0774780
2295.91, 0.0775030
2296.92, 0.0775310
2297.94, 0.0775600
2298.96, 0.0775890
2299.98, 0.0776190
2301.0, 0.0776530
2302.02, 0.0776850
2303.04, 0.0777170
2304.07, 0.0777520
2305.09, 0.0777910
2306.12, 0.0778260
2307.15, 0.0778550
2308.17, 0.0778840
2309.2, 0.0779110
2310.23, 0.0779370
2311.26, 0.0779680
2312.29, 0.0780010
2313.32, 0.0780220
2314.35, 0.0780380
2315.39, 0.0780620
2316.42, 0.0780820
2317.46, 0.0781050
2318.5, 0.0781270
2319.53, 0.0781520
2320.57, 0.0781850
2321.61, 0.0782220
2322.65, 0.0782540
2323.69, 0.0782850
2324.73, 0.0783120
2325.78, 0.0783420
2326.82, 0.0783740
2327.86, 0.0783960
2328.91, 0.0784230
2329.96, 0.0784560
2331.01, 0.0784940
2332.05, 0.0785380
2333.1, 0.0785770
2334.15, 0.0786100
2335.21, 0.0786460
2336.26, 0.0786790
2337.31, 0.0787140
2338.36, 0.0787590
2339.42, 0.0787950
2340.48, 0.0788250
2341.53, 0.0788560
2342.59, 0.0788920
2343.65, 0.0789340
2344.71, 0.0789720
2345.77, 0.0790060
2346.83, 0.0790420
2347.9, 0.0790730
2348.96, 0.0790990
2350.02, 0.0791300
2351.09, 0.0791600
2352.16, 0.0791840
2353.23, 0.0792110
2354.29, 0.0792360
2355.36, 0.0792610
2356.43, 0.0792890
2357.51, 0.0793180
2358.58, 0.0793440
2359.65, 0.0793740
2360.73, 0.0794120
2361.8, 0.0794430
2362.88, 0.0794590
2363.96, 0.0794760
2365.03, 0.0794940
2366.11, 0.0795190
2367.19, 0.0795460
2368.27, 0.0795620
2369.36, 0.0795780
2370.44, 0.0795900
2371.53, 0.0795960
2372.61, 0.0796080
2373.7, 0.0796240
2374.78, 0.0796320
2375.87, 0.0796330
2376.96, 0.0796390
2378.05, 0.0796500
2379.14, 0.0796640
2380.24, 0.0796700
2381.33, 0.0796680
2382.42, 0.0796660
2383.52, 0.0796710
2384.61, 0.0796740
2385.71, 0.0796750
2386.81, 0.0796820
2387.91, 0.0796910
2389.01, 0.0796940
2390.11, 0.0796970
2391.22, 0.0797030
2392.32, 0.0797080
2393.42, 0.0797180
2394.53, 0.0797330
2395.64, 0.0797450
2396.74, 0.0797600
2397.85, 0.0797830
2398.96, 0.0798150
2400.07, 0.0798530
2401.18, 0.0799010
2402.3, 0.0799490
2403.41, 0.0799920
2404.52, 0.0800410
2405.64, 0.0800860
2406.76, 0.0801220
2407.88, 0.0801630
2408.99, 0.0802190
2410.11, 0.0802760
2411.23, 0.0803190
2412.36, 0.0803600
2413.48, 0.0804130
2414.6, 0.0804710
2415.73, 0.0805140
2416.85, 0.0805510
2417.98, 0.0806060
2419.11, 0.0806670
2420.24, 0.0807140
2421.37, 0.0807540
2422.5, 0.0807970
2423.64, 0.0808380
2424.77, 0.0808760
2425.9, 0.0809200
2427.04, 0.0809600
2428.18, 0.0810000
2429.31, 0.0810370
2430.45, 0.0810760
2431.59, 0.0811190
2432.73, 0.0811530
2433.88, 0.0811820
2435.02, 0.0812150
2436.16, 0.0812530
2437.31, 0.0812840
2438.45, 0.0813040
2439.6, 0.0813310
2440.75, 0.0813540
2441.9, 0.0813750
2443.05, 0.0814060
2444.2, 0.0814350
2445.35, 0.0814620
2446.51, 0.0814880
2447.67, 0.0815170
2448.82, 0.0815480
2449.98, 0.0815810
2451.14, 0.0816110
2452.3, 0.0816450
2453.46, 0.0816790
2454.62, 0.0816990
2455.78, 0.0817230
2456.94, 0.0817580
2458.11, 0.0817950
2459.28, 0.0818300
2460.44, 0.0818690
2461.61, 0.0819050
2462.78, 0.0819340
2463.95, 0.0819650
2465.12, 0.0819960
2466.3, 0.0820210
2467.47, 0.0820490
2468.65, 0.0820790
2469.82, 0.0821010
2471.0, 0.0821160
2472.18, 0.0821370
2473.36, 0.0821620
2474.54, 0.0821820
2475.72, 0.0821980
2476.9, 0.0822100
2478.08, 0.0822170
2479.27, 0.0822270
2480.46, 0.0822410
2481.64, 0.0822580
2482.83, 0.0822780
2484.02, 0.0823010
2485.21, 0.0823220
2486.4, 0.0823390
2487.6, 0.0823580
2488.79, 0.0823820
2489.99, 0.0823960
2491.18, 0.0824040
2492.38, 0.0824240
2493.58, 0.0824440
2494.78, 0.0824650
2495.98, 0.0824860
2497.18, 0.0824980
2498.39, 0.0825050
2499.59, 0.0825090
2500.8, 0.0825150
2502.01, 0.0825280
2503.21, 0.0825430
2504.42, 0.0825610
2505.63, 0.0825830
2506.84, 0.0826040
2508.06, 0.0826200
2509.27, 0.0826350
2510.49, 0.0826530
2511.7, 0.0826720
2512.92, 0.0826790
2514.14, 0.0826810
2515.36, 0.0826920
2516.58, 0.0827030
2517.8, 0.0827110
2519.03, 0.0827200
2520.25, 0.0827310
2521.48, 0.0827430
2522.7, 0.0827560
2523.93, 0.0827770
2525.16, 0.0828040
2526.39, 0.0828210
2527.62, 0.0828270
2528.86, 0.0828310
2530.09, 0.0828360
2531.33, 0.0828390
2532.56, 0.0828470
2533.8, 0.0828560
2535.04, 0.0828650
2536.28, 0.0828810
2537.52, 0.0828970
2538.76, 0.0828980
2540.01, 0.0829000
2541.25, 0.0829090
2542.5, 0.0829140
2543.75, 0.0829080
2544.99, 0.0829010
2546.24, 0.0829020
2547.49, 0.0829230
2548.75, 0.0829460
2550.0, 0.0829490
2551.26, 0.0829530
2552.51, 0.0829710
2553.77, 0.0829960
2555.03, 0.0830100
2556.29, 0.0830280
2557.55, 0.0830480
2558.81, 0.0830480
2560.08, 0.0830370
2561.34, 0.0830440
2562.61, 0.0830650
2563.88, 0.0830730
2565.14, 0.0830730
2566.41, 0.0830710
2567.68, 0.0830710
2568.96, 0.0830850
2570.23, 0.0831190
2571.51, 0.0831300
2572.78, 0.0831350
2574.06, 0.0831750
2575.34, 0.0831830
2576.62, 0.0831860
2577.9, 0.0832110
2579.18, 0.0832140
2580.47, 0.0832260
2581.75, 0.0832470
2583.04, 0.0832570
2584.32, 0.0832940
2585.61, 0.0832960
2586.9, 0.0832920
2588.2, 0.0833310
2589.49, 0.0833400
2590.78, 0.0833360
2592.08, 0.0833320
2593.37, 0.0833050
2594.67, 0.0833340
2595.97, 0.0833940
2597.27, 0.0833860
2598.57, 0.0833750
2599.88, 0.0833890
2601.18, 0.0834040
2602.49, 0.0834260
2603.79, 0.0834310
2605.1, 0.0834420
2606.41, 0.0834820
2607.72, 0.0834970
2609.03, 0.0835010
2610.35, 0.0835160
2611.66, 0.0835320
2612.98, 0.0835580
2614.3, 0.0835890
2615.62, 0.0836140
2616.94, 0.0836720
2618.26, 0.0837090
2619.58, 0.0836970
2620.91, 0.0837450
2622.23, 0.0837950
2623.56, 0.0838220
2624.89, 0.0838620
2626.22, 0.0839200
2627.55, 0.0839950
2628.88, 0.0840230
2630.21, 0.0840790
2631.55, 0.0841670
2632.89, 0.0842070
2634.22, 0.0842600
2635.56, 0.0843150
2636.9, 0.0843500
2638.25, 0.0843900
2639.59, 0.0844360
2640.93, 0.0844740
2642.28, 0.0845200
2643.63, 0.0845680
2644.98, 0.0846070
2646.33, 0.0846520
2647.68, 0.0846870
2649.03, 0.0847250
2650.39, 0.0847640
2651.74, 0.0847910
2653.1, 0.0848200
2654.46, 0.0848370
2655.82, 0.0848700
2657.18, 0.0848890
2658.54, 0.0848970
2659.9, 0.0849290
2661.27, 0.0849740
2662.64, 0.0850060
2664.01, 0.0850200
2665.38, 0.0850580
2666.74, 0.0851080
2668.12, 0.0851150
2669.49, 0.0850650
2670.87, 0.0851070
2672.24, 0.0851310
2673.62, 0.0850740
2675.0, 0.0850600
2676.38, 0.0850730
2677.76, 0.0850710
2679.15, 0.0850620
2680.54, 0.0850640
2681.92, 0.0850270
2683.31, 0.0849950
2684.7, 0.0849720
2686.09, 0.0849350
2687.48, 0.0848990
2688.88, 0.0848520
2690.27, 0.0847840
2691.67, 0.0846880
2693.07, 0.0845870
2694.47, 0.0844960
2695.87, 0.0843880
2697.27, 0.0842520
2698.67, 0.0840910
2700.08, 0.0839200
2701.49, 0.0837570
2702.9, 0.0835790
2704.31, 0.0833570
2705.72, 0.0831030
2707.13, 0.0828090
2708.54, 0.0824800
2709.96, 0.0821190
2711.38, 0.0817570
2712.8, 0.0813670
2714.22, 0.0809130
2715.64, 0.0804430
2717.06, 0.0799700
2718.49, 0.0794110
2719.91, 0.0786970
2721.34, 0.0780860
2722.77, 0.0778570
2724.2, 0.0779320
2725.63, 0.0780340
2727.07, 0.0780090
2728.5, 0.0778980
2729.94, 0.0777530
2731.38, 0.0775870
2732.82, 0.0773920
2734.26, 0.0771950
2735.7, 0.0770100
2737.15, 0.0767850
2738.59, 0.0765300
2740.04, 0.0762810
2741.49, 0.0760170
2742.94, 0.0757310
2744.39, 0.0755000
2745.84, 0.0753610
2747.3, 0.0752240
2748.76, 0.0750470
2750.21, 0.0748370
2751.67, 0.0746030
2753.14, 0.0743530
2754.6, 0.0741160
2756.06, 0.0739550
2757.53, 0.0738060
2759.0, 0.0736200
2760.46, 0.0734340
2761.94, 0.0732770
2763.41, 0.0731430
2764.88, 0.0730100
2766.36, 0.0728780
2767.83, 0.0727550
2769.31, 0.0726080
2770.79, 0.0724200
2772.27, 0.0722170
2773.76, 0.0720160
2775.24, 0.0718180
2776.73, 0.0716020
2778.22, 0.0713530
2779.71, 0.0710620
2781.2, 0.0707410
2782.69, 0.0703950
2784.18, 0.0700310
2785.68, 0.0696560
2787.18, 0.0692740
2788.68, 0.0688860
2790.18, 0.0684800
2791.68, 0.0680540
2793.19, 0.0676160
2794.69, 0.0671610
2796.2, 0.0667030
2797.71, 0.0662400
2799.22, 0.0657730
2800.73, 0.0652860
2802.24, 0.0647860
2803.76, 0.0642970
2805.28, 0.0638100
2806.8, 0.0633110
2808.32, 0.0628030
2809.84, 0.0622750
2811.36, 0.0617360
2812.89, 0.0612060
2814.42, 0.0606850
2815.94, 0.0601650
2817.48, 0.0596410
2819.01, 0.0591070
2820.54, 0.0585670
2822.08, 0.0580280
2823.61, 0.0574910
2825.15, 0.0569490
2826.69, 0.0563970
2828.23, 0.0558320
2829.78, 0.0552580
2831.32, 0.0546970
2832.87, 0.0541410
2834.42, 0.0535790
2835.97, 0.0530220
2837.52, 0.0524670
2839.08, 0.0519050
2840.63, 0.0513430
2842.19, 0.0507720
2843.75, 0.0501900
2845.31, 0.0496140
2846.87, 0.0490450
2848.44, 0.0484750
2850.0, 0.0479050
2851.57, 0.0473420
2853.14, 0.0467810
2854.71, 0.0462130
2856.28, 0.0456330
2857.86, 0.0450510
2859.43, 0.0444740
2861.01, 0.0438990
2862.59, 0.0433220
2864.17, 0.0427400
2865.76, 0.0421480
2867.34, 0.0415600
2868.93, 0.0409800
2870.52, 0.0404090
2872.11, 0.0398420
2873.7, 0.0392670
2875.29, 0.0386900
2876.89, 0.0381150
2878.49, 0.0375460
2880.08, 0.0369850
2881.69, 0.0364360
2883.29, 0.0358940
2884.89, 0.0353550
2886.5, 0.0348230
2888.11, 0.0342900
2889.72, 0.0337670
2891.33, 0.0332560
2892.94, 0.0327440
2894.56, 0.0322420
2896.17, 0.0317620
2897.79, 0.0313040
2899.42, 0.0308520
2901.04, 0.0304030
2902.66, 0.0299670
2904.29, 0.0295410
2905.92, 0.0291290
2907.55, 0.0287310
2909.18, 0.0283530
2910.81, 0.0279970
2912.45, 0.0276470
2914.08, 0.0273140
2915.72, 0.0270000
2917.36, 0.0266940
2919.01, 0.0263980
2920.65, 0.0261090
2922.3, 0.0258410
2923.94, 0.0255960
2925.59, 0.0253480
2927.25, 0.0251020
2928.9, 0.0248640
2930.56, 0.0246390
2932.21, 0.0244310
2933.87, 0.0242130
2935.53, 0.0239970
2937.2, 0.0237970
2938.86, 0.0236080
2940.53, 0.0234240
2942.2, 0.0232390
2943.87, 0.0230540
2945.54, 0.0228760
2947.22, 0.0227040
2948.89, 0.0225310
2950.57, 0.0223600
2952.25, 0.0221950
2953.93, 0.0220340
2955.62, 0.0218680
2957.3, 0.0216980
2958.99, 0.0215430
2960.68, 0.0213980
2962.37, 0.0212440
2964.07, 0.0210820
2965.76, 0.0209320
2967.46, 0.0207930
2969.16, 0.0206580
2970.86, 0.0205270
2972.56, 0.0203920
2974.27, 0.0202530
2975.98, 0.0201280
2977.69, 0.0200160
2979.4, 0.0199000
2981.11, 0.0197760
2982.83, 0.0196580
2984.54, 0.0195480
2986.26, 0.0194380
2987.98, 0.0193330
2989.71, 0.0192320
2991.43, 0.0191310
2993.16, 0.0190430
2994.89, 0.0189650
2996.62, 0.0188780
2998.35, 0.0187910
3000.09, 0.0187090
3001.83, 0.0186290
3003.57, 0.0185540
3005.31, 0.0184740
3007.05, 0.0183990
3008.79, 0.0183350
3010.54, 0.0182640
3012.29, 0.0181930
3014.04, 0.0181330
3015.8, 0.0180640
3017.55, 0.0179980
3019.31, 0.0179460
3021.07, 0.0178820
3022.83, 0.0178090
3024.59, 0.0177460
3026.36, 0.0176870
3028.13, 0.0176230
3029.9, 0.0175620
3031.67, 0.0175010
3033.44, 0.0174380
3035.22, 0.0173800
3037.0, 0.0173140
3038.78, 0.0172420
3040.56, 0.0171860
3042.34, 0.0171340
3044.13, 0.0170640
3045.92, 0.0169940
3047.71, 0.0169260
3049.5, 0.0168630
3051.3, 0.0168120
3053.09, 0.0167600
3054.89, 0.0166990
3056.69, 0.0166430
3058.5, 0.0165980
3060.3, 0.0165540
3062.11, 0.0165030
3063.92, 0.0164550
3065.73, 0.0164190
3067.55, 0.0163920
3069.36, 0.0163690
3071.18, 0.0163490
3073.0, 0.0163360
3074.82, 0.0163340
3076.65, 0.0163340
3078.48, 0.0163320
3080.31, 0.0163440
3082.14, 0.0163770
3083.97, 0.0164190
3085.8, 0.0164650
3087.64, 0.0165160
3089.48, 0.0165700
3091.33, 0.0166450
3093.17, 0.0167360
3095.02, 0.0168200
3096.87, 0.0169080
3098.72, 0.0170150
3100.57, 0.0171310
3102.43, 0.0172570
3104.28, 0.0173830
3106.14, 0.0175080
3108.01, 0.0176410
3109.87, 0.0177750
3111.74, 0.0179140
3113.61, 0.0180600
3115.48, 0.0182210
3117.35, 0.0183750
3119.23, 0.0185200
3121.1, 0.0186700
3122.98, 0.0188210
3124.87, 0.0189730
3126.75, 0.0191240
3128.64, 0.0192700
3130.53, 0.0194230
3132.42, 0.0195890
3134.31, 0.0197490
3136.21, 0.0199070
3138.11, 0.0200640
3140.01, 0.0202090
3141.91, 0.0203610
3143.82, 0.0205230
3145.73, 0.0206790
3147.64, 0.0208240
3149.55, 0.0209670
3151.46, 0.0211160
3153.38, 0.0212650
3155.3, 0.0214170
3157.22, 0.0215670
3159.14, 0.0217090
3161.07, 0.0218640
3163.0, 0.0220190
3164.93, 0.0221660
3166.86, 0.0223140
3168.8, 0.0224640
3170.74, 0.0226070
3172.68, 0.0227450
3174.62, 0.0228900
3176.56, 0.0230410
3178.51, 0.0231900
3180.46, 0.0233400
3182.42, 0.0234960
3184.37, 0.0236550
3186.33, 0.0238080
3188.29, 0.0239510
3190.25, 0.0240830
3192.21, 0.0242100
3194.18, 0.0243530
3196.15, 0.0245110
3198.12, 0.0246610
3200.09, 0.0248070
3202.07, 0.0249560
3204.05, 0.0251030
3206.03, 0.0252470
3208.02, 0.0253910
3210.0, 0.0255410
3211.99, 0.0256940
3213.98, 0.0258430
3215.98, 0.0259880
3217.97, 0.0261300
3219.97, 0.0262820
3221.97, 0.0264340
3223.98, 0.0265740
3225.98, 0.0267210
3227.99, 0.0268780
3230.0, 0.0270260
3232.02, 0.0271660
3234.03, 0.0273110
3236.05, 0.0274650
3238.07, 0.0276190
3240.1, 0.0277590
3242.12, 0.0278990
3244.15, 0.0280480
3246.18, 0.0281920
3248.22, 0.0283380
3250.25, 0.0284930
3252.29, 0.0286440
3254.33, 0.0287900
3256.38, 0.0289330
3258.43, 0.0290800
3260.47, 0.0292340
3262.53, 0.0293900
3264.58, 0.0295470
3266.64, 0.0297070
3268.7, 0.0298680
3270.76, 0.0300270
3272.82, 0.0301940
3274.89, 0.0303680
3276.96, 0.0305280
3279.04, 0.0306850
3281.11, 0.0308520
3283.19, 0.0310250
3285.27, 0.0311950
3287.35, 0.0313690
3289.44, 0.0315450
3291.53, 0.0317210
3293.62, 0.0318970
3295.71, 0.0320700
3297.81, 0.0322530
3299.91, 0.0324350
3302.01, 0.0326090
3304.11, 0.0327950
3306.22, 0.0329860
3308.33, 0.0331650
3310.44, 0.0333440
3312.56, 0.0335260
3314.68, 0.0337130
3316.8, 0.0339040
3318.92, 0.0340900
3321.05, 0.0342700
3323.18, 0.0344420
3325.31, 0.0346180
3327.44, 0.0348090
3329.58, 0.0350040
3331.72, 0.0351930
3333.86, 0.0353780
3336.01, 0.0355650
3338.16, 0.0357500
3340.31, 0.0359280
3342.46, 0.0361140
3344.61, 0.0363080
3346.77, 0.0364880
3348.94, 0.0366560
3351.1, 0.0368320
3353.27, 0.0370190
3355.44, 0.0372060
3357.61, 0.0373980
3359.79, 0.0375870
3361.97, 0.0377630
3364.15, 0.0379400
3366.33, 0.0381180
3368.52, 0.0382840
3370.71, 0.0384540
3372.9, 0.0386330
3375.1, 0.0388120
3377.3, 0.0389860
3379.5, 0.0391670
3381.71, 0.0393590
3383.91, 0.0395520
3386.12, 0.0397400
3388.34, 0.0399310
3390.55, 0.0401200
3392.77, 0.0403090
3394.99, 0.0405020
3397.22, 0.0406990
3399.45, 0.0408990
3401.68, 0.0410980
3403.91, 0.0412910
3406.15, 0.0414760
3408.39, 0.0416620
3410.63, 0.0418440
3412.87, 0.0420250
3415.12, 0.0422140
3417.37, 0.0423990
3419.63, 0.0425710
3421.88, 0.0427400
3424.14, 0.0429120
3426.41, 0.0430800
3428.67, 0.0432520
3430.94, 0.0434270
3433.21, 0.0436000
3435.49, 0.0437910
3437.77, 0.0439800
3440.05, 0.0441570
3442.33, 0.0443390
3444.62, 0.0445230
3446.91, 0.0447010
3449.2, 0.0448710
3451.5, 0.0450390
3453.8, 0.0452160
3456.1, 0.0453960
3458.41, 0.0455740
3460.72, 0.0457420
3463.03, 0.0458950
3465.34, 0.0460620
3467.66, 0.0462310
3469.98, 0.0463910
3472.31, 0.0465640
3474.63, 0.0467330
3476.96, 0.0468970
3479.3, 0.0470780
3481.64, 0.0472570
3483.97, 0.0474230
3486.32, 0.0475920
3488.66, 0.0477620
3491.01, 0.0479310
3493.36, 0.0481060
3495.72, 0.0482820
3498.08, 0.0484470
3500.44, 0.0486070
3502.81, 0.0487760
3505.18, 0.0489490
3507.55, 0.0491100
3509.92, 0.0492640
3512.3, 0.0494180
3514.68, 0.0495880
3517.06, 0.0497730
3519.45, 0.0499550
3521.84, 0.0501160
3524.24, 0.0502710
3526.64, 0.0504250
3529.04, 0.0505860
3531.44, 0.0507600
3533.85, 0.0509350
3536.26, 0.0510980
3538.67, 0.0512590
3541.09, 0.0514130
3543.51, 0.0515710
3545.93, 0.0517460
3548.36, 0.0519220
3550.79, 0.0520930
3553.22, 0.0522580
3555.66, 0.0524220
3558.1, 0.0525960
3560.54, 0.0527850
3562.99, 0.0529810
3565.44, 0.0531570
3567.9, 0.0533100
3570.35, 0.0534690
3572.81, 0.0536400
3575.28, 0.0538010
3577.75, 0.0539600
3580.22, 0.0541210
3582.69, 0.0542760
3585.17, 0.0544390
3587.65, 0.0546100
3590.14, 0.0547760
3592.62, 0.0549410
3595.11, 0.0551140
3597.61, 0.0552910
3600.11, 0.0554530
3602.61, 0.0556120
3605.11, 0.0557880
3607.62, 0.0559670
3610.14, 0.0561430
3612.65, 0.0563220
3615.17, 0.0564990
3617.69, 0.0566640
3620.22, 0.0568330
3622.75, 0.0570020
3625.28, 0.0571720
3627.82, 0.0573560
3630.36, 0.0575330
3632.9, 0.0576980
3635.45, 0.0578650
3638.0, 0.0580420
3640.56, 0.0582160
3643.12, 0.0583850
3645.68, 0.0585560
3648.24, 0.0587180
3650.81, 0.0588710
3653.39, 0.0590220
3655.96, 0.0591650
3658.54, 0.0593060
3661.13, 0.0594700
3663.71, 0.0596540
3666.3, 0.0598350
3668.9, 0.0599950
3671.5, 0.0601520
3674.1, 0.0603150
3676.7, 0.0604850
3679.31, 0.0606630
3681.93, 0.0608330
3684.54, 0.0609860
3687.17, 0.0611450
3689.79, 0.0613230
3692.42, 0.0615100
3695.05, 0.0616830
3697.69, 0.0618400
3700.32, 0.0620110
3702.97, 0.0621900
3705.61, 0.0623460
3708.27, 0.0624970
3710.92, 0.0626500
3713.58, 0.0628150
3716.24, 0.0629850
3718.91, 0.0631380
3721.58, 0.0632780
3724.25, 0.0634120
3726.93, 0.0635510
3729.61, 0.0636960
3732.29, 0.0638530
3734.98, 0.0640060
3737.67, 0.0641440
3740.37, 0.0642940
3743.07, 0.0644430
3745.78, 0.0645970
3748.49, 0.0647840
3751.2, 0.0649670
3753.91, 0.0651120
3756.63, 0.0652630
3759.36, 0.0654310
3762.09, 0.0655950
3764.82, 0.0657590
3767.55, 0.0659250
3770.29, 0.0660880
3773.04, 0.0662390
3775.78, 0.0663740
3778.54, 0.0665190
3781.29, 0.0666580
3784.05, 0.0667820
3786.82, 0.0669120
3789.59, 0.0670420
3792.36, 0.0671920
3795.13, 0.0673510
3797.92, 0.0674800
3800.7, 0.0675960
3803.49, 0.0677060
3806.28, 0.0678230
3809.08, 0.0679510
3811.88, 0.0680800
3814.68, 0.0682090
3817.49, 0.0683200
3820.31, 0.0684200
3823.12, 0.0685200
3825.94, 0.0686660
3828.77, 0.0688200
3831.6, 0.0689700
3834.43, 0.0691110
3837.27, 0.0692690
3840.11, 0.0694250
3842.96, 0.0695520
3845.81, 0.0696630
3848.67, 0.0697840
3851.53, 0.0699090
3854.39, 0.0700340
3857.26, 0.0701660
3860.13, 0.0703020
3863.01, 0.0704330
3865.89, 0.0705630
3868.77, 0.0706910
3871.66, 0.0708280
3874.55, 0.0709700
3877.45, 0.0710970
3880.35, 0.0712150
3883.26, 0.0713210
3886.17, 0.0714190
3889.09, 0.0715280
3892.01, 0.0716510
3894.93, 0.0717750
3897.86, 0.0719050
3900.79, 0.0720550
3903.73, 0.0722140
3906.67, 0.0723690
3909.62, 0.0725010
3912.57, 0.0726130
3915.52, 0.0727190
3918.48, 0.0728210
3921.45, 0.0729100
3924.42, 0.0730030
3927.39, 0.0731110
3930.37, 0.0732250
3933.35, 0.0733390
3936.34, 0.0734420
3939.33, 0.0735300
3942.32, 0.0736170
3945.32, 0.0737110
3948.33, 0.0737950
3951.34, 0.0738650
3954.35, 0.0739420
3957.37, 0.0740260
3960.39, 0.0741080
3963.42, 0.0741900
3966.45, 0.0742780
3969.49, 0.0743760
3972.53, 0.0744920
3975.58, 0.0746090
3978.63, 0.0747070
3981.68, 0.0748090
3984.75, 0.0749310
3987.81, 0.0750520
3990.88, 0.0751570
3993.95, 0.0752510
3997.03, 0.0753310
4000.12, 0.0754090
4003.21, 0.0754720
4006.3, 0.0755230
4009.4, 0.0755990
4012.5, 0.0756940
4015.61, 0.0757750
4018.72, 0.0758570
4021.84, 0.0759520
4024.96, 0.0760390
4028.09, 0.0761300
4031.22, 0.0762320
4034.36, 0.0763480
4037.5, 0.0764770
4040.65, 0.0766060
4043.8, 0.0767080
4046.96, 0.0767920
4050.12, 0.0768930
4053.29, 0.0770130
4056.46, 0.0771280
4059.64, 0.0772150
4062.82, 0.0772810
4066.0, 0.0773440
4069.19, 0.0774120
4072.39, 0.0774650
4075.59, 0.0775060
4078.8, 0.0775550
4082.01, 0.0776010
4085.23, 0.0776540
4088.45, 0.0777130
4091.68, 0.0777460
4094.91, 0.0777800
4098.15, 0.0778260
4101.39, 0.0778690
4104.63, 0.0779100
4107.89, 0.0779400
4111.14, 0.0779600
4114.41, 0.0779800
4117.67, 0.0780020
4120.95, 0.0780440
4124.23, 0.0781160
4127.51, 0.0782030
4130.8, 0.0782790
4134.09, 0.0783620
4137.39, 0.0784410
4140.7, 0.0785030
4144.01, 0.0785820
4147.32, 0.0787060
4150.64, 0.0788220
4153.97, 0.0788840
4157.3, 0.0789150
4160.64, 0.0789680
4163.98, 0.0790240
4167.33, 0.0790690
4170.68, 0.0791290
4174.04, 0.0791930
4177.4, 0.0792410
4180.77, 0.0792840
4184.14, 0.0793300
4187.52, 0.0793680
4190.91, 0.0793890
4194.3, 0.0793930
4197.69, 0.0794030
4201.1, 0.0794310
4204.5, 0.0794660
4207.92, 0.0794990
4211.34, 0.0794930
4214.76, 0.0794400
4218.19, 0.0793590
4221.62, 0.0792950
4225.06, 0.0792450
4228.51, 0.0791910
4231.96, 0.0791430
4235.42, 0.0791190
4238.88, 0.0791280
4242.35, 0.0791690
4245.83, 0.0792340
4249.31, 0.0793290
4252.79, 0.0794680
4256.28, 0.0795560
4259.78, 0.0794880
4263.29, 0.0793400
4266.79, 0.0792060
4270.31, 0.0791220
4273.83, 0.0790830
4277.35, 0.0790650
4280.89, 0.0790600
4284.42, 0.0790580
4287.97, 0.0790460
4291.52, 0.0790520
4295.07, 0.0791010
4298.63, 0.0791710
4302.2, 0.0792140
4305.78, 0.0792380
4309.35, 0.0792610
4312.94, 0.0792920
4316.53, 0.0793330
4320.13, 0.0793740
4323.73, 0.0793780
4327.34, 0.0793720
4330.96, 0.0793820
4334.58, 0.0793970
4338.21, 0.0794160
4341.84, 0.0794460
4345.48, 0.0794770
4349.12, 0.0795180
4352.77, 0.0795800
4356.43, 0.0796340
4360.1, 0.0796700
4363.76, 0.0797100
4367.44, 0.0797670
4371.12, 0.0798390
4374.81, 0.0799210
4378.51, 0.0800010
4382.21, 0.0800350
4385.92, 0.0800180
4389.63, 0.0799830
4393.35, 0.0799570
4397.08, 0.0799340
4400.81, 0.0799160
4404.55, 0.0799000
4408.29, 0.0798890
4412.04, 0.0798990
4415.8, 0.0799130
4419.57, 0.0799070
4423.34, 0.0798930
4427.12, 0.0798910
4430.9, 0.0798830
4434.69, 0.0798520
4438.49, 0.0798000
4442.29, 0.0797260
4446.1, 0.0796530
4449.92, 0.0795950
4453.74, 0.0795640
4457.57, 0.0795600
4461.41, 0.0795560
4465.25, 0.0795240
4469.1, 0.0794750
4472.95, 0.0794450
4476.82, 0.0794210
4480.69, 0.0793800
4484.56, 0.0793390
4488.44, 0.0792920
4492.33, 0.0792230
4496.23, 0.0791450
4500.13, 0.0790890
4504.04, 0.0790530
4507.96, 0.0790140
4511.88, 0.0790020
4515.81, 0.0790260
4519.75, 0.0790540
4523.69, 0.0790760
4527.65, 0.0790860
4531.6, 0.0790870
4535.57, 0.0790680
4539.54, 0.0790510
4543.52, 0.0790530
4547.5, 0.0790650
4551.5, 0.0790810
4555.5, 0.0790920
4559.5, 0.0790800
4563.52, 0.0790700
4567.54, 0.0790620
4571.56, 0.0790540
4575.6, 0.0790610
4579.64, 0.0790840
4583.69, 0.0791050
4587.75, 0.0791160
4591.81, 0.0791510
4595.88, 0.0792310
4599.96, 0.0793330
4604.04, 0.0794430
4608.14, 0.0795700
4612.24, 0.0796990
4616.34, 0.0798260
4620.46, 0.0799700
4624.58, 0.0801040
4628.71, 0.0802150
4632.84, 0.0803130
4636.99, 0.0803850
4641.14, 0.0804250
4645.3, 0.0804560
4649.47, 0.0805050
4653.64, 0.0805990
4657.82, 0.0807010
4662.01, 0.0807720
4666.21, 0.0808090
4670.41, 0.0808300
4674.62, 0.0808450
4678.84, 0.0808830
4683.07, 0.0809370
4687.3, 0.0809910
4691.54, 0.0810460
4695.79, 0.0811240
4700.05, 0.0812170
4704.31, 0.0813320
4708.59, 0.0814580
4712.87, 0.0815960
4717.15, 0.0817270
4721.45, 0.0818370
4725.76, 0.0819390
4730.07, 0.0820470
4734.39, 0.0821590
4738.72, 0.0822500
4743.05, 0.0823150
4747.39, 0.0823550
4751.75, 0.0823700
4756.1, 0.0823880
4760.47, 0.0823850
4764.85, 0.0823630
4769.23, 0.0823340
4773.62, 0.0822820
4778.02, 0.0822150
4782.43, 0.0821450
4786.85, 0.0820540
4791.27, 0.0819750
4795.7, 0.0819140
4800.14, 0.0818610
4804.59, 0.0818360
4809.05, 0.0818530
4813.51, 0.0819000
4817.99, 0.0819740
4822.47, 0.0820840
4826.96, 0.0822290
4831.46, 0.0824020
4835.96, 0.0825990
4840.48, 0.0827970
4845.0, 0.0829350
4849.54, 0.0830120
4854.08, 0.0830810
4858.63, 0.0831320
4863.18, 0.0831550
4867.75, 0.0831440
4872.33, 0.0831120
4876.91, 0.0830670
4881.5, 0.0830210
4886.1, 0.0829800
4890.71, 0.0829650
4895.33, 0.0829880
4899.96, 0.0830190
4904.59, 0.0830320
4909.24, 0.0830860
4913.89, 0.0831880
4918.55, 0.0833090
4923.22, 0.0834170
4927.9, 0.0835130
4932.59, 0.0836030
4937.29, 0.0837040
4942.0, 0.0838390
4946.71, 0.0840040
4951.44, 0.0841960
4956.17, 0.0843830
4960.91, 0.0845230
4965.67, 0.0846330
4970.43, 0.0847290
4975.2, 0.0848440
4979.98, 0.0849980
4984.76, 0.0851630
4989.56, 0.0852900
4994.37, 0.0853860
4999.18, 0.0854880
5004.01, 0.0856140
5008.84, 0.0857340
5013.69, 0.0858400
5018.54, 0.0859150
5023.4, 0.0859750
5028.28, 0.0860500
5033.16, 0.0861310
5038.05, 0.0861900
5042.95, 0.0862410
5047.86, 0.0862980
5052.78, 0.0864100
5057.71, 0.0865580
5062.65, 0.0866850
5067.6, 0.0867860
5072.56, 0.0868780
5077.53, 0.0869530
5082.5, 0.0870360
5087.49, 0.0871080
5092.49, 0.0871610
5097.5, 0.0872060
5102.51, 0.0872860
5107.54, 0.0874090
5112.58, 0.0875360
5117.62, 0.0876350
5122.68, 0.0877570
5127.75, 0.0878850
5132.82, 0.0879900
5137.91, 0.0880800
5143.01, 0.0881710
5148.12, 0.0882300
5153.23, 0.0882620
5158.36, 0.0882900
5163.5, 0.0883220
5168.65, 0.0883730
5173.81, 0.0884510
5178.98, 0.0884850
5184.15, 0.0884770
5189.34, 0.0884240
5194.54, 0.0883470
5199.75, 0.0882610
5204.98, 0.0881550
5210.21, 0.0880880
5215.45, 0.0880780
5220.7, 0.0880360
5225.96, 0.0879520
5231.23, 0.0878720
5236.52, 0.0878540
5241.81, 0.0878670
5247.12, 0.0878440
5252.44, 0.0877700
5257.76, 0.0876560
5263.1, 0.0875080
5268.45, 0.0873770
5273.81, 0.0872600
5279.18, 0.0871550
5284.56, 0.0870640
5289.95, 0.0869970
5295.36, 0.0868950
5300.77, 0.0867630
5306.2, 0.0865990
5311.63, 0.0864220
5317.08, 0.0862930
5322.54, 0.0862010
5328.01, 0.0860750
5333.49, 0.0859300
5338.98, 0.0857710
5344.49, 0.0856200
5350.0, 0.0854580
5355.53, 0.0853140
5361.07, 0.0851870
5366.62, 0.0850760
5372.18, 0.0849750
5377.75, 0.0848570
5383.34, 0.0846630
5388.93, 0.0844220
5394.54, 0.0841950
5400.16, 0.0840010
5405.79, 0.0838080
5411.44, 0.0836280
5417.09, 0.0834090
5422.76, 0.0831890
5428.43, 0.0829650
5434.12, 0.0827060
5439.83, 0.0824450
5445.54, 0.0821920
5451.26, 0.0819500
5457.0, 0.0816630
5462.75, 0.0813490
5468.52, 0.0811520
5474.29, 0.0810100
5480.08, 0.0808120
5485.88, 0.0805370
5491.69, 0.0802380
5497.51, 0.0799930
5503.35, 0.0798000
5509.2, 0.0795570
5515.06, 0.0793080
5520.93, 0.0790000
5526.82, 0.0786460
5532.71, 0.0782700
5538.63, 0.0778840
5544.55, 0.0775630
5550.49, 0.0772620
5556.44, 0.0768650
5562.4, 0.0765110
5568.37, 0.0761780
5574.36, 0.0758270
5580.36, 0.0754950
5586.37, 0.0751600
5592.4, 0.0747600
5598.44, 0.0744250
5604.49, 0.0740910
5610.56, 0.0737140
5616.63, 0.0733450
5622.73, 0.0729550
5628.83, 0.0724990
5634.95, 0.0719950
5641.08, 0.0714460
5647.23, 0.0710050
5653.39, 0.0706610
5659.56, 0.0702130
5665.74, 0.0696850
5671.94, 0.0691830
5678.15, 0.0687280
5684.38, 0.0683460
5690.62, 0.0679720
5696.87, 0.0676100
5703.14, 0.0672990
5709.42, 0.0670070
5715.72, 0.0666470
5722.03, 0.0662820
5728.35, 0.0659490
5734.69, 0.0656030
5741.03, 0.0651920
5747.4, 0.0647860
5753.78, 0.0644420
5760.17, 0.0640930
5766.58, 0.0637720
5773.0, 0.0635200
5779.44, 0.0632400
5785.88, 0.0629050
5792.35, 0.0625720
5798.83, 0.0622710
5805.32, 0.0619890
5811.83, 0.0616960
5818.35, 0.0613660
5824.89, 0.0610880
5831.45, 0.0608720
5838.01, 0.0606520
5844.59, 0.0604510
5851.19, 0.0602610
5857.8, 0.0600640
5864.43, 0.0598870
5871.07, 0.0597180
5877.73, 0.0594750
5884.4, 0.0593460
5891.09, 0.0592750
5897.79, 0.0591740
5904.5, 0.0591140
5911.23, 0.0590260
5917.98, 0.0589340
5924.75, 0.0588350
5931.53, 0.0586540
5938.32, 0.0585480
5945.13, 0.0585620
5951.96, 0.0585080
5958.8, 0.0583890
5965.65, 0.0582330
5972.53, 0.0580720
5979.42, 0.0579170
5986.32, 0.0577260
5993.24, 0.0575330
6000.18, 0.0573240
6007.13, 0.0570580
6014.1, 0.0567710
6021.08, 0.0564930
6028.09, 0.0561950
6035.1, 0.0558960
6042.14, 0.0555740
6049.19, 0.0553030
6056.25, 0.0553460
6063.34, 0.0554950
6070.44, 0.0556670
6077.55, 0.0560080
6084.69, 0.0564470
6091.84, 0.0569040
6099.0, 0.0573960
6106.19, 0.0578950
6113.39, 0.0584470
6120.61, 0.0591250
6127.84, 0.0597730
6135.09, 0.0603810
6142.36, 0.0610250
6149.65, 0.0616720
6156.95, 0.0622400
6164.27, 0.0628390
6171.61, 0.0634210
6178.97, 0.0638970
6186.34, 0.0644110
6193.73, 0.0650560
6201.14, 0.0656490
6208.57, 0.0662100
6216.01, 0.0667580
6223.47, 0.0672800
6230.95, 0.0677720
6238.45, 0.0682870
6245.97, 0.0687810
6253.5, 0.0692540
6261.06, 0.0696830
6268.63, 0.0700670
6276.21, 0.0703940
6283.82, 0.0707310
6291.45, 0.0710610
6299.1, 0.0713800
6306.76, 0.0716710
6314.44, 0.0719810
6322.14, 0.0722900
6329.86, 0.0725970
6337.6, 0.0728340
6345.35, 0.0730990
6353.13, 0.0734060
6360.92, 0.0735810
6368.74, 0.0736610
6376.57, 0.0737880
6384.43, 0.0738900
6392.3, 0.0739710
6400.19, 0.0740280
6408.1, 0.0739830
6416.03, 0.0739710
6423.98, 0.0741190
6431.95, 0.0742460
6439.94, 0.0742890
6447.95, 0.0743180
6455.98, 0.0742720
6464.03, 0.0741660
6472.1, 0.0740620
6480.19, 0.0738220
6488.31, 0.0734870
6496.44, 0.0731990
6504.59, 0.0730120
6512.76, 0.0726730
6520.95, 0.0721780
6529.16, 0.0716540
6537.4, 0.0710710
6545.65, 0.0704560
6553.92, 0.0697840
6562.22, 0.0690600
6570.54, 0.0683480
6578.88, 0.0676480
6587.23, 0.0669510
6595.61, 0.0662650
6604.02, 0.0655410
6612.44, 0.0647830
6620.89, 0.0639960
6629.35, 0.0631130
6637.84, 0.0621030
6646.35, 0.0612480
6654.88, 0.0605910
6663.44, 0.0599320
6672.01, 0.0593440
6680.61, 0.0589630
6689.23, 0.0588160
6697.88, 0.0588380
6706.54, 0.0590440
6715.23, 0.0593950
6723.94, 0.0598230
6732.67, 0.0602870
6741.42, 0.0607940
6750.2, 0.0613490
6759.0, 0.0619610
6767.82, 0.0626320
6776.67, 0.0633690
6785.54, 0.0641100
6794.44, 0.0648960
6803.35, 0.0656850
6812.29, 0.0664720
6821.26, 0.0672360
6830.24, 0.0680210
6839.25, 0.0687600
6848.29, 0.0694500
6857.35, 0.0701310
6866.43, 0.0708630
6875.54, 0.0715140
6884.67, 0.0720590
6893.82, 0.0724770
6903.0, 0.0728240
6912.2, 0.0731410
6921.43, 0.0734340
6930.69, 0.0736700
6939.96, 0.0739160
6949.27, 0.0741480
6958.59, 0.0743870
6967.95, 0.0745420
6977.33, 0.0746520
6986.73, 0.0747480
6996.16, 0.0748560
7005.61, 0.0749570
7015.09, 0.0750390
7024.6, 0.0750920
7034.13, 0.0751360
7043.69, 0.0752310
7053.27, 0.0753250
7062.88, 0.0753140
7072.52, 0.0752740
7082.18, 0.0752600
7091.87, 0.0752340
7101.58, 0.0751810
7111.32, 0.0751570
7121.09, 0.0751350
7130.88, 0.0750800
7140.71, 0.0750070
7150.56, 0.0749440
7160.43, 0.0748800
7170.33, 0.0748410
7180.27, 0.0747900
7190.23, 0.0747740
7200.21, 0.0747950
7210.23, 0.0747950
7220.27, 0.0747320
7230.34, 0.0746950
7240.44, 0.0746610
7250.56, 0.0746230
7260.72, 0.0745450
7270.9, 0.0744620
7281.12, 0.0743730
7291.36, 0.0742450
7301.63, 0.0740820
7311.93, 0.0739010
7322.25, 0.0737150
7332.61, 0.0735850
7343.0, 0.0734540
7353.41, 0.0732880
7363.86, 0.0731340
7374.33, 0.0729890
7384.83, 0.0728590
7395.37, 0.0727220
7405.93, 0.0725960
7416.53, 0.0725350
7427.15, 0.0725100
7437.81, 0.0724460
7448.5, 0.0723490
7459.22, 0.0723030
7469.96, 0.0722480
7480.74, 0.0721100
7491.55, 0.0719030
7502.39, 0.0716730
7513.27, 0.0714430
7524.17, 0.0712260
7535.11, 0.0710170
7546.08, 0.0708340
7557.08, 0.0706390
7568.11, 0.0704350
7579.17, 0.0702630
7590.27, 0.0701310
7601.4, 0.0699750
7612.56, 0.0697910
7623.76, 0.0695790
7634.98, 0.0693760
7646.24, 0.0691680
7657.54, 0.0689190
7668.87, 0.0686510
7680.23, 0.0684160
7691.62, 0.0682060
7703.05, 0.0679940
7714.51, 0.0677730
7726.01, 0.0675390
7737.54, 0.0673220
7749.11, 0.0670780
7760.71, 0.0668000
7772.35, 0.0665210
7784.02, 0.0662670
7795.72, 0.0660430
7807.46, 0.0658240
7819.23, 0.0655450
7831.04, 0.0652270
7842.89, 0.0649050
7854.77, 0.0645810
7866.69, 0.0642470
7878.65, 0.0639510
7890.64, 0.0636550
7902.67, 0.0632880
7914.74, 0.0628590
7926.84, 0.0623870
7938.98, 0.0618690
7951.16, 0.0613120
7963.37, 0.0607000
7975.62, 0.0600420
7987.91, 0.0593820
8000.24, 0.0587420
8012.6, 0.0580480
8025.01, 0.0572670
8037.45, 0.0564060
8049.93, 0.0554750
8062.45, 0.0544210
8075.01, 0.0531590
8087.61, 0.0515580
8100.24, 0.0496280
8112.91, 0.0474910
8125.63, 0.0453700
8138.39, 0.0434170
8151.18, 0.0417260
8164.02, 0.0402790
8176.9, 0.0390940
8189.81, 0.0381660
8202.77, 0.0374710
8215.77, 0.0369670
8228.82, 0.0366350
8241.9, 0.0364190
8255.02, 0.0363190
8268.19, 0.0362720
8281.39, 0.0362760
8294.65, 0.0363060
8307.94, 0.0363770
8321.28, 0.0364670
8334.66, 0.0365940
8348.08, 0.0367640
8361.54, 0.0369620
8375.05, 0.0371710
8388.6, 0.0373990
8402.2, 0.0376210
8415.84, 0.0378560
8429.52, 0.0380710
8443.25, 0.0382730
8457.02, 0.0384610
8470.84, 0.0386320
8484.7, 0.0387670
8498.61, 0.0389040
8512.57, 0.0390200
8526.57, 0.0391460
8540.62, 0.0392530
8554.71, 0.0393460
8568.85, 0.0394680
8583.04, 0.0396520
8597.27, 0.0398690
8611.55, 0.0401260
8625.88, 0.0404600
8640.26, 0.0408740
8654.68, 0.0412640
8669.16, 0.0414420
8683.68, 0.0411870
8698.25, 0.0405780
8712.87, 0.0398690
8727.53, 0.0392660
8742.25, 0.0388190
8757.02, 0.0384840
8771.83, 0.0381890
8786.7, 0.0379380
8801.62, 0.0376850
8816.59, 0.0374210
8831.61, 0.0371240
8846.68, 0.0368020
8861.8, 0.0364800
8876.97, 0.0362080
8892.2, 0.0359480
8907.48, 0.0357380
8922.81, 0.0355660
8938.2, 0.0354240
8953.63, 0.0352840
8969.13, 0.0351640
8984.67, 0.0349970
9000.27, 0.0348260
9015.92, 0.0347750
9031.63, 0.0349000
9047.39, 0.0351290
9063.21, 0.0354190
9079.08, 0.0357080
9095.01, 0.0359960
9111.0, 0.0362390
9127.04, 0.0364680
9143.13, 0.0366660
9159.28, 0.0368380
9175.49, 0.0369920
9191.76, 0.0371360
9208.09, 0.0372730
9224.47, 0.0373910
9240.92, 0.0374420
9257.42, 0.0374000
9273.98, 0.0371710
9290.6, 0.0367780
9307.28, 0.0362590
9324.02, 0.0357090
9340.82, 0.0352370
9357.68, 0.0349760
9374.6, 0.0349200
9391.58, 0.0350070
9408.62, 0.0351710
9425.73, 0.0353630
9442.9, 0.0355700
9460.13, 0.0357780
9477.42, 0.0359770
9494.78, 0.0361670
9512.2, 0.0363500
9529.69, 0.0365460
9547.24, 0.0367370
9564.86, 0.0369170
9582.54, 0.0370350
9600.28, 0.0370840
9618.1, 0.0369380
9635.97, 0.0365440
9653.92, 0.0359050
9671.93, 0.0351480
9690.01, 0.0344600
9708.16, 0.0340130
9726.37, 0.0338430
9744.65, 0.0339510
9763.0, 0.0340880
9781.43, 0.0339750
9799.92, 0.0335940
9818.48, 0.0332130
9837.1, 0.0330300
9855.8, 0.0331910
9874.58, 0.0337230
9893.42, 0.0345830
9912.34, 0.0355720
9931.33, 0.0365440
9950.39, 0.0374390
9969.52, 0.0382770
9988.74, 0.0390280
10008.0, 0.0397200
10027.4, 0.0403280
10046.8, 0.0408620
10066.3, 0.0413110
10085.9, 0.0417540
10105.6, 0.0421920
10125.3, 0.0426040
10145.1, 0.0429980
10165.0, 0.0434050
10185.0, 0.0438040
10205.0, 0.0442000
10225.2, 0.0445880
10245.4, 0.0449900
10265.7, 0.0453650
10286.0, 0.0457050
10306.5, 0.0459880
10327.0, 0.0462430
10347.6, 0.0464710
10368.3, 0.0466980
10389.1, 0.0469150
10409.9, 0.0471200
10430.9, 0.0472650
10451.9, 0.0473910
10473.0, 0.0474900
10494.2, 0.0475660
10515.5, 0.0475950
10536.9, 0.0476680
10558.4, 0.0477830
10579.9, 0.0479070
10601.5, 0.0480620
10623.3, 0.0482370
10645.1, 0.0483750
10667.0, 0.0484870
10689.0, 0.0486100
10711.1, 0.0487560
10733.2, 0.0488930
10755.5, 0.0490370
10777.9, 0.0491740
10800.3, 0.0493190
10822.9, 0.0494240
10845.5, 0.0494830
10868.2, 0.0495140
10891.1, 0.0495080
10914.0, 0.0494710
10937.0, 0.0494470
10960.2, 0.0494170
10983.4, 0.0494240
11006.7, 0.0494420
11030.1, 0.0494310
11053.6, 0.0494220
11077.3, 0.0494590
11101.0, 0.0494570
11124.8, 0.0494150
11148.7, 0.0493610
11172.7, 0.0492990
11196.9, 0.0492030
11221.1, 0.0490670
11245.4, 0.0489070
11269.9, 0.0487420
11294.4, 0.0485430
11319.1, 0.0483110
11343.9, 0.0480640
11368.8, 0.0478010
11393.7, 0.0474640
11418.8, 0.0470490
11444.0, 0.0465590
11469.4, 0.0460220
11494.8, 0.0454600
11520.3, 0.0448950
11546.0, 0.0442910
11571.8, 0.0436560
11597.7, 0.0429720
11623.7, 0.0422230
11649.8, 0.0414710
11676.0, 0.0407110
11702.4, 0.0399490
11728.9, 0.0392530
11755.5, 0.0385480
11782.2, 0.0378870
11809.0, 0.0372810
11836.0, 0.0367150
11863.0, 0.0362020
11890.3, 0.0357690
11917.6, 0.0353450
11945.0, 0.0349700
11972.6, 0.0346640
12000.4, 0.0344450
12028.2, 0.0342880
12056.2, 0.0341690
12084.3, 0.0340810
12112.5, 0.0340470
12140.9, 0.0339940
12169.4, 0.0339680
12198.0, 0.0340000
12226.8, 0.0340380
12255.7, 0.0341090
12284.7, 0.0342420
12313.9, 0.0344150
12343.2, 0.0346610
12372.7, 0.0349520
12402.3, 0.0352950
12432.0, 0.0357380
12461.9, 0.0362610
12491.9, 0.0367340
12522.1, 0.0371780
12552.4, 0.0376270
12582.9, 0.0381060
12613.5, 0.0386110
12644.3, 0.0390930
12675.2, 0.0395340
12706.3, 0.0399310
12737.5, 0.0402730
12768.9, 0.0405700
12800.4, 0.0408130
12832.1, 0.0409360
12863.9, 0.0409450
12895.9, 0.0408560
12928.1, 0.0406650
12960.4, 0.0404680
12992.9, 0.0403000
13025.5, 0.0400860
13058.3, 0.0398430
13091.3, 0.0396340
13124.4, 0.0394860
13157.8, 0.0394290
13191.2, 0.0393980
13224.9, 0.0394010
13258.7, 0.0393890
13292.7, 0.0394270
13326.9, 0.0394970
13361.2, 0.0395560
13395.7, 0.0396250
13430.4, 0.0396990
13465.3, 0.0397520
13500.4, 0.0397800
13535.7, 0.0397710
13571.1, 0.0397980
13606.7, 0.0397920
13642.5, 0.0397610
13678.5, 0.0397450
13714.7, 0.0397190
13751.1, 0.0396360
13787.6, 0.0394990
13824.4, 0.0393850
13861.4, 0.0393020
13898.5, 0.0391400
13935.9, 0.0389170
13973.5, 0.0387020
14011.2, 0.0385610
14049.2, 0.0384910
14087.4, 0.0384280
14125.8, 0.0383170
14164.3, 0.0382180
14203.2, 0.0381170
14242.2, 0.0380010
14281.4, 0.0378770
14320.9, 0.0376920
14360.5, 0.0374720
14400.4, 0.0372530
14440.5, 0.0369560
14480.9, 0.0366590
14521.4, 0.0362870
14562.2, 0.0358370
14603.3, 0.0353750
14644.5, 0.0348240
14686.0, 0.0342230
14727.7, 0.0335280
14769.7, 0.0326110
14811.9, 0.0315910
14854.3, 0.0304940
14897.0, 0.0295010
14939.9, 0.0289010
14983.1, 0.0287730
15026.5, 0.0290590
15070.2, 0.0295160
15114.2, 0.0300320
15158.3, 0.0306970
15202.8, 0.0313550
15247.5, 0.0320140
15292.5, 0.0323160
15337.7, 0.0325660
15383.2, 0.0327510
15429.0, 0.0328250
15475.1, 0.0329380
15521.4, 0.0330220
15568.0, 0.0330770
15614.9, 0.0329950
15662.1, 0.0327320
15709.6, 0.0323540
15757.3, 0.0318950
15805.4, 0.0311970
15853.7, 0.0301200
15902.3, 0.0287640
15951.2, 0.0276500
16000.5, 0.0270880
16050.0, 0.0271190
16099.8, 0.0275420
16150.0, 0.0281790
16200.5, 0.0286830
16251.3, 0.0287100
16302.4, 0.0286510
16353.8, 0.0285420
16405.5, 0.0280950
16457.6, 0.0277150
16510.0, 0.0274460
16562.8, 0.0274850
16615.9, 0.0280620
16669.3, 0.0288310
16723.1, 0.0294390
16777.2, 0.0298460
16831.7, 0.0299790
16886.5, 0.0301140
16941.7, 0.0303200
16997.2, 0.0304500
17053.1, 0.0305840
17109.4, 0.0306780
17166.1, 0.0307470
17223.1, 0.0306590
17280.5, 0.0305840
17338.3, 0.0306420
17396.5, 0.0305690
17455.1, 0.0303880
17514.0, 0.0301350
17573.4, 0.0299300
17633.2, 0.0297890
17693.4, 0.0298100
17754.0, 0.0298150
17815.0, 0.0298040
17876.4, 0.0299230
17938.3, 0.0300430
18000.5, 0.0301650
18063.3, 0.0302010
18126.4, 0.0301120
18190.0, 0.0300970
18254.1, 0.0301820
18318.6, 0.0302820
18383.5, 0.0303320
18449.0, 0.0304080
18514.9, 0.0304260
18581.2, 0.0303850
18648.0, 0.0302890
18715.4, 0.0301150
18783.2, 0.0300610
18851.5, 0.0302200
18920.3, 0.0302050
18989.6, 0.0300150
19059.4, 0.0299710
19129.7, 0.0300020
19200.6, 0.0299700
19272.0, 0.0298750
19343.9, 0.0297060
19416.3, 0.0294320
19489.3, 0.0292520
19562.8, 0.0292460
19637.0, 0.0293130
19711.6, 0.0293910
19786.8, 0.0295830
19862.6, 0.0298700
19939.0, 0.0300710
20016.0, 0.0301640
20093.6, 0.0301750
20171.8, 0.0301660
20250.6, 0.0300970
20330.0, 0.0300200
20410.0, 0.0299130
20490.7, 0.0298860
20572.0, 0.0297350
20654.0, 0.0294380
20736.6, 0.0293160
20819.9, 0.0292720
20903.8, 0.0290740
20988.5, 0.0289010
21073.8, 0.0287500
21159.8, 0.0285290
21246.5, 0.0282400
21334.0, 0.0280210
21422.1, 0.0278280
21511.0, 0.0275430
21600.7, 0.0271490
21691.0, 0.0267410
21782.1, 0.0263990
21874.0, 0.0259700
21966.7, 0.0255180
22060.2, 0.0252390
22154.5, 0.0250460
22249.6, 0.0248810
22345.5, 0.0248840
22442.2, 0.0252240
22539.8, 0.0259010
22638.2, 0.0269550
22737.5, 0.0287830
22837.7, 0.0318510
22938.7, 0.0360200
23040.7, 0.0403850
23143.5, 0.0443650
23247.3, 0.0480280
23352.1, 0.0513180
23457.7, 0.0543180
23564.4, 0.0569700
23672.0, 0.0593300
23780.5, 0.0615840
23890.1, 0.0640410
24000.7, 0.0666420
24112.3, 0.0693130
24225.0, 0.0721270
24338.7, 0.0750280
24453.5, 0.0779120
24569.4, 0.0808200
24686.4, 0.0838620
24804.5, 0.0864520
24923.8, 0.0839070
25044.2, 0.0736650
25165.8, 0.0638540
25288.6, 0.0586300
25412.5, 0.0556430
25537.7, 0.0536060
25664.1, 0.0521850
25791.8, 0.0509850
25920.8, 0.0498220
26051.1, 0.0490120
26182.6, 0.0482090
26315.5, 0.0473910
26449.8, 0.0466610
26585.4, 0.0459970
26722.5, 0.0451630
26860.9, 0.0444180
27000.8, 0.0436150
27142.1, 0.0427890
27285.0, 0.0417770
27429.4, 0.0407640
27575.3, 0.0396420
27722.7, 0.0385810
27871.8, 0.0373760
28022.4, 0.0361050
28174.7, 0.0342250
28328.7, 0.0314420
28484.4, 0.0329590
28641.7, 0.0467200
28800.9, 0.0556840
28961.8, 0.0496390
29124.5, 0.0434310
29289.0, 0.0407380
29455.4, 0.0393920
29623.8, 0.0381960
29794.0, 0.0373120
29966.3, 0.0364710
30140.5, 0.0359260
30316.7, 0.0352830
30495.1, 0.0347250
30675.5, 0.0340550
30858.1, 0.0335290
31042.8, 0.0330480
31229.8, 0.0327560
31419.1, 0.0324430
31610.7, 0.0322620
31804.6, 0.0321010
32000.9, 0.0320620
32199.7, 0.0319570
32400.9, 0.0319010
32604.8, 0.0317500
32811.1, 0.0317350
33020.1, 0.0315230
33231.8, 0.0311860
33446.2, 0.0307270
33663.4, 0.0299850
33883.4, 0.0312830
34106.3, 0.0366660
34332.1, 0.0376010
34561.0, 0.0347950
34792.9, 0.0334770
35028.0, 0.0329810
35266.3, 0.0327300
35507.8, 0.0323760
35752.7, 0.0322100
36001.0, 0.0319500
36252.8, 0.0317090
36508.1, 0.0315710
36767.0, 0.0314560
37029.7, 0.0313500
37296.1, 0.0312080
37566.3, 0.0310670
37840.5, 0.0310780
38118.8, 0.0309660
38401.2, 0.0309690
38687.8, 0.0308760
38978.6, 0.0308100
39273.9, 0.0307410
39573.7, 0.0307110
39878.1, 0.0308640
40187.3, 0.0308960
40501.2, 0.0307610
40820.0, 0.0306680
41144.0, 0.0306650
41473.2, 0.0307040
41807.6, 0.0306200
42147.5, 0.0304180
42493.0, 0.0302090
42844.2, 0.0299570
43201.2, 0.0298120
43564.3, 0.0297390
43933.5, 0.0295700
44309.0, 0.0294670
44691.0, 0.0294440
45079.6, 0.0293320
45475.0, 0.0293200
45877.5, 0.0293530
46287.1, 0.0294250
46704.2, 0.0294430
47128.7, 0.0294360
47561.1, 0.0293980
48001.5, 0.0292350
48450.1, 0.0292080
48907.2, 0.0292330
49373.0, 0.0291670
49847.7, 0.0291960
50331.5, 0.0291830
50825.0, 0.0292220
51328.2, 0.0293110
51841.5, 0.0291670
52365.1, 0.0291460
52899.4, 0.0292530
53444.8, 0.0293400
54001.5, 0.0293920
54570.1, 0.0294780
55150.6, 0.0295240
55743.6, 0.0293560
56349.5, 0.0291810
56968.7, 0.0290830
57601.7, 0.0287690
58248.9, 0.0284370
58910.9, 0.0287480
59588.1, 0.0291320
60281.0, 0.0291050
60990.2, 0.0293620
61716.3, 0.0294130
62459.8, 0.0293290
63221.6, 0.0292340
64002.1, 0.0291370
64802.1, 0.0292410
65622.1, 0.0293040
66463.4, 0.0291860
67326.6, 0.0297430
68212.4, 0.0303840
69121.9, 0.0307080
70056.0, 0.0307860
71015.7, 0.0306470
72002.0, 0.0311110
73016.3, 0.0316530
74059.4, 0.0316030
75132.7, 0.0315490
76237.6, 0.0319090
77375.5, 0.0320750
78547.9, 0.0327830
79756.3, 0.0326370
81002.5, 0.0326920
82288.5, 0.0332210
83615.7, 0.0337750
84986.5, 0.0340610
86402.9, 0.0345750
87867.4, 0.0348370
89382.4, 0.0351500
90950.5, 0.0359380
92574.6, 0.0367800
94257.2, 0.0367550
96002.7, 0.0371010
97814.1, 0.0370990
99695.1, 0.0376010
101650.0, 0.0381410
103683.0, 0.0380350
105799.0, 0.0385390
108003.0, 0.0397300
110301.0, 0.0399790
112699.0, 0.0398900
115204.0, 0.0413210
117822.0, 0.0423320
120562.0, 0.0427580
123433.0, 0.0419510
126443.0, 0.0413070
129604.0, 0.0405430
132926.0, 0.0384600
136424.0, 0.0365820
140111.0, 0.0350980
144003.0, 0.0354780
148118.0, 0.0365680
152474.0, 0.0321600
157095.0, 0.0321090
162004.0, 0.0321090
167231.0, 0.0321090
172805.0, 0.0321090
178764.0, 0.0321090
185148.0, 0.0321090
192005.0, 0.0321090
199390.0, 0.0321090
207366.0, 0.0321090
216006.0, 0.0321090
