Database of Origin, USGS Spectral Database
Sample Description, See USGS database for additional info
Date Added,2016-08-03 21:28:41.171201

Data ID,USGS_cro02          
Sample ID, cronstedite_m3542.6540
Mineral Name, cronstedite
Material Class,Phyllosilicate

Wavelength
1578.13, 0.124402
1578.61, 0.124597
1579.09, 0.125476
1579.57, 0.125525
1580.05, 0.126599
1580.54, 0.125525
1581.02, 0.124548
1581.5, 0.125281
1581.98, 0.125671
1582.47, 0.124206
1582.95, 0.126746
1583.43, 0.128651
1583.92, 0.128260
1584.4, 0.128162
1584.88, 0.128016
1585.37, 0.128211
1585.85, 0.127625
1586.34, 0.127625
1586.82, 0.126697
1587.31, 0.125965
1587.8, 0.127234
1588.28, 0.127772
1588.77, 0.128700
1589.26, 0.128407
1589.74, 0.129090
1590.23, 0.130556
1590.72, 0.131826
1591.21, 0.130360
1591.7, 0.128993
1592.19, 0.128162
1592.67, 0.127918
1593.16, 0.128211
1593.65, 0.128407
1594.14, 0.130458
1594.63, 0.131093
1595.12, 0.130312
1595.61, 0.129188
1596.11, 0.128846
1596.6, 0.129579
1597.09, 0.128993
1597.58, 0.129139
1598.08, 0.128114
1598.57, 0.127723
1599.06, 0.128456
1599.55, 0.128749
1600.05, 0.131240
1600.54, 0.131874
1601.04, 0.132119
1601.53, 0.131240
1602.03, 0.130946
1602.52, 0.131435
1603.02, 0.130995
1603.51, 0.131581
1604.01, 0.132412
1604.5, 0.131874
1605.0, 0.130751
1605.5, 0.129921
1606.0, 0.130605
1606.49, 0.132705
1606.99, 0.133193
1607.49, 0.133926
1607.99, 0.133047
1608.49, 0.131484
1608.99, 0.131240
1609.49, 0.130800
1609.99, 0.130018
1610.49, 0.131288
1610.99, 0.133828
1611.49, 0.134365
1611.99, 0.134121
1612.49, 0.133535
1612.99, 0.132070
1613.49, 0.132802
1614.0, 0.133633
1614.5, 0.132949
1615.0, 0.132314
1615.51, 0.132802
1616.01, 0.132705
1616.51, 0.131826
1617.02, 0.132412
1617.52, 0.133535
1618.03, 0.134219
1618.53, 0.134463
1619.04, 0.133633
1619.54, 0.134805
1620.05, 0.135098
1620.55, 0.134610
1621.06, 0.134805
1621.57, 0.134561
1622.08, 0.135489
1622.58, 0.135147
1623.09, 0.133535
1623.6, 0.135782
1624.11, 0.136173
1624.62, 0.134658
1625.13, 0.135635
1625.64, 0.136368
1626.15, 0.135391
1626.66, 0.134512
1627.17, 0.135342
1627.68, 0.136612
1628.19, 0.136270
1628.7, 0.136270
1629.21, 0.136710
1629.72, 0.136710
1630.24, 0.136612
1630.75, 0.136759
1631.26, 0.137052
1631.78, 0.136661
1632.29, 0.137101
1632.8, 0.137638
1633.32, 0.136466
1633.83, 0.136612
1634.35, 0.136954
1634.86, 0.137540
1635.38, 0.137589
1635.9, 0.137736
1636.41, 0.137589
1636.93, 0.138419
1637.45, 0.138517
1637.96, 0.138371
1638.48, 0.138859
1639.0, 0.138615
1639.52, 0.138859
1640.04, 0.138371
1640.56, 0.137784
1641.08, 0.138615
1641.59, 0.138615
1642.11, 0.138224
1642.63, 0.139250
1643.16, 0.139054
1643.68, 0.138810
1644.2, 0.139103
1644.72, 0.137980
1645.24, 0.136905
1645.76, 0.137491
1646.29, 0.139543
1646.81, 0.140910
1647.33, 0.140959
1647.86, 0.140373
1648.38, 0.140031
1648.9, 0.140324
1649.43, 0.140422
1649.95, 0.140129
1650.48, 0.140129
1651.0, 0.140568
1651.53, 0.140520
1652.06, 0.139201
1652.58, 0.139543
1653.11, 0.141496
1653.64, 0.141057
1654.17, 0.139982
1654.69, 0.140275
1655.22, 0.141545
1655.75, 0.142376
1656.28, 0.142864
1656.81, 0.142034
1657.34, 0.141838
1657.87, 0.142717
1658.4, 0.141692
1658.93, 0.140324
1659.46, 0.141057
1659.99, 0.142669
1660.52, 0.141838
1661.05, 0.140031
1661.59, 0.140227
1662.12, 0.141057
1662.65, 0.142229
1663.19, 0.143304
1663.72, 0.143548
1664.26, 0.143499
1664.79, 0.143206
1665.32, 0.143890
1665.86, 0.142815
1666.39, 0.141838
1666.93, 0.142083
1667.47, 0.142913
1668.0, 0.142962
1668.54, 0.142376
1669.08, 0.143743
1669.61, 0.146332
1670.15, 0.145111
1670.69, 0.142864
1671.23, 0.143743
1671.77, 0.144818
1672.31, 0.145062
1672.85, 0.145013
1673.39, 0.144036
1673.93, 0.143450
1674.47, 0.143645
1675.01, 0.144232
1675.55, 0.145501
1676.09, 0.146381
1676.64, 0.145404
1677.18, 0.145013
1677.72, 0.145160
1678.26, 0.145501
1678.81, 0.146332
1679.35, 0.146771
1679.89, 0.146039
1680.44, 0.146478
1680.98, 0.147406
1681.53, 0.146918
1682.07, 0.145306
1682.62, 0.144867
1683.17, 0.145795
1683.71, 0.147406
1684.26, 0.147211
1684.81, 0.146723
1685.36, 0.146136
1685.9, 0.146723
1686.45, 0.147211
1687.0, 0.146869
1687.55, 0.146918
1688.1, 0.147309
1688.65, 0.147748
1689.2, 0.147455
1689.75, 0.147602
1690.3, 0.148579
1690.85, 0.147358
1691.41, 0.147113
1691.96, 0.148041
1692.51, 0.148139
1693.06, 0.148334
1693.61, 0.147944
1694.17, 0.148530
1694.72, 0.149214
1695.28, 0.148920
1695.83, 0.148334
1696.39, 0.148774
1696.94, 0.149946
1697.5, 0.149848
1698.05, 0.148920
1698.61, 0.149311
1699.17, 0.150630
1699.72, 0.150923
1700.28, 0.151118
1700.84, 0.150483
1701.4, 0.149311
1701.95, 0.149067
1702.51, 0.149604
1703.07, 0.150435
1703.63, 0.150190
1704.19, 0.149702
1704.75, 0.150483
1705.31, 0.150825
1705.88, 0.150776
1706.44, 0.150190
1707.0, 0.150190
1707.56, 0.150630
1708.12, 0.149848
1708.69, 0.149848
1709.25, 0.150142
1709.81, 0.150532
1710.38, 0.151949
1710.94, 0.152388
1711.51, 0.151998
1712.07, 0.152046
1712.64, 0.151900
1713.2, 0.151998
1713.77, 0.151851
1714.34, 0.151753
1714.9, 0.151460
1715.47, 0.152144
1716.04, 0.152535
1716.61, 0.151900
1717.18, 0.151314
1717.74, 0.152388
1718.31, 0.153561
1718.88, 0.153756
1719.45, 0.153072
1720.02, 0.152632
1720.59, 0.153121
1721.17, 0.154049
1721.74, 0.154879
1722.31, 0.154000
1722.88, 0.153951
1723.45, 0.154049
1724.03, 0.154489
1724.6, 0.155319
1725.18, 0.155123
1725.75, 0.154440
1726.33, 0.154537
1726.9, 0.154977
1727.48, 0.154293
1728.05, 0.154098
1728.63, 0.153609
1729.2, 0.153414
1729.78, 0.153219
1730.36, 0.153365
1730.94, 0.153707
1731.51, 0.154440
1732.09, 0.155758
1732.67, 0.156051
1733.25, 0.155710
1733.83, 0.155514
1734.41, 0.155710
1734.99, 0.155954
1735.57, 0.155270
1736.15, 0.154830
1736.73, 0.155954
1737.32, 0.155710
1737.9, 0.155661
1738.48, 0.155856
1739.07, 0.156784
1739.65, 0.157517
1740.23, 0.157175
1740.82, 0.156442
1741.4, 0.155856
1741.99, 0.156589
1742.57, 0.156735
1743.16, 0.156735
1743.74, 0.156979
1744.33, 0.157614
1744.92, 0.157566
1745.51, 0.157810
1746.09, 0.156784
1746.68, 0.156100
1747.27, 0.156442
1747.86, 0.157273
1748.45, 0.158445
1749.04, 0.159129
1749.63, 0.158835
1750.22, 0.158542
1750.81, 0.158591
1751.4, 0.158054
1751.99, 0.158103
1752.59, 0.158787
1753.18, 0.159373
1753.77, 0.159470
1754.37, 0.158640
1754.96, 0.158640
1755.56, 0.159031
1756.15, 0.159031
1756.74, 0.159177
1757.34, 0.159031
1757.94, 0.159812
1758.53, 0.160301
1759.13, 0.160008
1759.73, 0.159080
1760.32, 0.158982
1760.92, 0.160691
1761.52, 0.161180
1762.12, 0.160252
1762.72, 0.160154
1763.32, 0.160057
1763.92, 0.160789
1764.52, 0.160594
1765.12, 0.160057
1765.72, 0.159959
1766.32, 0.160398
1766.92, 0.161180
1767.53, 0.161522
1768.13, 0.162059
1768.73, 0.162499
1769.34, 0.162889
1769.94, 0.162841
1770.55, 0.161717
1771.15, 0.162108
1771.76, 0.162352
1772.36, 0.162547
1772.97, 0.162694
1773.57, 0.162743
1774.18, 0.163085
1774.79, 0.163671
1775.4, 0.163378
1776.0, 0.162938
1776.61, 0.162303
1777.22, 0.162303
1777.83, 0.162841
1778.44, 0.164062
1779.05, 0.163622
1779.66, 0.163134
1780.27, 0.163134
1780.88, 0.163134
1781.5, 0.163036
1782.11, 0.163231
1782.72, 0.163769
1783.33, 0.164404
1783.95, 0.164404
1784.56, 0.164013
1785.18, 0.164404
1785.79, 0.164892
1786.41, 0.164941
1787.02, 0.165136
1787.64, 0.165380
1788.26, 0.165771
1788.87, 0.165625
1789.49, 0.165478
1790.11, 0.165283
1790.73, 0.165332
1791.35, 0.164941
1791.96, 0.165283
1792.58, 0.166015
1793.21, 0.166504
1793.83, 0.166260
1794.45, 0.166357
1795.07, 0.166601
1795.69, 0.166748
1796.31, 0.167041
1796.93, 0.166943
1797.56, 0.166455
1798.18, 0.166455
1798.8, 0.166699
1799.43, 0.167090
1800.05, 0.167090
1800.68, 0.167090
1801.3, 0.167334
1801.93, 0.167236
1802.56, 0.166601
1803.18, 0.166943
1803.81, 0.167334
1804.44, 0.167822
1805.07, 0.168213
1805.7, 0.168018
1806.33, 0.168116
1806.95, 0.168164
1807.58, 0.167969
1808.22, 0.168116
1808.85, 0.168457
1809.48, 0.168457
1810.11, 0.167774
1810.74, 0.168067
1811.38, 0.169044
1812.01, 0.169239
1812.64, 0.169532
1813.28, 0.169288
1813.91, 0.169190
1814.55, 0.169385
1815.18, 0.169630
1815.82, 0.170118
1816.45, 0.170216
1817.09, 0.170460
1817.73, 0.170411
1818.36, 0.170606
1819.0, 0.170265
1819.64, 0.169483
1820.28, 0.169239
1820.92, 0.169483
1821.56, 0.169776
1822.2, 0.170118
1822.84, 0.170265
1823.48, 0.170753
1824.12, 0.170753
1824.76, 0.170265
1825.41, 0.170460
1826.05, 0.170558
1826.69, 0.170704
1827.34, 0.171388
1827.98, 0.171388
1828.63, 0.171241
1829.27, 0.171193
1829.92, 0.170802
1830.56, 0.171241
1831.21, 0.171779
1831.86, 0.172023
1832.5, 0.171828
1833.15, 0.172218
1833.8, 0.172316
1834.45, 0.171974
1835.1, 0.171730
1835.75, 0.171241
1836.4, 0.171534
1837.05, 0.172609
1837.7, 0.172756
1838.35, 0.172804
1839.01, 0.172707
1839.66, 0.172902
1840.31, 0.173635
1840.96, 0.173586
1841.62, 0.172463
1842.27, 0.172707
1842.93, 0.173586
1843.58, 0.174025
1844.24, 0.174514
1844.9, 0.173879
1845.55, 0.173635
1846.21, 0.174221
1846.87, 0.174025
1847.53, 0.173732
1848.18, 0.173977
1848.84, 0.175100
1849.5, 0.175002
1850.16, 0.174319
1850.82, 0.174319
1851.48, 0.174514
1852.14, 0.174807
1852.81, 0.174758
1853.47, 0.174514
1854.13, 0.174612
1854.8, 0.175295
1855.46, 0.175637
1856.12, 0.175540
1856.79, 0.175344
1857.45, 0.175247
1858.12, 0.176272
1858.79, 0.176516
1859.45, 0.175784
1860.12, 0.176370
1860.79, 0.176956
1861.46, 0.176663
1862.12, 0.176272
1862.79, 0.176761
1863.46, 0.176907
1864.13, 0.176712
1864.8, 0.176712
1865.48, 0.177249
1866.15, 0.177005
1866.82, 0.176468
1867.49, 0.176614
1868.16, 0.177103
1868.84, 0.177347
1869.51, 0.177542
1870.19, 0.177347
1870.86, 0.177298
1871.54, 0.177884
1872.21, 0.177298
1872.89, 0.176614
1873.56, 0.177103
1874.24, 0.178031
1874.92, 0.178714
1875.6, 0.178763
1876.28, 0.178226
1876.96, 0.178079
1877.64, 0.178714
1878.32, 0.178763
1879.0, 0.179007
1879.68, 0.179349
1880.36, 0.179545
1881.04, 0.179154
1881.73, 0.178763
1882.41, 0.178421
1883.09, 0.178665
1883.78, 0.179252
1884.46, 0.179984
1885.15, 0.179545
1885.83, 0.179105
1886.52, 0.179593
1887.21, 0.180082
1887.89, 0.180375
1888.58, 0.180815
1889.27, 0.180570
1889.96, 0.179789
1890.65, 0.179887
1891.34, 0.180570
1892.03, 0.180863
1892.72, 0.180961
1893.41, 0.181010
1894.1, 0.181010
1894.79, 0.181059
1895.49, 0.181205
1896.18, 0.180961
1896.87, 0.180912
1897.57, 0.181645
1898.26, 0.181791
1898.96, 0.181303
1899.65, 0.180668
1900.35, 0.181010
1901.05, 0.181352
1901.74, 0.181840
1902.44, 0.181987
1903.14, 0.181840
1903.84, 0.181791
1904.54, 0.181791
1905.24, 0.181401
1905.94, 0.181645
1906.64, 0.182133
1907.34, 0.182622
1908.04, 0.183159
1908.75, 0.183208
1909.45, 0.183354
1910.15, 0.183745
1910.86, 0.183599
1911.56, 0.183403
1912.27, 0.183647
1912.97, 0.183452
1913.68, 0.183550
1914.39, 0.183794
1915.09, 0.183696
1915.8, 0.183843
1916.51, 0.184331
1917.22, 0.185259
1917.93, 0.185601
1918.64, 0.184722
1919.35, 0.183696
1920.06, 0.183501
1920.77, 0.184136
1921.48, 0.185210
1922.19, 0.185796
1922.91, 0.185503
1923.62, 0.184868
1924.33, 0.185113
1925.05, 0.185552
1925.76, 0.185601
1926.48, 0.185601
1927.19, 0.185503
1927.91, 0.185503
1928.63, 0.186090
1929.35, 0.186236
1930.07, 0.185992
1930.78, 0.185699
1931.5, 0.186041
1932.22, 0.187018
1932.94, 0.186822
1933.66, 0.186480
1934.39, 0.186969
1935.11, 0.187262
1935.83, 0.187115
1936.55, 0.187018
1937.28, 0.187408
1938.0, 0.187604
1938.73, 0.187799
1939.45, 0.187897
1940.18, 0.187408
1940.9, 0.187799
1941.63, 0.188141
1942.36, 0.187994
1943.09, 0.187848
1943.81, 0.187848
1944.54, 0.187897
1945.27, 0.188336
1946.0, 0.188385
1946.73, 0.188239
1947.47, 0.188287
1948.2, 0.188825
1948.93, 0.189411
1949.66, 0.189264
1950.4, 0.189508
1951.13, 0.189411
1951.86, 0.189118
1952.6, 0.189264
1953.34, 0.189215
1954.07, 0.189069
1954.81, 0.189411
1955.55, 0.189899
1956.29, 0.190290
1957.02, 0.190681
1957.76, 0.190681
1958.5, 0.190192
1959.24, 0.190339
1959.98, 0.190681
1960.72, 0.190534
1961.47, 0.190583
1962.21, 0.190632
1962.95, 0.190974
1963.7, 0.190974
1964.44, 0.190827
1965.18, 0.190974
1965.93, 0.191218
1966.67, 0.191413
1967.42, 0.191023
1968.17, 0.191071
1968.92, 0.191951
1969.66, 0.191999
1970.41, 0.191755
1971.16, 0.191853
1971.91, 0.192048
1972.66, 0.191999
1973.41, 0.192048
1974.16, 0.192488
1974.92, 0.192439
1975.67, 0.192146
1976.42, 0.192439
1977.18, 0.192732
1977.93, 0.192732
1978.69, 0.192879
1979.44, 0.192439
1980.2, 0.192390
1980.95, 0.192537
1981.71, 0.192830
1982.47, 0.193123
1983.23, 0.193074
1983.99, 0.193025
1984.74, 0.192830
1985.51, 0.193221
1986.27, 0.193758
1987.03, 0.193855
1987.79, 0.193807
1988.55, 0.193953
1989.32, 0.193660
1990.08, 0.193660
1990.84, 0.194149
1991.61, 0.194393
1992.37, 0.194149
1993.14, 0.194197
1993.9, 0.194539
1994.67, 0.194979
1995.44, 0.194735
1996.21, 0.195077
1996.98, 0.195321
1997.75, 0.195125
1998.52, 0.195174
1999.29, 0.195418
2000.06, 0.195174
2000.83, 0.195272
2001.6, 0.195467
2002.38, 0.195565
2003.15, 0.195565
2003.93, 0.195711
2004.7, 0.195711
2005.48, 0.195956
2006.25, 0.196346
2007.03, 0.196005
2007.81, 0.195711
2008.58, 0.196151
2009.36, 0.196151
2010.14, 0.196249
2010.92, 0.196493
2011.7, 0.196591
2012.48, 0.196786
2013.26, 0.196786
2014.05, 0.196591
2014.83, 0.196786
2015.61, 0.196884
2016.4, 0.196884
2017.18, 0.197421
2017.97, 0.197812
2018.75, 0.197958
2019.54, 0.197958
2020.32, 0.197958
2021.11, 0.198105
2021.9, 0.197958
2022.69, 0.197909
2023.48, 0.198154
2024.27, 0.198349
2025.06, 0.198544
2025.85, 0.198544
2026.64, 0.198691
2027.44, 0.199130
2028.23, 0.199277
2029.02, 0.199130
2029.82, 0.198886
2030.61, 0.199033
2031.41, 0.199472
2032.2, 0.199717
2033.0, 0.199570
2033.8, 0.199521
2034.6, 0.199717
2035.4, 0.199521
2036.2, 0.199375
2037.0, 0.199570
2037.8, 0.199863
2038.6, 0.199912
2039.4, 0.200352
2040.2, 0.200498
2041.01, 0.200254
2041.81, 0.200010
2042.61, 0.200303
2043.42, 0.200352
2044.22, 0.200596
2045.03, 0.200840
2045.84, 0.201035
2046.65, 0.201426
2047.46, 0.201377
2048.26, 0.201182
2049.07, 0.200889
2049.88, 0.201133
2050.69, 0.201328
2051.51, 0.201426
2052.32, 0.201621
2053.13, 0.201719
2053.94, 0.201768
2054.76, 0.201914
2055.57, 0.202061
2056.39, 0.202354
2057.2, 0.202598
2058.02, 0.202452
2058.84, 0.202549
2059.66, 0.202891
2060.48, 0.203184
2061.29, 0.203233
2062.11, 0.203575
2062.94, 0.204210
2063.76, 0.203722
2064.58, 0.202989
2065.4, 0.203429
2066.22, 0.204112
2067.05, 0.204308
2067.87, 0.204161
2068.7, 0.203966
2069.52, 0.204064
2070.35, 0.204161
2071.18, 0.203917
2072.0, 0.203722
2072.83, 0.203819
2073.66, 0.204210
2074.49, 0.204894
2075.32, 0.205138
2076.15, 0.205187
2076.98, 0.205431
2077.82, 0.205138
2078.65, 0.205236
2079.48, 0.205480
2080.32, 0.205968
2081.15, 0.205871
2081.99, 0.205724
2082.83, 0.206115
2083.66, 0.206261
2084.5, 0.206213
2085.34, 0.206310
2086.18, 0.206359
2087.02, 0.206213
2087.86, 0.206213
2088.7, 0.206457
2089.54, 0.206750
2090.39, 0.206652
2091.23, 0.206506
2092.07, 0.206506
2092.92, 0.206555
2093.76, 0.206603
2094.61, 0.206848
2095.45, 0.207092
2096.3, 0.207141
2097.15, 0.207141
2098.0, 0.207287
2098.85, 0.207189
2099.7, 0.207434
2100.55, 0.207873
2101.4, 0.207873
2102.25, 0.207971
2103.1, 0.208020
2103.96, 0.208020
2104.81, 0.207971
2105.67, 0.208117
2106.52, 0.208264
2107.38, 0.208313
2108.24, 0.208508
2109.09, 0.208752
2109.95, 0.208850
2110.81, 0.209094
2111.67, 0.209094
2112.53, 0.208752
2113.39, 0.209045
2114.25, 0.209290
2115.12, 0.209290
2115.98, 0.209583
2116.84, 0.209241
2117.71, 0.208948
2118.58, 0.209387
2119.44, 0.209583
2120.31, 0.210071
2121.18, 0.210169
2122.04, 0.209925
2122.91, 0.209778
2123.78, 0.210169
2124.65, 0.210315
2125.52, 0.210267
2126.4, 0.210169
2127.27, 0.210267
2128.14, 0.210364
2129.02, 0.210804
2129.89, 0.211048
2130.77, 0.210999
2131.64, 0.210853
2132.52, 0.210853
2133.4, 0.211195
2134.27, 0.211390
2135.15, 0.211536
2136.03, 0.211683
2136.91, 0.211976
2137.79, 0.211732
2138.68, 0.211488
2139.56, 0.211341
2140.44, 0.211781
2141.33, 0.212123
2142.21, 0.211732
2143.1, 0.212074
2143.99, 0.212513
2144.87, 0.212806
2145.76, 0.212757
2146.65, 0.212709
2147.54, 0.213002
2148.43, 0.212953
2149.32, 0.212806
2150.21, 0.213051
2151.1, 0.213197
2151.99, 0.213344
2152.89, 0.213441
2153.78, 0.213197
2154.68, 0.213148
2155.57, 0.213344
2156.47, 0.213588
2157.37, 0.214027
2158.27, 0.214076
2159.16, 0.214223
2160.06, 0.214369
2160.96, 0.214418
2161.86, 0.214369
2162.77, 0.214174
2163.67, 0.214076
2164.57, 0.214369
2165.48, 0.214858
2166.38, 0.215151
2167.29, 0.215248
2168.2, 0.215053
2169.1, 0.214809
2170.01, 0.214711
2170.92, 0.214711
2171.83, 0.215102
2172.74, 0.215395
2173.65, 0.215248
2174.56, 0.215346
2175.47, 0.215444
2176.39, 0.215493
2177.3, 0.215835
2178.22, 0.215883
2179.13, 0.216079
2180.05, 0.216030
2180.96, 0.215786
2181.88, 0.216079
2182.8, 0.216665
2183.72, 0.216518
2184.64, 0.216323
2185.56, 0.216176
2186.48, 0.216225
2187.41, 0.216225
2188.33, 0.216225
2189.25, 0.216470
2190.18, 0.216714
2191.1, 0.216860
2192.03, 0.217056
2192.96, 0.217104
2193.89, 0.217056
2194.82, 0.217202
2195.74, 0.217056
2196.68, 0.217056
2197.61, 0.217446
2198.54, 0.217495
2199.47, 0.217398
2200.4, 0.217544
2201.34, 0.217642
2202.28, 0.217446
2203.21, 0.217739
2204.15, 0.218032
2205.08, 0.218130
2206.02, 0.217935
2206.96, 0.218081
2207.9, 0.218179
2208.84, 0.218032
2209.78, 0.217837
2210.73, 0.217984
2211.67, 0.218423
2212.61, 0.218423
2213.56, 0.218326
2214.5, 0.218521
2215.45, 0.218521
2216.4, 0.218619
2217.35, 0.218863
2218.3, 0.219009
2219.24, 0.218912
2220.2, 0.219058
2221.15, 0.219058
2222.1, 0.218960
2223.05, 0.219254
2224.0, 0.219693
2224.96, 0.219449
2225.91, 0.219400
2226.87, 0.219644
2227.83, 0.219644
2228.79, 0.219644
2229.74, 0.219449
2230.7, 0.219595
2231.66, 0.220084
2232.63, 0.220279
2233.59, 0.220182
2234.55, 0.219986
2235.51, 0.220279
2236.48, 0.220475
2237.44, 0.220230
2238.41, 0.220182
2239.38, 0.220523
2240.34, 0.220865
2241.31, 0.220865
2242.28, 0.220914
2243.25, 0.220621
2244.22, 0.220328
2245.19, 0.220523
2246.17, 0.220914
2247.14, 0.220865
2248.12, 0.220963
2249.09, 0.221012
2250.07, 0.220963
2251.04, 0.221256
2252.02, 0.221500
2253.0, 0.221354
2253.98, 0.221549
2254.96, 0.221500
2255.94, 0.221451
2256.92, 0.221451
2257.91, 0.221403
2258.89, 0.221012
2259.88, 0.221061
2260.86, 0.221500
2261.85, 0.221793
2262.83, 0.221842
2263.82, 0.221598
2264.81, 0.221549
2265.8, 0.221744
2266.79, 0.222038
2267.78, 0.222086
2268.78, 0.221989
2269.77, 0.221989
2270.76, 0.221940
2271.76, 0.221891
2272.75, 0.221793
2273.75, 0.221940
2274.75, 0.221744
2275.75, 0.221940
2276.75, 0.222379
2277.75, 0.222477
2278.75, 0.222282
2279.75, 0.222184
2280.75, 0.222282
2281.76, 0.222379
2282.76, 0.222477
2283.77, 0.222575
2284.77, 0.222428
2285.78, 0.222575
2286.79, 0.222917
2287.8, 0.222868
2288.81, 0.222721
2289.82, 0.222526
2290.83, 0.222379
2291.84, 0.222379
2292.86, 0.222184
2293.87, 0.222282
2294.89, 0.222477
2295.91, 0.222428
2296.92, 0.222575
2297.94, 0.222526
2298.96, 0.222428
2299.98, 0.222379
2301.0, 0.222331
2302.02, 0.222379
2303.04, 0.222526
2304.07, 0.222331
2305.09, 0.222086
2306.12, 0.221696
2307.15, 0.221451
2308.17, 0.221110
2309.2, 0.221110
2310.23, 0.221256
2311.26, 0.221256
2312.29, 0.221012
2313.32, 0.220865
2314.35, 0.220670
2315.39, 0.220719
2316.42, 0.220719
2317.46, 0.220328
2318.5, 0.219986
2319.53, 0.219888
2320.57, 0.219595
2321.61, 0.219449
2322.65, 0.219498
2323.69, 0.219302
2324.73, 0.219009
2325.78, 0.218765
2326.82, 0.218716
2327.86, 0.219058
2328.91, 0.219156
2329.96, 0.219058
2331.01, 0.219254
2332.05, 0.219156
2333.1, 0.219107
2334.15, 0.219302
2335.21, 0.219595
2336.26, 0.220035
2337.31, 0.220328
2338.36, 0.220475
2339.42, 0.220621
2340.48, 0.220670
2341.53, 0.220865
2342.59, 0.221305
2343.65, 0.221500
2344.71, 0.221549
2345.77, 0.221549
2346.83, 0.221744
2347.9, 0.221891
2348.96, 0.221793
2350.02, 0.222038
2351.09, 0.222135
2352.16, 0.221793
2353.23, 0.221940
2354.29, 0.222184
2355.36, 0.222282
2356.43, 0.222331
2357.51, 0.222428
2358.58, 0.222477
2359.65, 0.222331
2360.73, 0.222331
2361.8, 0.222233
2362.88, 0.222233
2363.96, 0.222331
2365.03, 0.222477
2366.11, 0.222477
2367.19, 0.222282
2368.27, 0.222331
2369.36, 0.222477
2370.44, 0.222624
2371.53, 0.222477
2372.61, 0.222331
2373.7, 0.222282
2374.78, 0.222184
2375.87, 0.222086
2376.96, 0.222135
2378.05, 0.222331
2379.14, 0.222331
2380.24, 0.222331
2381.33, 0.222477
2382.42, 0.222672
2383.52, 0.222672
2384.61, 0.222721
2385.71, 0.222966
2386.81, 0.223161
2387.91, 0.223161
2389.01, 0.223161
2390.11, 0.223503
2391.22, 0.224040
2392.32, 0.224187
2393.42, 0.224284
2394.53, 0.224773
2395.64, 0.225212
2396.74, 0.225163
2397.85, 0.225408
2398.96, 0.225603
2400.07, 0.225701
2401.18, 0.225798
2402.3, 0.225994
2403.41, 0.226189
2404.52, 0.226238
2405.64, 0.226336
2406.76, 0.226140
2407.88, 0.226287
2408.99, 0.226482
2410.11, 0.226482
2411.23, 0.226580
2412.36, 0.226873
2413.48, 0.227068
2414.6, 0.227117
2415.73, 0.227019
2416.85, 0.227117
2417.98, 0.227215
2419.11, 0.227313
2420.24, 0.227606
2421.37, 0.227361
2422.5, 0.227313
2423.64, 0.227557
2424.77, 0.227801
2425.9, 0.227899
2427.04, 0.227899
2428.18, 0.227996
2429.31, 0.228094
2430.45, 0.228192
2431.59, 0.228338
2432.73, 0.228289
2433.88, 0.228582
2435.02, 0.228827
2436.16, 0.228827
2437.31, 0.228875
2438.45, 0.228778
2439.6, 0.229022
2440.75, 0.229266
2441.9, 0.229266
2443.05, 0.229169
2444.2, 0.229364
2445.35, 0.229462
2446.51, 0.229657
2447.67, 0.229803
2448.82, 0.229608
2449.98, 0.229413
2451.14, 0.229462
2452.3, 0.229510
2453.46, 0.229510
2454.62, 0.229413
2455.78, 0.229608
2456.94, 0.229901
2458.11, 0.229999
2459.28, 0.229755
2460.44, 0.229706
2461.61, 0.229803
2462.78, 0.229901
2463.95, 0.229852
2465.12, 0.229852
2466.3, 0.230194
2467.47, 0.230487
2468.65, 0.230341
2469.82, 0.230243
2471.0, 0.230194
2472.18, 0.229950
2473.36, 0.230145
2474.54, 0.230487
2475.72, 0.230487
2476.9, 0.230145
2478.08, 0.230292
2479.27, 0.230438
2480.46, 0.230194
2481.64, 0.230048
2482.83, 0.230292
2484.02, 0.230438
2485.21, 0.230390
2486.4, 0.230341
2487.6, 0.230438
2488.79, 0.230487
2489.99, 0.230292
2491.18, 0.230145
2492.38, 0.230194
2493.58, 0.230194
2494.78, 0.230292
2495.98, 0.230536
2497.18, 0.230585
2498.39, 0.230341
2499.59, 0.230097
2500.8, 0.230145
2502.01, 0.230243
2503.21, 0.230390
2504.42, 0.230341
2505.63, 0.230194
2506.84, 0.230243
2508.06, 0.230341
2509.27, 0.230243
2510.49, 0.229950
2511.7, 0.230097
2512.92, 0.230438
2514.14, 0.230194
2515.36, 0.229999
2516.58, 0.230145
2517.8, 0.229999
2519.03, 0.229803
2520.25, 0.229999
2521.48, 0.230292
2522.7, 0.230194
2523.93, 0.230145
2525.16, 0.230145
2526.39, 0.230145
2527.62, 0.230243
2528.86, 0.230390
2530.09, 0.230145
2531.33, 0.229706
2532.56, 0.229608
2533.8, 0.229999
2535.04, 0.229608
2536.28, 0.229364
2537.52, 0.229950
2538.76, 0.230390
2540.01, 0.230634
2541.25, 0.230097
2542.5, 0.229217
2543.75, 0.229510
2544.99, 0.230097
2546.24, 0.230048
2547.49, 0.229413
2548.75, 0.229852
2550.0, 0.229852
2551.26, 0.229169
2552.51, 0.228582
2553.77, 0.229559
2555.03, 0.230780
2556.29, 0.230927
2557.55, 0.230731
2558.81, 0.229950
2560.08, 0.227508
2561.34, 0.225212
2562.61, 0.225212
2563.88, 0.225945
2565.14, 0.228045
2566.41, 0.230292
2567.68, 0.229803
2568.96, 0.227264
2570.23, 0.227508
2571.51, 0.228778
2572.78, 0.225798
2574.06, 0.226336
2575.34, 0.227606
2576.62, 0.226482
2577.9, 0.227899
2579.18, 0.228973
2580.47, 0.227459
2581.75, 0.227215
2583.04, 0.224529
2584.32, 0.224284
2585.61, 0.226726
2586.9, 0.225408
2588.2, 0.225994
2589.49, 0.227459
2590.78, 0.228534
2592.08, 0.227361
2593.37, 0.220035
2594.67, 0.213246
2595.97, 0.219400
2597.27, 0.226482
2598.57, 0.228924
2599.88, 0.228485
2601.18, 0.227068
2602.49, 0.225945
2603.79, 0.223649
2605.1, 0.220621
2606.41, 0.222233
2607.72, 0.224968
2609.03, 0.225554
2610.35, 0.226287
2611.66, 0.226873
2612.98, 0.226433
2614.3, 0.226678
2615.62, 0.223161
2616.94, 0.220865
2618.26, 0.223552
2619.58, 0.221451
2620.91, 0.221891
2622.23, 0.226433
2623.56, 0.227313
2624.89, 0.225408
2626.22, 0.221793
2627.55, 0.223454
2628.88, 0.222721
2630.21, 0.219156
2631.55, 0.222086
2632.89, 0.223991
2634.22, 0.224235
2635.56, 0.225896
2636.9, 0.226043
2638.25, 0.225798
2639.59, 0.225457
2640.93, 0.224773
2642.28, 0.224284
2643.63, 0.224431
2644.98, 0.222966
2646.33, 0.222917
2647.68, 0.224138
2649.03, 0.224529
2650.39, 0.223454
2651.74, 0.221158
2653.1, 0.221012
2654.46, 0.221598
2655.82, 0.221354
2657.18, 0.222379
2658.54, 0.221061
2659.9, 0.220035
2661.27, 0.220133
2662.64, 0.219937
2664.01, 0.215151
2665.38, 0.210755
2666.74, 0.210804
2668.12, 0.214027
2669.49, 0.209729
2670.87, 0.208899
2672.24, 0.215737
2673.62, 0.216811
2675.0, 0.213832
2676.38, 0.210511
2677.76, 0.210608
2679.15, 0.211341
2680.54, 0.214418
2681.92, 0.214711
2683.31, 0.213099
2684.7, 0.212709
2686.09, 0.212318
2687.48, 0.212171
2688.88, 0.212269
2690.27, 0.212220
2691.67, 0.210413
2693.07, 0.206066
2694.47, 0.204747
2695.87, 0.206603
2697.27, 0.208020
2698.67, 0.207824
2700.08, 0.206066
2701.49, 0.204845
2702.9, 0.205431
2704.31, 0.204894
2705.72, 0.204112
2707.13, 0.202354
2708.54, 0.198789
2709.96, 0.194735
2711.38, 0.194393
2712.8, 0.197958
2714.22, 0.198447
2715.64, 0.197372
2717.06, 0.195565
2718.49, 0.192341
2719.91, 0.186334
2721.34, 0.186676
2722.77, 0.187359
2724.2, 0.184087
2725.63, 0.185259
2727.07, 0.187359
2728.5, 0.187066
2729.94, 0.185650
2731.38, 0.184136
2732.82, 0.181743
2734.26, 0.178079
2735.7, 0.176956
2737.15, 0.175784
2738.59, 0.170460
2740.04, 0.166748
2741.49, 0.167041
2742.94, 0.168311
2744.39, 0.167529
2745.84, 0.165478
2747.3, 0.163378
2748.76, 0.161180
2750.21, 0.158298
2751.67, 0.155172
2753.14, 0.151509
2754.6, 0.145257
2756.06, 0.142180
2757.53, 0.142424
2759.0, 0.140471
2760.46, 0.136466
2761.94, 0.131288
2763.41, 0.127430
2764.88, 0.124695
2766.36, 0.120983
2767.83, 0.117173
2769.31, 0.113510
2770.79, 0.109456
2772.27, 0.106769
2773.76, 0.104327
2775.24, 0.101446
2776.73, 0.0982710
2778.22, 0.0956820
2779.71, 0.0932400
2781.2, 0.0907000
2782.69, 0.0888440
2784.18, 0.0871350
2785.68, 0.0846440
2787.18, 0.0825440
2788.68, 0.0814200
2790.18, 0.0805410
2791.68, 0.0793690
2793.19, 0.0780990
2794.69, 0.0768780
2796.2, 0.0758030
2797.71, 0.0748750
2799.22, 0.0741430
2800.73, 0.0728240
2802.24, 0.0714080
2803.76, 0.0705770
2805.28, 0.0705770
2806.8, 0.0704310
2808.32, 0.0700400
2809.84, 0.0696000
2811.36, 0.0692590
2812.89, 0.0690140
2814.42, 0.0686240
2815.94, 0.0683790
2817.48, 0.0680860
2819.01, 0.0675980
2820.54, 0.0673540
2822.08, 0.0671580
2823.61, 0.0667680
2825.15, 0.0664260
2826.69, 0.0659860
2828.23, 0.0654980
2829.78, 0.0651560
2831.32, 0.0647160
2832.87, 0.0642770
2834.42, 0.0638860
2835.97, 0.0636420
2837.52, 0.0633000
2839.08, 0.0630070
2840.63, 0.0628110
2842.19, 0.0625670
2843.75, 0.0624210
2845.31, 0.0621760
2846.87, 0.0617370
2848.44, 0.0614440
2850.0, 0.0613460
2851.57, 0.0612000
2853.14, 0.0608580
2854.71, 0.0607110
2856.28, 0.0607600
2857.86, 0.0606620
2859.43, 0.0605160
2861.01, 0.0604670
2862.59, 0.0603690
2864.17, 0.0603200
2865.76, 0.0602230
2867.34, 0.0602720
2868.93, 0.0603200
2870.52, 0.0601250
2872.11, 0.0601250
2873.7, 0.0603690
2875.29, 0.0603690
2876.89, 0.0603200
2878.49, 0.0604180
2880.08, 0.0603200
2881.69, 0.0602720
2883.29, 0.0603690
2884.89, 0.0604670
2886.5, 0.0604180
2888.11, 0.0603690
2889.72, 0.0605160
2891.33, 0.0605650
2892.94, 0.0603200
2894.56, 0.0601740
2896.17, 0.0602230
2897.79, 0.0600760
2899.42, 0.0597830
2901.04, 0.0597830
2902.66, 0.0599300
2904.29, 0.0599300
2905.92, 0.0598320
2907.55, 0.0595390
2909.18, 0.0592950
2910.81, 0.0591970
2912.45, 0.0590990
2914.08, 0.0589530
2915.72, 0.0587090
2917.36, 0.0586110
2919.01, 0.0585620
2920.65, 0.0584160
2922.3, 0.0582200
2923.94, 0.0580250
2925.59, 0.0578290
2927.25, 0.0577810
2928.9, 0.0575850
2930.56, 0.0574390
2932.21, 0.0574390
2933.87, 0.0574390
2935.53, 0.0574390
2937.2, 0.0574390
2938.86, 0.0574390
2940.53, 0.0573410
2942.2, 0.0571460
2943.87, 0.0569990
2945.54, 0.0569500
2947.22, 0.0567550
2948.89, 0.0567060
2950.57, 0.0565590
2952.25, 0.0563150
2953.93, 0.0560710
2955.62, 0.0559250
2957.3, 0.0558270
2958.99, 0.0558270
2960.68, 0.0555830
2962.37, 0.0552410
2964.07, 0.0549480
2965.76, 0.0547030
2967.46, 0.0544590
2969.16, 0.0543130
2970.86, 0.0542150
2972.56, 0.0538730
2974.27, 0.0536780
2975.98, 0.0536290
2977.69, 0.0533360
2979.4, 0.0529940
2981.11, 0.0528960
2982.83, 0.0526520
2984.54, 0.0523590
2986.26, 0.0522130
2987.98, 0.0521150
2989.71, 0.0519680
2991.43, 0.0518710
2993.16, 0.0517730
2994.89, 0.0515780
2996.62, 0.0513330
2998.35, 0.0512850
3000.09, 0.0510890
3001.83, 0.0508940
3003.57, 0.0508450
3005.31, 0.0506980
3007.05, 0.0505030
3008.79, 0.0505030
3010.54, 0.0505030
3012.29, 0.0503080
3014.04, 0.0502590
3015.8, 0.0501610
3017.55, 0.0500630
3019.31, 0.0499660
3021.07, 0.0499660
3022.83, 0.0499660
3024.59, 0.0498190
3026.36, 0.0497700
3028.13, 0.0497700
3029.9, 0.0498190
3031.67, 0.0497220
3033.44, 0.0496730
3035.22, 0.0497220
3037.0, 0.0496730
3038.78, 0.0496240
3040.56, 0.0495750
3042.34, 0.0495750
3044.13, 0.0495750
3045.92, 0.0496730
3047.71, 0.0496240
3049.5, 0.0495260
3051.3, 0.0496240
3053.09, 0.0498190
3054.89, 0.0498190
3056.69, 0.0499170
3058.5, 0.0499170
3060.3, 0.0500150
3062.11, 0.0500630
3063.92, 0.0500150
3065.73, 0.0500630
3067.55, 0.0501610
3069.36, 0.0502100
3071.18, 0.0503570
3073.0, 0.0506010
3074.82, 0.0506500
3076.65, 0.0506980
3078.48, 0.0507470
3080.31, 0.0507470
3082.14, 0.0507960
3083.97, 0.0510400
3085.8, 0.0512850
3087.64, 0.0513330
3089.48, 0.0513820
3091.33, 0.0514800
3093.17, 0.0515780
3095.02, 0.0517240
3096.87, 0.0519190
3098.72, 0.0521640
3100.57, 0.0522130
3102.43, 0.0522610
3104.28, 0.0524080
3106.14, 0.0526520
3108.01, 0.0527990
3109.87, 0.0528470
3111.74, 0.0530430
3113.61, 0.0532380
3115.48, 0.0533850
3117.35, 0.0535800
3119.23, 0.0537270
3121.1, 0.0538730
3122.98, 0.0541170
3124.87, 0.0543620
3126.75, 0.0546550
3128.64, 0.0548010
3130.53, 0.0549970
3132.42, 0.0552410
3134.31, 0.0554360
3136.21, 0.0556310
3138.11, 0.0559730
3140.01, 0.0563150
3141.91, 0.0565590
3143.82, 0.0567060
3145.73, 0.0568530
3147.64, 0.0570970
3149.55, 0.0573410
3151.46, 0.0576340
3153.38, 0.0580250
3155.3, 0.0582200
3157.22, 0.0583670
3159.14, 0.0587090
3161.07, 0.0588550
3163.0, 0.0590990
3164.93, 0.0594410
3166.86, 0.0598810
3168.8, 0.0601740
3170.74, 0.0604180
3172.68, 0.0607110
3174.62, 0.0610040
3176.56, 0.0612000
3178.51, 0.0615900
3180.46, 0.0619810
3182.42, 0.0622740
3184.37, 0.0625180
3186.33, 0.0629090
3188.29, 0.0633490
3190.25, 0.0635930
3192.21, 0.0637880
3194.18, 0.0640320
3196.15, 0.0645210
3198.12, 0.0649600
3200.09, 0.0652530
3202.07, 0.0655950
3204.05, 0.0659370
3206.03, 0.0662300
3208.02, 0.0665720
3210.0, 0.0668650
3211.99, 0.0671580
3213.98, 0.0675000
3215.98, 0.0679400
3217.97, 0.0682820
3219.97, 0.0685260
3221.97, 0.0687700
3223.98, 0.0692100
3225.98, 0.0696000
3227.99, 0.0699910
3230.0, 0.0703330
3232.02, 0.0706750
3234.03, 0.0710660
3236.05, 0.0715540
3238.07, 0.0718960
3240.1, 0.0721400
3242.12, 0.0724820
3244.15, 0.0729220
3246.18, 0.0732640
3248.22, 0.0735570
3250.25, 0.0739470
3252.29, 0.0742890
3254.33, 0.0746800
3256.38, 0.0750220
3258.43, 0.0754130
3260.47, 0.0759010
3262.53, 0.0763900
3264.58, 0.0766830
3266.64, 0.0768780
3268.7, 0.0773180
3270.76, 0.0777570
3272.82, 0.0781970
3274.89, 0.0785870
3276.96, 0.0788800
3279.04, 0.0792220
3281.11, 0.0795640
3283.19, 0.0801020
3285.27, 0.0805900
3287.35, 0.0810780
3289.44, 0.0815180
3291.53, 0.0818600
3293.62, 0.0822510
3295.71, 0.0825920
3297.81, 0.0830320
3299.91, 0.0835200
3302.01, 0.0840090
3304.11, 0.0844000
3306.22, 0.0848390
3308.33, 0.0852300
3310.44, 0.0856210
3312.56, 0.0860600
3314.68, 0.0865490
3316.8, 0.0869390
3318.92, 0.0873790
3321.05, 0.0878190
3323.18, 0.0881610
3325.31, 0.0884050
3327.44, 0.0888440
3329.58, 0.0894790
3331.72, 0.0898700
3333.86, 0.0901630
3336.01, 0.0906030
3338.16, 0.0909930
3340.31, 0.0913840
3342.46, 0.0917260
3344.61, 0.0919700
3346.77, 0.0923610
3348.94, 0.0927520
3351.1, 0.0930450
3353.27, 0.0933870
3355.44, 0.0939240
3357.61, 0.0942170
3359.79, 0.0944610
3361.97, 0.0947050
3364.15, 0.0949980
3366.33, 0.0952430
3368.52, 0.0954380
3370.71, 0.0957310
3372.9, 0.0960240
3375.1, 0.0963170
3377.3, 0.0966100
3379.5, 0.0970500
3381.71, 0.0974890
3383.91, 0.0979290
3386.12, 0.0984660
3388.34, 0.0989060
3390.55, 0.0991500
3392.77, 0.0993940
3394.99, 0.0997850
3397.22, 0.100078
3399.45, 0.100322
3401.68, 0.100615
3403.91, 0.100762
3406.15, 0.100860
3408.39, 0.101153
3410.63, 0.101397
3412.87, 0.101739
3415.12, 0.102178
3417.37, 0.102667
3419.63, 0.103204
3421.88, 0.103790
3424.14, 0.104523
3426.41, 0.105304
3428.67, 0.105988
3430.94, 0.106476
3433.21, 0.107063
3435.49, 0.107746
3437.77, 0.108381
3440.05, 0.108870
3442.33, 0.109358
3444.62, 0.109847
3446.91, 0.110384
3449.2, 0.110970
3451.5, 0.111458
3453.8, 0.111898
3456.1, 0.112338
3458.41, 0.112826
3460.72, 0.113314
3463.03, 0.113803
3465.34, 0.114242
3467.66, 0.114584
3469.98, 0.115024
3472.31, 0.115317
3474.63, 0.115561
3476.96, 0.115805
3479.3, 0.116245
3481.64, 0.116733
3483.97, 0.117124
3486.32, 0.117466
3488.66, 0.117857
3491.01, 0.118247
3493.36, 0.118443
3495.72, 0.118638
3498.08, 0.118931
3500.44, 0.119322
3502.81, 0.120006
3505.18, 0.120690
3507.55, 0.121276
3509.92, 0.121911
3512.3, 0.122448
3514.68, 0.123083
3517.06, 0.123815
3519.45, 0.124597
3521.84, 0.125134
3524.24, 0.125720
3526.64, 0.126258
3529.04, 0.126795
3531.44, 0.127234
3533.85, 0.127723
3536.26, 0.128260
3538.67, 0.128895
3541.09, 0.129335
3543.51, 0.129725
3545.93, 0.130165
3548.36, 0.130702
3550.79, 0.131240
3553.22, 0.131728
3555.66, 0.132168
3558.1, 0.132656
3560.54, 0.133144
3562.99, 0.133682
3565.44, 0.134170
3567.9, 0.134707
3570.35, 0.135245
3572.81, 0.135635
3575.28, 0.136124
3577.75, 0.136612
3580.22, 0.137101
3582.69, 0.137540
3585.17, 0.137882
3587.65, 0.138468
3590.14, 0.138957
3592.62, 0.139396
3595.11, 0.139885
3597.61, 0.140373
3600.11, 0.140813
3602.61, 0.141301
3605.11, 0.141789
3607.62, 0.142278
3610.14, 0.142815
3612.65, 0.143255
3615.17, 0.143645
3617.69, 0.143939
3620.22, 0.144378
3622.75, 0.144915
3625.28, 0.145355
3627.82, 0.145746
3630.36, 0.146136
3632.9, 0.146625
3635.45, 0.147064
3638.0, 0.147553
3640.56, 0.148041
3643.12, 0.148481
3645.68, 0.148920
3648.24, 0.149360
3650.81, 0.149800
3653.39, 0.150239
3655.96, 0.150630
3658.54, 0.151070
3661.13, 0.151509
3663.71, 0.151900
3666.3, 0.152339
3668.9, 0.152730
3671.5, 0.153219
3674.1, 0.153609
3676.7, 0.154049
3679.31, 0.154489
3681.93, 0.154928
3684.54, 0.155368
3687.17, 0.155758
3689.79, 0.156247
3692.42, 0.156686
3695.05, 0.157077
3697.69, 0.157419
3700.32, 0.157810
3702.97, 0.158298
3705.61, 0.158835
3708.27, 0.159275
3710.92, 0.159666
3713.58, 0.159959
3716.24, 0.160301
3718.91, 0.160789
3721.58, 0.161229
3724.25, 0.161619
3726.93, 0.162059
3729.61, 0.162450
3732.29, 0.162841
3734.98, 0.163231
3737.67, 0.163573
3740.37, 0.163964
3743.07, 0.164355
3745.78, 0.164843
3748.49, 0.165234
3751.2, 0.165576
3753.91, 0.165918
3756.63, 0.166260
3759.36, 0.166601
3762.09, 0.166992
3764.82, 0.167432
3767.55, 0.167871
3770.29, 0.168213
3773.04, 0.168555
3775.78, 0.168897
3778.54, 0.169239
3781.29, 0.169581
3784.05, 0.169874
3786.82, 0.170265
3789.59, 0.170606
3792.36, 0.171046
3795.13, 0.171388
3797.92, 0.171681
3800.7, 0.172023
3803.49, 0.172267
3806.28, 0.172511
3809.08, 0.172853
3811.88, 0.173195
3814.68, 0.173537
3817.49, 0.173879
3820.31, 0.174074
3823.12, 0.174367
3825.94, 0.174758
3828.77, 0.175051
3831.6, 0.175295
3834.43, 0.175540
3837.27, 0.175881
3840.11, 0.176272
3842.96, 0.176614
3845.81, 0.176907
3848.67, 0.177200
3851.53, 0.177396
3854.39, 0.177640
3857.26, 0.177835
3860.13, 0.178079
3863.01, 0.178470
3865.89, 0.178861
3868.77, 0.179105
3871.66, 0.179349
3874.55, 0.179593
3877.45, 0.179887
3880.35, 0.180082
3883.26, 0.180375
3886.17, 0.180668
3889.09, 0.180961
3892.01, 0.181205
3894.93, 0.181498
3897.86, 0.181743
3900.79, 0.181987
3903.73, 0.182231
3906.67, 0.182524
3909.62, 0.182866
3912.57, 0.183159
3915.52, 0.183257
3918.48, 0.183501
3921.45, 0.183794
3924.42, 0.184038
3927.39, 0.184234
3930.37, 0.184527
3933.35, 0.184722
3936.34, 0.184868
3939.33, 0.185015
3942.32, 0.185357
3945.32, 0.185699
3948.33, 0.185894
3951.34, 0.186138
3954.35, 0.186383
3957.37, 0.186578
3960.39, 0.186822
3963.42, 0.186969
3966.45, 0.187164
3969.49, 0.187408
3972.53, 0.187604
3975.58, 0.187799
3978.63, 0.187946
3981.68, 0.188092
3984.75, 0.188336
3987.81, 0.188678
3990.88, 0.188922
3993.95, 0.189215
3997.03, 0.189411
4000.12, 0.189508
4003.21, 0.189655
4006.3, 0.189997
4009.4, 0.190290
4012.5, 0.190485
4015.61, 0.190730
4018.72, 0.191023
4021.84, 0.191316
4024.96, 0.191511
4028.09, 0.191755
4031.22, 0.192048
4034.36, 0.192293
4037.5, 0.192537
4040.65, 0.192781
4043.8, 0.192976
4046.96, 0.193172
4050.12, 0.193416
4053.29, 0.193562
4056.46, 0.193758
4059.64, 0.193953
4062.82, 0.194100
4066.0, 0.194295
4069.19, 0.194539
4072.39, 0.194637
4075.59, 0.194735
4078.8, 0.194881
4082.01, 0.195028
4085.23, 0.195125
4088.45, 0.195223
4091.68, 0.195370
4094.91, 0.195516
4098.15, 0.195663
4101.39, 0.195760
4104.63, 0.195858
4107.89, 0.195907
4111.14, 0.196053
4114.41, 0.196200
4117.67, 0.196298
4120.95, 0.196444
4124.23, 0.196542
4127.51, 0.196591
4130.8, 0.196737
4134.09, 0.196933
4137.39, 0.196981
4140.7, 0.197079
4144.01, 0.197177
4147.32, 0.197226
4150.64, 0.197226
4153.97, 0.197274
4157.3, 0.197372
4160.64, 0.197421
4163.98, 0.197567
4167.33, 0.197665
4170.68, 0.197616
4174.04, 0.197714
4177.4, 0.197763
4180.77, 0.197763
4184.14, 0.197812
4187.52, 0.197909
4190.91, 0.197909
4194.3, 0.197909
4197.69, 0.197958
4201.1, 0.197958
4204.5, 0.197763
4207.92, 0.197616
4211.34, 0.197470
4214.76, 0.197079
4218.19, 0.196639
4221.62, 0.196249
4225.06, 0.196102
4228.51, 0.196102
4231.96, 0.196102
4235.42, 0.196005
4238.88, 0.196102
4242.35, 0.196298
4245.83, 0.196639
4249.31, 0.197079
4252.79, 0.197567
4256.28, 0.197714
4259.78, 0.197421
4263.29, 0.197079
4266.79, 0.196786
4270.31, 0.196542
4273.83, 0.196542
4277.35, 0.196688
4280.89, 0.196737
4284.42, 0.196835
4287.97, 0.196933
4291.52, 0.197030
4295.07, 0.197177
4298.63, 0.197372
4302.2, 0.197519
4305.78, 0.197665
4309.35, 0.197861
4312.94, 0.197958
4316.53, 0.198105
4320.13, 0.198251
4323.73, 0.198300
4327.34, 0.198349
4330.96, 0.198447
4334.58, 0.198544
4338.21, 0.198593
4341.84, 0.198642
4345.48, 0.198544
4349.12, 0.198496
4352.77, 0.198593
4356.43, 0.198642
4360.1, 0.198593
4363.76, 0.198544
4367.44, 0.198544
4371.12, 0.198544
4374.81, 0.198593
4378.51, 0.198544
4382.21, 0.198544
4385.92, 0.198447
4389.63, 0.198398
4393.35, 0.198398
4397.08, 0.198349
4400.81, 0.198300
4404.55, 0.198300
4408.29, 0.198202
4412.04, 0.198105
4415.8, 0.198105
4419.57, 0.198154
4423.34, 0.198007
4427.12, 0.197909
4430.9, 0.197909
4434.69, 0.197812
4438.49, 0.197665
4442.29, 0.197714
4446.1, 0.197714
4449.92, 0.197567
4453.74, 0.197519
4457.57, 0.197519
4461.41, 0.197421
4465.25, 0.197274
4469.1, 0.197177
4472.95, 0.197177
4476.82, 0.197079
4480.69, 0.196981
4484.56, 0.196884
4488.44, 0.196835
4492.33, 0.196835
4496.23, 0.196786
4500.13, 0.196639
4504.04, 0.196444
4507.96, 0.196444
4511.88, 0.196346
4515.81, 0.196151
4519.75, 0.196005
4523.69, 0.195907
4527.65, 0.195760
4531.6, 0.195614
4535.57, 0.195467
4539.54, 0.195370
4543.52, 0.195174
4547.5, 0.195028
4551.5, 0.194930
4555.5, 0.194881
4559.5, 0.194735
4563.52, 0.194539
4567.54, 0.194344
4571.56, 0.194246
4575.6, 0.194149
4579.64, 0.193953
4583.69, 0.193709
4587.75, 0.193465
4591.81, 0.193367
4595.88, 0.193221
4599.96, 0.193025
4604.04, 0.192830
4608.14, 0.192683
4612.24, 0.192488
4616.34, 0.192244
4620.46, 0.192097
4624.58, 0.191951
4628.71, 0.191755
4632.84, 0.191609
4636.99, 0.191365
4641.14, 0.191169
4645.3, 0.190974
4649.47, 0.190778
4653.64, 0.190583
4657.82, 0.190339
4662.01, 0.190143
4666.21, 0.190046
4670.41, 0.189850
4674.62, 0.189557
4678.84, 0.189362
4683.07, 0.189167
4687.3, 0.189020
4691.54, 0.188825
4695.79, 0.188483
4700.05, 0.188239
4704.31, 0.187994
4708.59, 0.187604
4712.87, 0.187359
4717.15, 0.187115
4721.45, 0.186773
4725.76, 0.186480
4730.07, 0.186187
4734.39, 0.185845
4738.72, 0.185552
4743.05, 0.185210
4747.39, 0.184868
4751.75, 0.184478
4756.1, 0.184087
4760.47, 0.183745
4764.85, 0.183403
4769.23, 0.183110
4773.62, 0.182719
4778.02, 0.182475
4782.43, 0.182084
4786.85, 0.181694
4791.27, 0.181401
4795.7, 0.181156
4800.14, 0.180717
4804.59, 0.180375
4809.05, 0.180082
4813.51, 0.179642
4817.99, 0.179252
4822.47, 0.178861
4826.96, 0.178519
4831.46, 0.178177
4835.96, 0.177835
4840.48, 0.177493
4845.0, 0.177200
4849.54, 0.176956
4854.08, 0.176712
4858.63, 0.176516
4863.18, 0.176321
4867.75, 0.175930
4872.33, 0.175588
4876.91, 0.175344
4881.5, 0.174953
4886.1, 0.174612
4890.71, 0.174270
4895.33, 0.173830
4899.96, 0.173488
4904.59, 0.173244
4909.24, 0.172902
4913.89, 0.172560
4918.55, 0.172218
4923.22, 0.171779
4927.9, 0.171339
4932.59, 0.170948
4937.29, 0.170558
4942.0, 0.170118
4946.71, 0.169630
4951.44, 0.169190
4956.17, 0.168750
4960.91, 0.168457
4965.67, 0.168164
4970.43, 0.167676
4975.2, 0.167236
4979.98, 0.166797
4984.76, 0.166406
4989.56, 0.165966
4994.37, 0.165576
4999.18, 0.165185
5004.01, 0.164745
5008.84, 0.164404
5013.69, 0.163866
5018.54, 0.163182
5023.4, 0.162987
5028.28, 0.162841
5033.16, 0.162645
5038.05, 0.162401
5042.95, 0.162059
5047.86, 0.161717
5052.78, 0.161326
5057.71, 0.161033
5062.65, 0.160740
5067.6, 0.160398
5072.56, 0.160057
5077.53, 0.159617
5082.5, 0.159031
5087.49, 0.158787
5092.49, 0.158542
5097.5, 0.158054
5102.51, 0.157614
5107.54, 0.157224
5112.58, 0.156735
5117.62, 0.156345
5122.68, 0.156051
5127.75, 0.155710
5132.82, 0.155221
5137.91, 0.154635
5143.01, 0.153805
5148.12, 0.153072
5153.23, 0.153219
5158.36, 0.153219
5163.5, 0.152877
5168.65, 0.152535
5173.81, 0.152193
5178.98, 0.151949
5184.15, 0.151753
5189.34, 0.151509
5194.54, 0.151070
5199.75, 0.150532
5204.98, 0.150435
5210.21, 0.149653
5215.45, 0.149262
5220.7, 0.149800
5225.96, 0.149751
5231.23, 0.149360
5236.52, 0.148920
5241.81, 0.148872
5247.12, 0.148676
5252.44, 0.148481
5257.76, 0.148286
5263.1, 0.148188
5268.45, 0.147846
5273.81, 0.147406
5279.18, 0.147260
5284.56, 0.147064
5289.95, 0.146234
5295.36, 0.146234
5300.77, 0.146478
5306.2, 0.146283
5311.63, 0.146088
5317.08, 0.145941
5322.54, 0.145746
5328.01, 0.145550
5333.49, 0.145355
5338.98, 0.145062
5344.49, 0.144085
5350.0, 0.142913
5355.53, 0.143401
5361.07, 0.144036
5366.62, 0.144036
5372.18, 0.143792
5377.75, 0.143645
5383.34, 0.143401
5388.93, 0.143255
5394.54, 0.143059
5400.16, 0.142913
5405.79, 0.142522
5411.44, 0.142034
5417.09, 0.140471
5422.76, 0.139299
5428.43, 0.140861
5434.12, 0.141545
5439.83, 0.141203
5445.54, 0.140959
5451.26, 0.140813
5457.0, 0.140031
5462.75, 0.138664
5468.52, 0.138712
5474.29, 0.138712
5480.08, 0.138224
5485.88, 0.138810
5491.69, 0.138810
5497.51, 0.138615
5503.35, 0.138224
5509.2, 0.137980
5515.06, 0.137442
5520.93, 0.136856
5526.82, 0.136759
5532.71, 0.136808
5538.63, 0.136563
5544.55, 0.135977
5550.49, 0.135098
5556.44, 0.134952
5562.4, 0.135245
5568.37, 0.135049
5574.36, 0.133242
5580.36, 0.132314
5586.37, 0.133779
5592.4, 0.134463
5598.44, 0.133779
5604.49, 0.133437
5610.56, 0.133291
5616.63, 0.132949
5622.73, 0.133096
5628.83, 0.132607
5634.95, 0.130751
5641.08, 0.128504
5647.23, 0.129384
5653.39, 0.130116
5659.56, 0.130653
5665.74, 0.131044
5671.94, 0.129384
5678.15, 0.128944
5684.38, 0.129481
5690.62, 0.128797
5696.87, 0.128993
5703.14, 0.128162
5709.42, 0.125916
5715.72, 0.125867
5722.03, 0.126502
5728.35, 0.126746
5734.69, 0.126258
5741.03, 0.125378
5747.4, 0.124060
5753.78, 0.124450
5760.17, 0.121813
5766.58, 0.118541
5773.0, 0.120787
5779.44, 0.122204
5785.88, 0.122106
5792.35, 0.121618
5798.83, 0.120494
5805.32, 0.119468
5811.83, 0.117417
5818.35, 0.113217
5824.89, 0.111703
5831.45, 0.112826
5838.01, 0.113412
5844.59, 0.113217
5851.19, 0.112093
5857.8, 0.110628
5864.43, 0.109651
5871.07, 0.109016
5877.73, 0.104572
5884.4, 0.104034
5891.09, 0.104718
5897.79, 0.103302
5904.5, 0.105353
5911.23, 0.105255
5917.98, 0.103839
5924.75, 0.102325
5931.53, 0.0984170
5938.32, 0.0962200
5945.13, 0.0988080
5951.96, 0.0995410
5958.8, 0.0991010
5965.65, 0.0970010
5972.53, 0.0968540
5979.42, 0.0973920
5986.32, 0.0960240
5993.24, 0.0963170
6000.18, 0.0980270
6007.13, 0.0978310
6014.1, 0.0972450
6021.08, 0.0983690
6028.09, 0.0991990
6035.1, 0.0987590
6042.14, 0.0949010
6049.19, 0.0917750
6056.25, 0.0965130
6063.34, 0.0988080
6070.44, 0.0972450
6077.55, 0.0982710
6084.69, 0.100762
6091.84, 0.101446
6099.0, 0.101250
6106.19, 0.0994920
6113.39, 0.0978800
6120.61, 0.100420
6127.84, 0.102569
6135.09, 0.102520
6142.36, 0.102227
6149.65, 0.102374
6156.95, 0.101934
6164.27, 0.102813
6171.61, 0.104181
6178.97, 0.102667
6186.34, 0.101788
6193.73, 0.104572
6201.14, 0.105988
6208.57, 0.106232
6216.01, 0.106525
6223.47, 0.107160
6230.95, 0.107600
6238.45, 0.107893
6245.97, 0.108332
6253.5, 0.108870
6261.06, 0.109065
6268.63, 0.109309
6276.21, 0.109700
6283.82, 0.110188
6291.45, 0.110530
6299.1, 0.110921
6306.76, 0.111214
6314.44, 0.111605
6322.14, 0.111947
6329.86, 0.112093
6337.6, 0.110042
6345.35, 0.108919
6353.13, 0.112093
6360.92, 0.113119
6368.74, 0.111898
6376.57, 0.113070
6384.43, 0.114438
6392.3, 0.114877
6400.19, 0.114145
6408.1, 0.109212
6416.03, 0.107746
6423.98, 0.112728
6431.95, 0.115170
6439.94, 0.116978
6447.95, 0.118052
6455.98, 0.118687
6464.03, 0.118882
6472.1, 0.117661
6480.19, 0.116196
6488.31, 0.113559
6496.44, 0.114242
6504.59, 0.119371
6512.76, 0.120836
6520.95, 0.120055
6529.16, 0.122008
6537.4, 0.122790
6545.65, 0.122155
6553.92, 0.121618
6562.22, 0.121227
6570.54, 0.119127
6578.88, 0.120641
6587.23, 0.122350
6595.61, 0.123132
6604.02, 0.124499
6612.44, 0.124450
6620.89, 0.123815
6629.35, 0.120445
6637.84, 0.118150
6646.35, 0.122204
6654.88, 0.125378
6663.44, 0.124743
6672.01, 0.122985
6680.61, 0.121618
6689.23, 0.122692
6697.88, 0.123181
6706.54, 0.121129
6715.23, 0.120152
6723.94, 0.120543
6732.67, 0.120983
6741.42, 0.120641
6750.2, 0.119664
6759.0, 0.118882
6767.82, 0.117026
6776.67, 0.114780
6785.54, 0.112191
6794.44, 0.111605
6803.35, 0.113021
6812.29, 0.112435
6821.26, 0.110237
6830.24, 0.109358
6839.25, 0.109749
6848.29, 0.107893
6857.35, 0.103888
6866.43, 0.102764
6875.54, 0.105597
6884.67, 0.106135
6893.82, 0.105548
6903.0, 0.104376
6912.2, 0.104083
6921.43, 0.104083
6930.69, 0.103692
6939.96, 0.103155
6949.27, 0.101641
6958.59, 0.0992480
6967.95, 0.0999800
6977.33, 0.100957
6986.73, 0.100469
6996.16, 0.100127
7005.61, 0.100420
7015.09, 0.100371
7024.6, 0.100420
7034.13, 0.100176
7043.69, 0.0990040
7053.27, 0.100518
7062.88, 0.102862
7072.52, 0.104181
7082.18, 0.105207
7091.87, 0.106281
7101.58, 0.107209
7111.32, 0.107746
7121.09, 0.108674
7130.88, 0.109944
7140.71, 0.110188
7150.56, 0.110530
7160.43, 0.111165
7170.33, 0.111361
7180.27, 0.112777
7190.23, 0.113559
7200.21, 0.113119
7210.23, 0.112972
7220.27, 0.113949
7230.34, 0.114340
7240.44, 0.114535
7250.56, 0.114633
7260.72, 0.114731
7270.9, 0.114438
7281.12, 0.114633
7291.36, 0.115219
7301.63, 0.115317
7311.93, 0.115366
7322.25, 0.115366
7332.61, 0.114682
7343.0, 0.114487
7353.41, 0.114926
7363.86, 0.115122
7374.33, 0.114926
7384.83, 0.114877
7395.37, 0.114780
7405.93, 0.114682
7416.53, 0.114633
7427.15, 0.114633
7437.81, 0.114584
7448.5, 0.114438
7459.22, 0.113949
7469.96, 0.113754
7480.74, 0.113949
7491.55, 0.114096
7502.39, 0.114047
7513.27, 0.113852
7524.17, 0.113510
7535.11, 0.113168
7546.08, 0.112826
7557.08, 0.112484
7568.11, 0.111898
7579.17, 0.111312
7590.27, 0.110921
7601.4, 0.110530
7612.56, 0.109993
7623.76, 0.109554
7634.98, 0.109212
7646.24, 0.108870
7657.54, 0.108577
7668.87, 0.108186
7680.23, 0.107893
7691.62, 0.107746
7703.05, 0.107551
7714.51, 0.107258
7726.01, 0.106867
7737.54, 0.106525
7749.11, 0.106135
7760.71, 0.105744
7772.35, 0.105353
7784.02, 0.105060
7795.72, 0.104572
7807.46, 0.103985
7819.23, 0.103253
7831.04, 0.102618
7842.89, 0.101983
7854.77, 0.101299
7866.69, 0.100615
7878.65, 0.0999320
7890.64, 0.0991010
7902.67, 0.0983200
7914.74, 0.0973920
7926.84, 0.0964150
7938.98, 0.0954380
7951.16, 0.0944120
7963.37, 0.0932400
7975.62, 0.0921170
7987.91, 0.0908960
8000.24, 0.0895770
8012.6, 0.0880630
8025.01, 0.0866460
8037.45, 0.0851320
8049.93, 0.0837160
8062.45, 0.0822510
8075.01, 0.0808830
8087.61, 0.0795640
8100.24, 0.0781970
8112.91, 0.0767800
8125.63, 0.0753150
8138.39, 0.0739470
8151.18, 0.0727260
8164.02, 0.0714560
8176.9, 0.0701870
8189.81, 0.0689170
8202.77, 0.0675980
8215.77, 0.0663770
8228.82, 0.0652530
8241.9, 0.0641790
8255.02, 0.0632020
8268.19, 0.0622740
8281.39, 0.0614440
8294.65, 0.0607600
8307.94, 0.0602230
8321.28, 0.0595880
8334.66, 0.0590020
8348.08, 0.0585130
8361.54, 0.0581220
8375.05, 0.0577810
8388.6, 0.0573410
8402.2, 0.0568530
8415.84, 0.0564130
8429.52, 0.0559250
8443.25, 0.0555830
8457.02, 0.0551920
8470.84, 0.0547520
8484.7, 0.0542640
8498.61, 0.0538240
8512.57, 0.0532870
8526.57, 0.0528470
8540.62, 0.0522130
8554.71, 0.0516260
8568.85, 0.0510890
8583.04, 0.0504050
8597.27, 0.0497700
8611.55, 0.0491350
8625.88, 0.0484520
8640.26, 0.0478660
8654.68, 0.0472790
8669.16, 0.0466930
8683.68, 0.0459610
8698.25, 0.0452280
8712.87, 0.0446420
8727.53, 0.0441540
8742.25, 0.0434700
8757.02, 0.0428840
8771.83, 0.0422980
8786.7, 0.0416630
8801.62, 0.0410760
8816.59, 0.0405880
8831.61, 0.0399040
8846.68, 0.0394160
8861.8, 0.0389270
8876.97, 0.0383900
8892.2, 0.0378530
8907.48, 0.0373640
8922.81, 0.0368270
8938.2, 0.0362410
8953.63, 0.0357530
8969.13, 0.0354110
8984.67, 0.0348730
9000.27, 0.0342390
9015.92, 0.0337990
9031.63, 0.0333110
9047.39, 0.0326760
9063.21, 0.0322360
9079.08, 0.0317480
9095.01, 0.0312100
9111.0, 0.0306730
9127.04, 0.0300870
9143.13, 0.0295980
9159.28, 0.0292080
9175.49, 0.0286220
9191.76, 0.0281330
9208.09, 0.0277420
9224.47, 0.0273520
9240.92, 0.0269610
9257.42, 0.0268140
9273.98, 0.0265700
9290.6, 0.0261800
9307.28, 0.0258860
9324.02, 0.0256420
9340.82, 0.0253490
9357.68, 0.0249580
9374.6, 0.0242750
9391.58, 0.0236400
9408.62, 0.0232980
9425.73, 0.0230540
9442.9, 0.0227610
9460.13, 0.0226140
9477.42, 0.0225160
9494.78, 0.0225650
9512.2, 0.0224190
9529.69, 0.0225650
9547.24, 0.0228090
9564.86, 0.0230050
9582.54, 0.0230540
9600.28, 0.0232000
9618.1, 0.0233470
9635.97, 0.0236400
9653.92, 0.0236890
9671.93, 0.0237370
9690.01, 0.0237860
9708.16, 0.0241280
9726.37, 0.0243720
9744.65, 0.0245190
9763.0, 0.0246170
9781.43, 0.0247140
9799.92, 0.0248120
9818.48, 0.0250070
9837.1, 0.0251540
9855.8, 0.0253000
9874.58, 0.0255450
9893.42, 0.0257400
9912.34, 0.0259350
9931.33, 0.0265700
9950.39, 0.0272050
9969.52, 0.0276940
9988.74, 0.0283290
10008.0, 0.0289640
10027.4, 0.0295010
10046.8, 0.0301360
10066.3, 0.0308680
10085.9, 0.0317480
10105.6, 0.0327730
10125.3, 0.0337010
10145.1, 0.0345320
10165.0, 0.0353620
10185.0, 0.0361920
10205.0, 0.0370710
10225.2, 0.0380480
10245.4, 0.0390740
10265.7, 0.0401000
10286.0, 0.0409790
10306.5, 0.0419070
10327.0, 0.0427370
10347.6, 0.0436160
10368.3, 0.0445930
10389.1, 0.0454230
10409.9, 0.0464000
10430.9, 0.0472310
10451.9, 0.0479630
10473.0, 0.0485490
10494.2, 0.0492820
10515.5, 0.0499170
10536.9, 0.0503570
10558.4, 0.0507960
10579.9, 0.0511870
10601.5, 0.0513330
10623.3, 0.0514800
10645.1, 0.0516260
10667.0, 0.0517730
10689.0, 0.0515780
10711.1, 0.0513820
10733.2, 0.0513330
10755.5, 0.0513330
10777.9, 0.0510400
10800.3, 0.0506980
10822.9, 0.0504050
10845.5, 0.0501610
10868.2, 0.0499660
10891.1, 0.0499170
10914.0, 0.0497220
10937.0, 0.0494770
10960.2, 0.0494290
10983.4, 0.0494290
11006.7, 0.0493800
11030.1, 0.0493800
11053.6, 0.0494290
11077.3, 0.0494770
11101.0, 0.0495260
11124.8, 0.0496240
11148.7, 0.0496240
11172.7, 0.0495260
11196.9, 0.0493310
11221.1, 0.0492820
11245.4, 0.0493800
11269.9, 0.0494770
11294.4, 0.0494770
11319.1, 0.0494290
11343.9, 0.0493310
11368.8, 0.0492820
11393.7, 0.0491840
11418.8, 0.0491350
11444.0, 0.0489400
11469.4, 0.0485980
11494.8, 0.0482560
11520.3, 0.0479630
11546.0, 0.0476700
11571.8, 0.0475720
11597.7, 0.0474260
11623.7, 0.0472310
11649.8, 0.0470350
11676.0, 0.0469380
11702.4, 0.0468890
11728.9, 0.0466930
11755.5, 0.0464000
11782.2, 0.0463030
11809.0, 0.0463030
11836.0, 0.0462540
11863.0, 0.0460100
11890.3, 0.0458630
11917.6, 0.0457650
11945.0, 0.0455210
11972.6, 0.0451300
12000.4, 0.0450330
12028.2, 0.0449840
12056.2, 0.0448860
12084.3, 0.0448370
12112.5, 0.0445440
12140.9, 0.0443490
12169.4, 0.0442510
12198.0, 0.0441050
12226.8, 0.0439580
12255.7, 0.0439090
12284.7, 0.0437630
12313.9, 0.0435190
12343.2, 0.0432740
12372.7, 0.0433230
12402.3, 0.0434210
12432.0, 0.0433720
12461.9, 0.0433720
12491.9, 0.0433230
12522.1, 0.0432260
12552.4, 0.0429320
12582.9, 0.0425910
12613.5, 0.0426390
12644.3, 0.0429320
12675.2, 0.0428350
12706.3, 0.0424930
12737.5, 0.0422980
12768.9, 0.0422490
12800.4, 0.0420530
12832.1, 0.0420040
12863.9, 0.0420040
12895.9, 0.0417110
12928.1, 0.0412230
12960.4, 0.0410280
12992.9, 0.0409790
13025.5, 0.0407830
13058.3, 0.0404900
13091.3, 0.0404420
13124.4, 0.0406370
13157.8, 0.0404900
13191.2, 0.0401970
13224.9, 0.0399530
13258.7, 0.0396110
13292.7, 0.0396110
13326.9, 0.0397090
13361.2, 0.0396600
13395.7, 0.0396110
13430.4, 0.0397090
13465.3, 0.0398070
13500.4, 0.0399530
13535.7, 0.0398550
13571.1, 0.0399040
13606.7, 0.0402950
13642.5, 0.0406370
13678.5, 0.0406370
13714.7, 0.0409300
13751.1, 0.0409790
13787.6, 0.0406860
13824.4, 0.0404900
13861.4, 0.0403440
13898.5, 0.0400020
13935.9, 0.0399040
13973.5, 0.0396110
14011.2, 0.0391720
14049.2, 0.0386830
14087.4, 0.0384390
14125.8, 0.0381950
14164.3, 0.0378040
14203.2, 0.0372180
14242.2, 0.0364360
14281.4, 0.0359970
14320.9, 0.0356550
14360.5, 0.0352150
14400.4, 0.0349710
14440.5, 0.0347760
14480.9, 0.0342870
14521.4, 0.0339450
14562.2, 0.0339940
14603.3, 0.0338480
14644.5, 0.0337010
14686.0, 0.0337990
14727.7, 0.0338480
14769.7, 0.0337010
14811.9, 0.0336040
14854.3, 0.0337500
14897.0, 0.0339450
14939.9, 0.0337010
14983.1, 0.0336040
15026.5, 0.0338970
15070.2, 0.0344340
15114.2, 0.0343850
15158.3, 0.0342390
15202.8, 0.0344830
15247.5, 0.0344340
15292.5, 0.0342390
15337.7, 0.0341900
15383.2, 0.0344340
15429.0, 0.0344830
15475.1, 0.0342390
15521.4, 0.0343850
15568.0, 0.0345320
15614.9, 0.0343360
15662.1, 0.0342390
15709.6, 0.0341900
15757.3, 0.0341410
15805.4, 0.0340920
15853.7, 0.0340920
15902.3, 0.0341900
15951.2, 0.0340920
16000.5, 0.0342390
16050.0, 0.0343360
16099.8, 0.0342390
16150.0, 0.0343850
16200.5, 0.0343360
16251.3, 0.0339450
16302.4, 0.0337500
16353.8, 0.0334570
16405.5, 0.0330170
16457.6, 0.0322850
16510.0, 0.0315520
16562.8, 0.0307710
16615.9, 0.0300870
16669.3, 0.0294520
16723.1, 0.0291590
16777.2, 0.0287680
16831.7, 0.0283770
16886.5, 0.0276940
16941.7, 0.0273030
16997.2, 0.0271560
17053.1, 0.0269610
17109.4, 0.0263260
17166.1, 0.0260330
17223.1, 0.0263260
17280.5, 0.0262770
17338.3, 0.0260820
17396.5, 0.0264240
17455.1, 0.0265700
17514.0, 0.0266680
17573.4, 0.0272540
17633.2, 0.0276940
17693.4, 0.0283290
17754.0, 0.0290610
17815.0, 0.0294030
17876.4, 0.0299400
17938.3, 0.0300870
18000.5, 0.0300870
18063.3, 0.0300870
18126.4, 0.0299400
18190.0, 0.0294520
18254.1, 0.0290610
18318.6, 0.0290610
18383.5, 0.0291100
18449.0, 0.0288170
18514.9, 0.0286220
18581.2, 0.0281820
18648.0, 0.0279870
18715.4, 0.0274490
18783.2, 0.0266190
18851.5, 0.0262770
18920.3, 0.0257890
18989.6, 0.0251050
19059.4, 0.0246650
19129.7, 0.0239820
19200.6, 0.0231510
19272.0, 0.0229070
19343.9, 0.0227610
19416.3, 0.0223210
19489.3, 0.0220770
19562.8, 0.0228580
19637.0, 0.0239330
19711.6, 0.0240300
19786.8, 0.0243720
19862.6, 0.0247140
19939.0, 0.0253490
20016.0, 0.0265700
20093.6, 0.0285730
20171.8, 0.0294520
20250.6, 0.0299400
20330.0, 0.0306730
20410.0, 0.0309170
20490.7, 0.0313080
20572.0, 0.0321870
20654.0, 0.0331150
20736.6, 0.0343850
20819.9, 0.0347760
20903.8, 0.0355080
20988.5, 0.0366810
21073.8, 0.0376090
21159.8, 0.0379510
21246.5, 0.0390740
21334.0, 0.0404900
21422.1, 0.0402950
21511.0, 0.0404900
21600.7, 0.0416140
21691.0, 0.0422000
21782.1, 0.0417600
21874.0, 0.0420040
21966.7, 0.0428350
22060.2, 0.0426880
22154.5, 0.0422490
22249.6, 0.0424440
22345.5, 0.0419070
22442.2, 0.0418090
22539.8, 0.0438120
22638.2, 0.0435190
22737.5, 0.0423460
22837.7, 0.0418580
22938.7, 0.0405390
23040.7, 0.0411250
23143.5, 0.0418090
23247.3, 0.0413700
23352.1, 0.0433230
23457.7, 0.0446910
23564.4, 0.0451300
23672.0, 0.0454720
23780.5, 0.0460580
23890.1, 0.0472310
24000.7, 0.0491840
24112.3, 0.0495750
24225.0, 0.0494290
24338.7, 0.0510890
24453.5, 0.0528960
