Database of Origin, USGS Spectral Database
Sample Description, See USGS database for additional info
Date Added,2016-08-03 21:12:01.547358

Data ID,USGS_cas02          
Sample ID, cassiterite_hs279.4349
Mineral Name, cassiterite
Material Class,Oxide

Wavelength
1622.58, 0.0533220
1623.09, 0.0533220
1623.6, 0.0531590
1624.11, 0.0534860
1624.62, 0.0535950
1625.13, 0.0537590
1625.64, 0.0535410
1626.15, 0.0533770
1626.66, 0.0533770
1627.17, 0.0532680
1627.68, 0.0531040
1628.19, 0.0534310
1628.7, 0.0535950
1629.21, 0.0532130
1629.72, 0.0526130
1630.24, 0.0525040
1630.75, 0.0533220
1631.26, 0.0539230
1631.78, 0.0536500
1632.29, 0.0531040
1632.8, 0.0529400
1633.32, 0.0529950
1633.83, 0.0528860
1634.35, 0.0532130
1634.86, 0.0537590
1635.38, 0.0538130
1635.9, 0.0539230
1636.41, 0.0539230
1636.93, 0.0535950
1637.45, 0.0535950
1637.96, 0.0533770
1638.48, 0.0533220
1639.0, 0.0534310
1639.52, 0.0534860
1640.04, 0.0535410
1640.56, 0.0529950
1641.08, 0.0530490
1641.59, 0.0533220
1642.11, 0.0531590
1642.63, 0.0532130
1643.16, 0.0534310
1643.68, 0.0534860
1644.2, 0.0532130
1644.72, 0.0532680
1645.24, 0.0533220
1645.76, 0.0534860
1646.29, 0.0536500
1646.81, 0.0535410
1647.33, 0.0535410
1647.86, 0.0537590
1648.38, 0.0532680
1648.9, 0.0531040
1649.43, 0.0534860
1649.95, 0.0535950
1650.48, 0.0536500
1651.0, 0.0536500
1651.53, 0.0535950
1652.06, 0.0535410
1652.58, 0.0537040
1653.11, 0.0537040
1653.64, 0.0536500
1654.17, 0.0537590
1654.69, 0.0536500
1655.22, 0.0535410
1655.75, 0.0536500
1656.28, 0.0534310
1656.81, 0.0534310
1657.34, 0.0538680
1657.87, 0.0538130
1658.4, 0.0534860
1658.93, 0.0534860
1659.46, 0.0532680
1659.99, 0.0532680
1660.52, 0.0533770
1661.05, 0.0533220
1661.59, 0.0534860
1662.12, 0.0538130
1662.65, 0.0537040
1663.19, 0.0534860
1663.72, 0.0535950
1664.26, 0.0534310
1664.79, 0.0533220
1665.32, 0.0533220
1665.86, 0.0533770
1666.39, 0.0534860
1666.93, 0.0536500
1667.47, 0.0536500
1668.0, 0.0534310
1668.54, 0.0534860
1669.08, 0.0538130
1669.61, 0.0538130
1670.15, 0.0537040
1670.69, 0.0539230
1671.23, 0.0540320
1671.77, 0.0538130
1672.31, 0.0536500
1672.85, 0.0535410
1673.39, 0.0538130
1673.93, 0.0540320
1674.47, 0.0539230
1675.01, 0.0538680
1675.55, 0.0538680
1676.09, 0.0535410
1676.64, 0.0534860
1677.18, 0.0538130
1677.72, 0.0538130
1678.26, 0.0538130
1678.81, 0.0539230
1679.35, 0.0537040
1679.89, 0.0534310
1680.44, 0.0535410
1680.98, 0.0537040
1681.53, 0.0536500
1682.07, 0.0538130
1682.62, 0.0540860
1683.17, 0.0539770
1683.71, 0.0534860
1684.26, 0.0534860
1684.81, 0.0534860
1685.36, 0.0536500
1685.9, 0.0535410
1686.45, 0.0534860
1687.0, 0.0534310
1687.55, 0.0534310
1688.1, 0.0537040
1688.65, 0.0535950
1689.2, 0.0538130
1689.75, 0.0539230
1690.3, 0.0536500
1690.85, 0.0535410
1691.41, 0.0537040
1691.96, 0.0538680
1692.51, 0.0536500
1693.06, 0.0535950
1693.61, 0.0534860
1694.17, 0.0534310
1694.72, 0.0535410
1695.28, 0.0535410
1695.83, 0.0535950
1696.39, 0.0536500
1696.94, 0.0535410
1697.5, 0.0534860
1698.05, 0.0533770
1698.61, 0.0534860
1699.17, 0.0537590
1699.72, 0.0539230
1700.28, 0.0538130
1700.84, 0.0538680
1701.4, 0.0539230
1701.95, 0.0538130
1702.51, 0.0536500
1703.07, 0.0535410
1703.63, 0.0534860
1704.19, 0.0534860
1704.75, 0.0535950
1705.31, 0.0535950
1705.88, 0.0536500
1706.44, 0.0535950
1707.0, 0.0535410
1707.56, 0.0534860
1708.12, 0.0535410
1708.69, 0.0536500
1709.25, 0.0535410
1709.81, 0.0534860
1710.38, 0.0535410
1710.94, 0.0535950
1711.51, 0.0535410
1712.07, 0.0536500
1712.64, 0.0538130
1713.2, 0.0538680
1713.77, 0.0538130
1714.34, 0.0537040
1714.9, 0.0537040
1715.47, 0.0536500
1716.04, 0.0535410
1716.61, 0.0536500
1717.18, 0.0537590
1717.74, 0.0537590
1718.31, 0.0539230
1718.88, 0.0538680
1719.45, 0.0537590
1720.02, 0.0539770
1720.59, 0.0540860
1721.17, 0.0539230
1721.74, 0.0539230
1722.31, 0.0538130
1722.88, 0.0533770
1723.45, 0.0534860
1724.03, 0.0537040
1724.6, 0.0537590
1725.18, 0.0539230
1725.75, 0.0539230
1726.33, 0.0537040
1726.9, 0.0538130
1727.48, 0.0537040
1728.05, 0.0538130
1728.63, 0.0540860
1729.2, 0.0540320
1729.78, 0.0538680
1730.36, 0.0540320
1730.94, 0.0538680
1731.51, 0.0535950
1732.09, 0.0535410
1732.67, 0.0535410
1733.25, 0.0537040
1733.83, 0.0538680
1734.41, 0.0539230
1734.99, 0.0539230
1735.57, 0.0538130
1736.15, 0.0538680
1736.73, 0.0538680
1737.32, 0.0537040
1737.9, 0.0535410
1738.48, 0.0535950
1739.07, 0.0537590
1739.65, 0.0537040
1740.23, 0.0538130
1740.82, 0.0538680
1741.4, 0.0538680
1741.99, 0.0540320
1742.57, 0.0543050
1743.16, 0.0542500
1743.74, 0.0539230
1744.33, 0.0537040
1744.92, 0.0535410
1745.51, 0.0535950
1746.09, 0.0539770
1746.68, 0.0541950
1747.27, 0.0539230
1747.86, 0.0535950
1748.45, 0.0534860
1749.04, 0.0539230
1749.63, 0.0543590
1750.22, 0.0542500
1750.81, 0.0541950
1751.4, 0.0540320
1751.99, 0.0540320
1752.59, 0.0538680
1753.18, 0.0537590
1753.77, 0.0539770
1754.37, 0.0541410
1754.96, 0.0540320
1755.56, 0.0538130
1756.15, 0.0536500
1756.74, 0.0536500
1757.34, 0.0537590
1757.94, 0.0538680
1758.53, 0.0538130
1759.13, 0.0538680
1759.73, 0.0540320
1760.32, 0.0541950
1760.92, 0.0542500
1761.52, 0.0540860
1762.12, 0.0538680
1762.72, 0.0539230
1763.32, 0.0539230
1763.92, 0.0537590
1764.52, 0.0537040
1765.12, 0.0537040
1765.72, 0.0537040
1766.32, 0.0537040
1766.92, 0.0538130
1767.53, 0.0540320
1768.13, 0.0538130
1768.73, 0.0536500
1769.34, 0.0537590
1769.94, 0.0540320
1770.55, 0.0540320
1771.15, 0.0538680
1771.76, 0.0538680
1772.36, 0.0539770
1772.97, 0.0538680
1773.57, 0.0537590
1774.18, 0.0539230
1774.79, 0.0539230
1775.4, 0.0538130
1776.0, 0.0537590
1776.61, 0.0540320
1777.22, 0.0540860
1777.83, 0.0539770
1778.44, 0.0538680
1779.05, 0.0539770
1779.66, 0.0540320
1780.27, 0.0541410
1780.88, 0.0540860
1781.5, 0.0541950
1782.11, 0.0540320
1782.72, 0.0538130
1783.33, 0.0538680
1783.95, 0.0538680
1784.56, 0.0538680
1785.18, 0.0538130
1785.79, 0.0537040
1786.41, 0.0538680
1787.02, 0.0540320
1787.64, 0.0542500
1788.26, 0.0541950
1788.87, 0.0537590
1789.49, 0.0535410
1790.11, 0.0535410
1790.73, 0.0537040
1791.35, 0.0539770
1791.96, 0.0541410
1792.58, 0.0538130
1793.21, 0.0537040
1793.83, 0.0538130
1794.45, 0.0539770
1795.07, 0.0540320
1795.69, 0.0540860
1796.31, 0.0539770
1796.93, 0.0539230
1797.56, 0.0540860
1798.18, 0.0543590
1798.8, 0.0541410
1799.43, 0.0539770
1800.05, 0.0538680
1800.68, 0.0539770
1801.3, 0.0540320
1801.93, 0.0538130
1802.56, 0.0538680
1803.18, 0.0540320
1803.81, 0.0540860
1804.44, 0.0539770
1805.07, 0.0539770
1805.7, 0.0540860
1806.33, 0.0540860
1806.95, 0.0540860
1807.58, 0.0541410
1808.22, 0.0542500
1808.85, 0.0541410
1809.48, 0.0539770
1810.11, 0.0539770
1810.74, 0.0538680
1811.38, 0.0538130
1812.01, 0.0539770
1812.64, 0.0540860
1813.28, 0.0541950
1813.91, 0.0541410
1814.55, 0.0539770
1815.18, 0.0537590
1815.82, 0.0538130
1816.45, 0.0541410
1817.09, 0.0543050
1817.73, 0.0542500
1818.36, 0.0541410
1819.0, 0.0539770
1819.64, 0.0539770
1820.28, 0.0540860
1820.92, 0.0540860
1821.56, 0.0541950
1822.2, 0.0541410
1822.84, 0.0540320
1823.48, 0.0541950
1824.12, 0.0543050
1824.76, 0.0541410
1825.41, 0.0541410
1826.05, 0.0541950
1826.69, 0.0542500
1827.34, 0.0541950
1827.98, 0.0542500
1828.63, 0.0542500
1829.27, 0.0544680
1829.92, 0.0543050
1830.56, 0.0541410
1831.21, 0.0541410
1831.86, 0.0541950
1832.5, 0.0543590
1833.15, 0.0543590
1833.8, 0.0543590
1834.45, 0.0544140
1835.1, 0.0544680
1835.75, 0.0543050
1836.4, 0.0543050
1837.05, 0.0542500
1837.7, 0.0541410
1838.35, 0.0543590
1839.01, 0.0543590
1839.66, 0.0541950
1840.31, 0.0541950
1840.96, 0.0543590
1841.62, 0.0544680
1842.27, 0.0543050
1842.93, 0.0541410
1843.58, 0.0542500
1844.24, 0.0544680
1844.9, 0.0544140
1845.55, 0.0544140
1846.21, 0.0544140
1846.87, 0.0542500
1847.53, 0.0543050
1848.18, 0.0544140
1848.84, 0.0542500
1849.5, 0.0540860
1850.16, 0.0541950
1850.82, 0.0543050
1851.48, 0.0543590
1852.14, 0.0545230
1852.81, 0.0545230
1853.47, 0.0543590
1854.13, 0.0543050
1854.8, 0.0543050
1855.46, 0.0541950
1856.12, 0.0540860
1856.79, 0.0541950
1857.45, 0.0544140
1858.12, 0.0543050
1858.79, 0.0540860
1859.45, 0.0538680
1860.12, 0.0539770
1860.79, 0.0540860
1861.46, 0.0540860
1862.12, 0.0540320
1862.79, 0.0541950
1863.46, 0.0544680
1864.13, 0.0545780
1864.8, 0.0546320
1865.48, 0.0544680
1866.15, 0.0545230
1866.82, 0.0545780
1867.49, 0.0544140
1868.16, 0.0541950
1868.84, 0.0541410
1869.51, 0.0541410
1870.19, 0.0541410
1870.86, 0.0543590
1871.54, 0.0545230
1872.21, 0.0543590
1872.89, 0.0543050
1873.56, 0.0543590
1874.24, 0.0544140
1874.92, 0.0543590
1875.6, 0.0542500
1876.28, 0.0541950
1876.96, 0.0543050
1877.64, 0.0544140
1878.32, 0.0544140
1879.0, 0.0544140
1879.68, 0.0542500
1880.36, 0.0541410
1881.04, 0.0540860
1881.73, 0.0542500
1882.41, 0.0543050
1883.09, 0.0542500
1883.78, 0.0543590
1884.46, 0.0543050
1885.15, 0.0541950
1885.83, 0.0543590
1886.52, 0.0544140
1887.21, 0.0542500
1887.89, 0.0541950
1888.58, 0.0543050
1889.27, 0.0544140
1889.96, 0.0542500
1890.65, 0.0539770
1891.34, 0.0540320
1892.03, 0.0541950
1892.72, 0.0542500
1893.41, 0.0542500
1894.1, 0.0541950
1894.79, 0.0540320
1895.49, 0.0541410
1896.18, 0.0543590
1896.87, 0.0543590
1897.57, 0.0540860
1898.26, 0.0539770
1898.96, 0.0539770
1899.65, 0.0540860
1900.35, 0.0540860
1901.05, 0.0540860
1901.74, 0.0541410
1902.44, 0.0539770
1903.14, 0.0539770
1903.84, 0.0540860
1904.54, 0.0540860
1905.24, 0.0541950
1905.94, 0.0541950
1906.64, 0.0540320
1907.34, 0.0540320
1908.04, 0.0540320
1908.75, 0.0539770
1909.45, 0.0539230
1910.15, 0.0540860
1910.86, 0.0540860
1911.56, 0.0539770
1912.27, 0.0540860
1912.97, 0.0539230
1913.68, 0.0539230
1914.39, 0.0540320
1915.09, 0.0540320
1915.8, 0.0539770
1916.51, 0.0539770
1917.22, 0.0540320
1917.93, 0.0538130
1918.64, 0.0537040
1919.35, 0.0538130
1920.06, 0.0538130
1920.77, 0.0538680
1921.48, 0.0539230
1922.19, 0.0538130
1922.91, 0.0538680
1923.62, 0.0539770
1924.33, 0.0537590
1925.05, 0.0535410
1925.76, 0.0535950
1926.48, 0.0539230
1927.19, 0.0541410
1927.91, 0.0539230
1928.63, 0.0538130
1929.35, 0.0538680
1930.07, 0.0538680
1930.78, 0.0539230
1931.5, 0.0539230
1932.22, 0.0538130
1932.94, 0.0537040
1933.66, 0.0536500
1934.39, 0.0534310
1935.11, 0.0535950
1935.83, 0.0538680
1936.55, 0.0535950
1937.28, 0.0536500
1938.0, 0.0538130
1938.73, 0.0536500
1939.45, 0.0536500
1940.18, 0.0538680
1940.9, 0.0539230
1941.63, 0.0538680
1942.36, 0.0537590
1943.09, 0.0538130
1943.81, 0.0539230
1944.54, 0.0537040
1945.27, 0.0535950
1946.0, 0.0537040
1946.73, 0.0535410
1947.47, 0.0535950
1948.2, 0.0537040
1948.93, 0.0537590
1949.66, 0.0538130
1950.4, 0.0537590
1951.13, 0.0537040
1951.86, 0.0538680
1952.6, 0.0538130
1953.34, 0.0536500
1954.07, 0.0534860
1954.81, 0.0534860
1955.55, 0.0535410
1956.29, 0.0536500
1957.02, 0.0536500
1957.76, 0.0537590
1958.5, 0.0538130
1959.24, 0.0536500
1959.98, 0.0535410
1960.72, 0.0535410
1961.47, 0.0536500
1962.21, 0.0538680
1962.95, 0.0538680
1963.7, 0.0538680
1964.44, 0.0538130
1965.18, 0.0538680
1965.93, 0.0538680
1966.67, 0.0538130
1967.42, 0.0536500
1968.17, 0.0535410
1968.92, 0.0535410
1969.66, 0.0535410
1970.41, 0.0536500
1971.16, 0.0539770
1971.91, 0.0538680
1972.66, 0.0537590
1973.41, 0.0537590
1974.16, 0.0537040
1974.92, 0.0538680
1975.67, 0.0539230
1976.42, 0.0537590
1977.18, 0.0537590
1977.93, 0.0538680
1978.69, 0.0539770
1979.44, 0.0537590
1980.2, 0.0537040
1980.95, 0.0538130
1981.71, 0.0539230
1982.47, 0.0540320
1983.23, 0.0541410
1983.99, 0.0538680
1984.74, 0.0537040
1985.51, 0.0538130
1986.27, 0.0538130
1987.03, 0.0538130
1987.79, 0.0539770
1988.55, 0.0539770
1989.32, 0.0540320
1990.08, 0.0540320
1990.84, 0.0539770
1991.61, 0.0539230
1992.37, 0.0539230
1993.14, 0.0540320
1993.9, 0.0540860
1994.67, 0.0539770
1995.44, 0.0540860
1996.21, 0.0541950
1996.98, 0.0542500
1997.75, 0.0541410
1998.52, 0.0541410
1999.29, 0.0541950
2000.06, 0.0540860
2000.83, 0.0540320
2001.6, 0.0540320
2002.38, 0.0540320
2003.15, 0.0540860
2003.93, 0.0540860
2004.7, 0.0540860
2005.48, 0.0541410
2006.25, 0.0541950
2007.03, 0.0540320
2007.81, 0.0539230
2008.58, 0.0541410
2009.36, 0.0541950
2010.14, 0.0541410
2010.92, 0.0544140
2011.7, 0.0545230
2012.48, 0.0543050
2013.26, 0.0540860
2014.05, 0.0543050
2014.83, 0.0544140
2015.61, 0.0544140
2016.4, 0.0543590
2017.18, 0.0542500
2017.97, 0.0542500
2018.75, 0.0543590
2019.54, 0.0544140
2020.32, 0.0544140
2021.11, 0.0543590
2021.9, 0.0543050
2022.69, 0.0543050
2023.48, 0.0543050
2024.27, 0.0541950
2025.06, 0.0541410
2025.85, 0.0543590
2026.64, 0.0544140
2027.44, 0.0542500
2028.23, 0.0543590
2029.02, 0.0544680
2029.82, 0.0543590
2030.61, 0.0543590
2031.41, 0.0545230
2032.2, 0.0545780
2033.0, 0.0543590
2033.8, 0.0543590
2034.6, 0.0544680
2035.4, 0.0544140
2036.2, 0.0545780
2037.0, 0.0545230
2037.8, 0.0543050
2038.6, 0.0543590
2039.4, 0.0543590
2040.2, 0.0543590
2041.01, 0.0543590
2041.81, 0.0544140
2042.61, 0.0542500
2043.42, 0.0540860
2044.22, 0.0543050
2045.03, 0.0545780
2045.84, 0.0545780
2046.65, 0.0544680
2047.46, 0.0543590
2048.26, 0.0541950
2049.07, 0.0541410
2049.88, 0.0543050
2050.69, 0.0542500
2051.51, 0.0543590
2052.32, 0.0543590
2053.13, 0.0542500
2053.94, 0.0542500
2054.76, 0.0541410
2055.57, 0.0541410
2056.39, 0.0542500
2057.2, 0.0543590
2058.02, 0.0543590
2058.84, 0.0541950
2059.66, 0.0540860
2060.48, 0.0540320
2061.29, 0.0541410
2062.11, 0.0544680
2062.94, 0.0545780
2063.76, 0.0543050
2064.58, 0.0540860
2065.4, 0.0543050
2066.22, 0.0542500
2067.05, 0.0542500
2067.87, 0.0543050
2068.7, 0.0542500
2069.52, 0.0542500
2070.35, 0.0541410
2071.18, 0.0541410
2072.0, 0.0543050
2072.83, 0.0544140
2073.66, 0.0543050
2074.49, 0.0541410
2075.32, 0.0540320
2076.15, 0.0541950
2076.98, 0.0542500
2077.82, 0.0542500
2078.65, 0.0542500
2079.48, 0.0541950
2080.32, 0.0543050
2081.15, 0.0542500
2081.99, 0.0541950
2082.83, 0.0543050
2083.66, 0.0543050
2084.5, 0.0542500
2085.34, 0.0540320
2086.18, 0.0539770
2087.02, 0.0541410
2087.86, 0.0542500
2088.7, 0.0542500
2089.54, 0.0541950
2090.39, 0.0540860
2091.23, 0.0540320
2092.07, 0.0540860
2092.92, 0.0541410
2093.76, 0.0541410
2094.61, 0.0541950
2095.45, 0.0541410
2096.3, 0.0541950
2097.15, 0.0541950
2098.0, 0.0541410
2098.85, 0.0543590
2099.7, 0.0544140
2100.55, 0.0544140
2101.4, 0.0543050
2102.25, 0.0542500
2103.1, 0.0544680
2103.96, 0.0545230
2104.81, 0.0543590
2105.67, 0.0543050
2106.52, 0.0543590
2107.38, 0.0544140
2108.24, 0.0543590
2109.09, 0.0544140
2109.95, 0.0541950
2110.81, 0.0541950
2111.67, 0.0541410
2112.53, 0.0541410
2113.39, 0.0543050
2114.25, 0.0542500
2115.12, 0.0543050
2115.98, 0.0543590
2116.84, 0.0544680
2117.71, 0.0544680
2118.58, 0.0543590
2119.44, 0.0543050
2120.31, 0.0543050
2121.18, 0.0543590
2122.04, 0.0542500
2122.91, 0.0540860
2123.78, 0.0540320
2124.65, 0.0540860
2125.52, 0.0541950
2126.4, 0.0541950
2127.27, 0.0542500
2128.14, 0.0543050
2129.02, 0.0542500
2129.89, 0.0540860
2130.77, 0.0539770
2131.64, 0.0540320
2132.52, 0.0541410
2133.4, 0.0540320
2134.27, 0.0539230
2135.15, 0.0539770
2136.03, 0.0539230
2136.91, 0.0538680
2137.79, 0.0539230
2138.68, 0.0539770
2139.56, 0.0539230
2140.44, 0.0539230
2141.33, 0.0539770
2142.21, 0.0539770
2143.1, 0.0538680
2143.99, 0.0537590
2144.87, 0.0536500
2145.76, 0.0535950
2146.65, 0.0535950
2147.54, 0.0534860
2148.43, 0.0536500
2149.32, 0.0534860
2150.21, 0.0533770
2151.1, 0.0534310
2151.99, 0.0533220
2152.89, 0.0531590
2153.78, 0.0532130
2154.68, 0.0533220
2155.57, 0.0532680
2156.47, 0.0531590
2157.37, 0.0529950
2158.27, 0.0529400
2159.16, 0.0529950
2160.06, 0.0529400
2160.96, 0.0528860
2161.86, 0.0530490
2162.77, 0.0531590
2163.67, 0.0529400
2164.57, 0.0527760
2165.48, 0.0528310
2166.38, 0.0529950
2167.29, 0.0528860
2168.2, 0.0527760
2169.1, 0.0528860
2170.01, 0.0531040
2170.92, 0.0529400
2171.83, 0.0529400
2172.74, 0.0529950
2173.65, 0.0528860
2174.56, 0.0529950
2175.47, 0.0529950
2176.39, 0.0529400
2177.3, 0.0528310
2178.22, 0.0529400
2179.13, 0.0529400
2180.05, 0.0528310
2180.96, 0.0529950
2181.88, 0.0529950
2182.8, 0.0528310
2183.72, 0.0526670
2184.64, 0.0526130
2185.56, 0.0527220
2186.48, 0.0528310
2187.41, 0.0527220
2188.33, 0.0525580
2189.25, 0.0527220
2190.18, 0.0526670
2191.1, 0.0525580
2192.03, 0.0525580
2192.96, 0.0523940
2193.89, 0.0522310
2194.82, 0.0523400
2195.74, 0.0523400
2196.68, 0.0522310
2197.61, 0.0522850
2198.54, 0.0523940
2199.47, 0.0522310
2200.4, 0.0521220
2201.34, 0.0520670
2202.28, 0.0519030
2203.21, 0.0517390
2204.15, 0.0516850
2205.08, 0.0517940
2206.02, 0.0517390
2206.96, 0.0515210
2207.9, 0.0514120
2208.84, 0.0513570
2209.78, 0.0514120
2210.73, 0.0516850
2211.67, 0.0520120
2212.61, 0.0521760
2213.56, 0.0520670
2214.5, 0.0521220
2215.45, 0.0523400
2216.4, 0.0523400
2217.35, 0.0523940
2218.3, 0.0524490
2219.24, 0.0523940
2220.2, 0.0523940
2221.15, 0.0525040
2222.1, 0.0527760
2223.05, 0.0528860
2224.0, 0.0527220
2224.96, 0.0525040
2225.91, 0.0523940
2226.87, 0.0524490
2227.83, 0.0523940
2228.79, 0.0525040
2229.74, 0.0526670
2230.7, 0.0525580
2231.66, 0.0524490
2232.63, 0.0525580
2233.59, 0.0525580
2234.55, 0.0524490
2235.51, 0.0525040
2236.48, 0.0527220
2237.44, 0.0526670
2238.41, 0.0525040
2239.38, 0.0522850
2240.34, 0.0522850
2241.31, 0.0523400
2242.28, 0.0523940
2243.25, 0.0523940
2244.22, 0.0522310
2245.19, 0.0520670
2246.17, 0.0523400
2247.14, 0.0523940
2248.12, 0.0523400
2249.09, 0.0526120
2250.07, 0.0526120
2251.04, 0.0522850
2252.02, 0.0520670
2253.0, 0.0523940
2253.98, 0.0524490
2254.96, 0.0523940
2255.94, 0.0524490
2256.92, 0.0523400
2257.91, 0.0519040
2258.89, 0.0518490
2259.88, 0.0519580
2260.86, 0.0520670
2261.85, 0.0522310
2262.83, 0.0521760
2263.82, 0.0519040
2264.81, 0.0518490
2265.8, 0.0520130
2266.79, 0.0522310
2267.78, 0.0520670
2268.78, 0.0517400
2269.77, 0.0515760
2270.76, 0.0516310
2271.76, 0.0517950
2272.75, 0.0521220
2273.75, 0.0522310
2274.75, 0.0519040
2275.75, 0.0520130
2276.75, 0.0519580
2277.75, 0.0520670
2278.75, 0.0520670
2279.75, 0.0517400
2280.75, 0.0514130
2281.76, 0.0513580
2282.76, 0.0516310
2283.77, 0.0520130
2284.77, 0.0521760
2285.78, 0.0520670
2286.79, 0.0519040
2287.8, 0.0517400
2288.81, 0.0519040
2289.82, 0.0519580
2290.83, 0.0517950
2291.84, 0.0519580
2292.86, 0.0518490
2293.87, 0.0516850
2294.89, 0.0515220
2295.91, 0.0516310
2296.92, 0.0518490
2297.94, 0.0517400
2298.96, 0.0516850
2299.98, 0.0517950
2301.0, 0.0519040
2302.02, 0.0518490
2303.04, 0.0517400
2304.07, 0.0516850
2305.09, 0.0516850
2306.12, 0.0519040
2307.15, 0.0516310
2308.17, 0.0515220
2309.2, 0.0514670
2310.23, 0.0514670
2311.26, 0.0516310
2312.29, 0.0514670
2313.32, 0.0513580
2314.35, 0.0514670
2315.39, 0.0516310
2316.42, 0.0516310
2317.46, 0.0515220
2318.5, 0.0516850
2319.53, 0.0517400
2320.57, 0.0515760
2321.61, 0.0514130
2322.65, 0.0512490
2323.69, 0.0513580
2324.73, 0.0514130
2325.78, 0.0515760
2326.82, 0.0515760
2327.86, 0.0514670
2328.91, 0.0513040
2329.96, 0.0515220
2331.01, 0.0515220
2332.05, 0.0514130
2333.1, 0.0514670
2334.15, 0.0514670
2335.21, 0.0514670
2336.26, 0.0513580
2337.31, 0.0511950
2338.36, 0.0510860
2339.42, 0.0511400
2340.48, 0.0513580
2341.53, 0.0515220
2342.59, 0.0514130
2343.65, 0.0514130
2344.71, 0.0514670
2345.77, 0.0512490
2346.83, 0.0512490
2347.9, 0.0510310
2348.96, 0.0507040
2350.02, 0.0508130
2351.09, 0.0510860
2352.16, 0.0511400
2353.23, 0.0509220
2354.29, 0.0510860
2355.36, 0.0511950
2356.43, 0.0510860
2357.51, 0.0512490
2358.58, 0.0513040
2359.65, 0.0510310
2360.73, 0.0509770
2361.8, 0.0510860
2362.88, 0.0510310
2363.96, 0.0511950
2365.03, 0.0513580
2366.11, 0.0513580
2367.19, 0.0511400
2368.27, 0.0509770
2369.36, 0.0507590
2370.44, 0.0506500
2371.53, 0.0507590
2372.61, 0.0509770
2373.7, 0.0511950
2374.78, 0.0510860
2375.87, 0.0511950
2376.96, 0.0512490
2378.05, 0.0510310
2379.14, 0.0508680
2380.24, 0.0509770
2381.33, 0.0508680
2382.42, 0.0507040
2383.52, 0.0508130
2384.61, 0.0508680
2385.71, 0.0508680
2386.81, 0.0508680
2387.91, 0.0508130
2389.01, 0.0507040
2390.11, 0.0504320
2391.22, 0.0507040
2392.32, 0.0510310
2393.42, 0.0509770
2394.53, 0.0509770
2395.64, 0.0509770
2396.74, 0.0507590
2397.85, 0.0507590
2398.96, 0.0509220
2400.07, 0.0509220
2401.18, 0.0507040
2402.3, 0.0505410
2403.41, 0.0508130
2404.52, 0.0509220
2405.64, 0.0506500
2406.76, 0.0507590
2407.88, 0.0509770
2408.99, 0.0507040
2410.11, 0.0508680
2411.23, 0.0510310
2412.36, 0.0509770
2413.48, 0.0508130
2414.6, 0.0505950
2415.73, 0.0505950
2416.85, 0.0504320
2417.98, 0.0504320
2419.11, 0.0505410
2420.24, 0.0505950
2421.37, 0.0505950
2422.5, 0.0507040
2423.64, 0.0507590
2424.77, 0.0507590
2425.9, 0.0508680
2427.04, 0.0506500
2428.18, 0.0503220
2429.31, 0.0503770
2430.45, 0.0506500
2431.59, 0.0505410
2432.73, 0.0504320
2433.88, 0.0505410
2435.02, 0.0506500
2436.16, 0.0507040
2437.31, 0.0505950
2438.45, 0.0505410
2439.6, 0.0504860
2440.75, 0.0502130
2441.9, 0.0502130
2443.05, 0.0503770
2444.2, 0.0503770
2445.35, 0.0502680
2446.51, 0.0501040
2447.67, 0.0501590
2448.82, 0.0504320
2449.98, 0.0504320
2451.14, 0.0501040
2452.3, 0.0501040
2453.46, 0.0503770
2454.62, 0.0503770
2455.78, 0.0503770
2456.94, 0.0503220
2458.11, 0.0503770
2459.28, 0.0503770
2460.44, 0.0503220
2461.61, 0.0500500
2462.78, 0.0500500
2463.95, 0.0501590
2465.12, 0.0500500
2466.3, 0.0500500
2467.47, 0.0500500
2468.65, 0.0500500
2469.82, 0.0501040
2471.0, 0.0499410
2472.18, 0.0499410
2473.36, 0.0498320
2474.54, 0.0497770
2475.72, 0.0496680
2476.9, 0.0496140
2478.08, 0.0499410
2479.27, 0.0501040
2480.46, 0.0499950
2481.64, 0.0499950
2482.83, 0.0501040
2484.02, 0.0500500
2485.21, 0.0500500
2486.4, 0.0500500
2487.6, 0.0499410
2488.79, 0.0498320
2489.99, 0.0499410
2491.18, 0.0500500
2492.38, 0.0502130
2493.58, 0.0501590
2494.78, 0.0499410
2495.98, 0.0499410
2497.18, 0.0499950
2498.39, 0.0502130
2499.59, 0.0502680
2500.8, 0.0501040
2502.01, 0.0499410
2503.21, 0.0500500
2504.42, 0.0500500
2505.63, 0.0499950
2506.84, 0.0500500
2508.06, 0.0499410
2509.27, 0.0495590
2510.49, 0.0495050
2511.7, 0.0495590
2512.92, 0.0497230
2514.14, 0.0497770
2515.36, 0.0498860
2516.58, 0.0499410
2517.8, 0.0499950
2519.03, 0.0501040
2520.25, 0.0499950
2521.48, 0.0498860
2522.7, 0.0497770
2523.93, 0.0498320
2525.16, 0.0499950
2526.39, 0.0501590
2527.62, 0.0501040
2528.86, 0.0498860
2530.09, 0.0498320
2531.33, 0.0497230
2532.56, 0.0498320
2533.8, 0.0498320
2535.04, 0.0497230
2536.28, 0.0498320
2537.52, 0.0499950
2538.76, 0.0499950
2540.01, 0.0499950
2541.25, 0.0497230
2542.5, 0.0493960
2543.75, 0.0493410
2544.99, 0.0495590
2546.24, 0.0496140
2547.49, 0.0493960
2548.75, 0.0496140
2550.0, 0.0496680
2551.26, 0.0493410
2552.51, 0.0492870
2553.77, 0.0496140
2555.03, 0.0497770
2556.29, 0.0496680
2557.55, 0.0496680
2558.81, 0.0496140
2560.08, 0.0489590
2561.34, 0.0485230
2562.61, 0.0486320
2563.88, 0.0488500
2565.14, 0.0491230
2566.41, 0.0492870
2567.68, 0.0491780
2568.96, 0.0489050
2570.23, 0.0492870
2571.51, 0.0495050
2572.78, 0.0487960
2574.06, 0.0490140
2575.34, 0.0493410
2576.62, 0.0489050
2577.9, 0.0490680
2579.18, 0.0494500
2580.47, 0.0490140
2581.75, 0.0488500
2583.04, 0.0482510
2584.32, 0.0481420
2585.61, 0.0487410
2586.9, 0.0486870
2588.2, 0.0487960
2589.49, 0.0488500
2590.78, 0.0492870
2592.08, 0.0492320
2593.37, 0.0475960
2594.67, 0.0461240
2595.97, 0.0474330
2597.27, 0.0489590
2598.57, 0.0496140
2599.88, 0.0494500
2601.18, 0.0488500
2602.49, 0.0483600
2603.79, 0.0480330
2605.1, 0.0477050
2606.41, 0.0481420
2607.72, 0.0485780
2609.03, 0.0486320
2610.35, 0.0487960
2611.66, 0.0490140
2612.98, 0.0488500
2614.3, 0.0487410
2615.62, 0.0479240
2616.94, 0.0475420
2618.26, 0.0483050
2619.58, 0.0479780
2620.91, 0.0480870
2622.23, 0.0488500
2623.56, 0.0489050
2624.89, 0.0485780
2626.22, 0.0479780
2627.55, 0.0482510
2628.88, 0.0479240
2630.21, 0.0472150
2631.55, 0.0478150
2632.89, 0.0482510
2634.22, 0.0483600
2635.56, 0.0486320
2636.9, 0.0489050
2638.25, 0.0489050
2639.59, 0.0486320
2640.93, 0.0484140
2642.28, 0.0485230
2643.63, 0.0486870
2644.98, 0.0483050
2646.33, 0.0483050
2647.68, 0.0485780
2649.03, 0.0486320
2650.39, 0.0483600
2651.74, 0.0478690
2653.1, 0.0479240
2654.46, 0.0480330
2655.82, 0.0479780
2657.18, 0.0480870
2658.54, 0.0475960
2659.9, 0.0475420
2661.27, 0.0478690
2662.64, 0.0478690
2664.01, 0.0466150
2665.38, 0.0456880
2666.74, 0.0455790
2668.12, 0.0462330
2669.49, 0.0454700
2670.87, 0.0454160
2672.24, 0.0468330
2673.62, 0.0470510
2675.0, 0.0463970
2676.38, 0.0456880
2677.76, 0.0457970
2679.15, 0.0460150
2680.54, 0.0467240
2681.92, 0.0467790
2683.31, 0.0463970
2684.7, 0.0463420
2686.09, 0.0462330
2687.48, 0.0462880
2688.88, 0.0462880
2690.27, 0.0461240
2691.67, 0.0457430
2693.07, 0.0450340
2694.47, 0.0448160
2695.87, 0.0449250
2697.27, 0.0448700
2698.67, 0.0447070
2700.08, 0.0441620
2701.49, 0.0436160
2702.9, 0.0435070
2704.31, 0.0430710
2705.72, 0.0428530
2707.13, 0.0427440
2708.54, 0.0424170
2709.96, 0.0420350
2711.38, 0.0422530
2712.8, 0.0433440
2714.22, 0.0438890
2715.64, 0.0438890
2717.06, 0.0436710
2718.49, 0.0435070
2719.91, 0.0425260
2721.34, 0.0426900
2722.77, 0.0429620
2724.2, 0.0422530
2725.63, 0.0426900
2727.07, 0.0435070
2728.5, 0.0438890
2729.94, 0.0439980
2731.38, 0.0438350
2732.82, 0.0434530
2734.26, 0.0428530
2735.7, 0.0428530
2737.15, 0.0429620
2738.59, 0.0420350
2740.04, 0.0414900
2741.49, 0.0423080
2742.94, 0.0431260
2744.39, 0.0434530
2745.84, 0.0435620
2747.3, 0.0434530
2748.76, 0.0432890
2750.21, 0.0435070
2751.67, 0.0433980
2753.14, 0.0427440
2754.6, 0.0413810
2756.06, 0.0411080
2757.53, 0.0417630
2759.0, 0.0415450
2760.46, 0.0409990
2761.94, 0.0402910
2763.41, 0.0405090
2764.88, 0.0414360
2766.36, 0.0419260
2767.83, 0.0419810
2769.31, 0.0418170
2770.79, 0.0419260
2772.27, 0.0424170
2773.76, 0.0427990
2775.24, 0.0428530
2776.73, 0.0426900
2778.22, 0.0426900
2779.71, 0.0426900
2781.2, 0.0424710
2782.69, 0.0424710
2784.18, 0.0426350
2785.68, 0.0421990
2787.18, 0.0418720
2788.68, 0.0421990
2790.18, 0.0427440
2791.68, 0.0427440
2793.19, 0.0425810
2794.69, 0.0425810
2796.2, 0.0423620
2797.71, 0.0422530
2799.22, 0.0423620
2800.73, 0.0421990
2802.24, 0.0417630
2803.76, 0.0417630
2805.28, 0.0420900
2806.8, 0.0421440
2808.32, 0.0420900
2809.84, 0.0419810
2811.36, 0.0420350
2812.89, 0.0418720
2814.42, 0.0416540
2815.94, 0.0416540
2817.48, 0.0417080
2819.01, 0.0415990
2820.54, 0.0414900
2822.08, 0.0415990
2823.61, 0.0416540
2825.15, 0.0414900
2826.69, 0.0411630
2828.23, 0.0409990
2829.78, 0.0407810
2831.32, 0.0402910
2832.87, 0.0400180
2834.42, 0.0400180
2835.97, 0.0401270
2837.52, 0.0402910
2839.08, 0.0404540
2840.63, 0.0405090
2842.19, 0.0406180
2843.75, 0.0408360
2845.31, 0.0407270
2846.87, 0.0406180
2848.44, 0.0406720
2850.0, 0.0406720
2851.57, 0.0407270
2853.14, 0.0407270
2854.71, 0.0406720
2856.28, 0.0407270
2857.86, 0.0408360
2859.43, 0.0407810
2861.01, 0.0407270
2862.59, 0.0405630
2864.17, 0.0404000
2865.76, 0.0404000
2867.34, 0.0404000
2868.93, 0.0404540
2870.52, 0.0404000
2872.11, 0.0402910
2873.7, 0.0401820
2875.29, 0.0401820
2876.89, 0.0400730
2878.49, 0.0400730
2880.08, 0.0400180
2881.69, 0.0400730
2883.29, 0.0401270
2884.89, 0.0400180
2886.5, 0.0398550
2888.11, 0.0398000
2889.72, 0.0396910
2891.33, 0.0395270
2892.94, 0.0395270
2894.56, 0.0394730
2896.17, 0.0393640
2897.79, 0.0393090
2899.42, 0.0393090
2901.04, 0.0392550
2902.66, 0.0392550
2904.29, 0.0392550
2905.92, 0.0392000
2907.55, 0.0390910
2909.18, 0.0390910
2910.81, 0.0391460
2912.45, 0.0392550
2914.08, 0.0394730
2915.72, 0.0394730
2917.36, 0.0394180
2919.01, 0.0394180
2920.65, 0.0393640
2922.3, 0.0394180
2923.94, 0.0394730
2925.59, 0.0395820
2927.25, 0.0396360
2928.9, 0.0395820
2930.56, 0.0394730
2932.21, 0.0394180
2933.87, 0.0395270
2935.53, 0.0396910
2937.2, 0.0396910
2938.86, 0.0395270
2940.53, 0.0394180
2942.2, 0.0394180
2943.87, 0.0393090
2945.54, 0.0392000
2947.22, 0.0393640
2948.89, 0.0394730
2950.57, 0.0394730
2952.25, 0.0394180
2953.93, 0.0394730
2955.62, 0.0393640
2957.3, 0.0393640
2958.99, 0.0393640
2960.68, 0.0394180
2962.37, 0.0395270
2964.07, 0.0395820
2965.76, 0.0395270
2967.46, 0.0396360
2969.16, 0.0398000
2970.86, 0.0397450
2972.56, 0.0395820
2974.27, 0.0395270
2975.98, 0.0395820
2977.69, 0.0396910
2979.4, 0.0398000
2981.11, 0.0399090
2982.83, 0.0399640
2984.54, 0.0399640
2986.26, 0.0398550
2987.98, 0.0397450
2989.71, 0.0397450
2991.43, 0.0399090
2993.16, 0.0399640
2994.89, 0.0400180
2996.62, 0.0400730
2998.35, 0.0401270
3000.09, 0.0400730
3001.83, 0.0400180
3003.57, 0.0399090
3005.31, 0.0399640
3007.05, 0.0400180
3008.79, 0.0400180
3010.54, 0.0401820
3012.29, 0.0401820
3014.04, 0.0402360
3015.8, 0.0402910
3017.55, 0.0401270
3019.31, 0.0400180
3021.07, 0.0400730
3022.83, 0.0401270
3024.59, 0.0401270
3026.36, 0.0401270
3028.13, 0.0401270
3029.9, 0.0401270
3031.67, 0.0400730
3033.44, 0.0401270
3035.22, 0.0401820
3037.0, 0.0401820
3038.78, 0.0402360
3040.56, 0.0402360
3042.34, 0.0402360
3044.13, 0.0401820
3045.92, 0.0401270
3047.71, 0.0400180
3049.5, 0.0399090
3051.3, 0.0400730
3053.09, 0.0402360
3054.89, 0.0402360
3056.69, 0.0401820
3058.5, 0.0402360
3060.3, 0.0402910
3062.11, 0.0402360
3063.92, 0.0402360
3065.73, 0.0401820
3067.55, 0.0401820
3069.36, 0.0400730
3071.18, 0.0401270
3073.0, 0.0402910
3074.82, 0.0402910
3076.65, 0.0402360
3078.48, 0.0401820
3080.31, 0.0402910
3082.14, 0.0404000
3083.97, 0.0405090
3085.8, 0.0405630
3087.64, 0.0406180
3089.48, 0.0406180
3091.33, 0.0406180
3093.17, 0.0406720
3095.02, 0.0406720
3096.87, 0.0405090
3098.72, 0.0405630
3100.57, 0.0406180
3102.43, 0.0405630
3104.28, 0.0405630
3106.14, 0.0407270
3108.01, 0.0407810
3109.87, 0.0409450
3111.74, 0.0408900
3113.61, 0.0407270
3115.48, 0.0407810
3117.35, 0.0408360
3119.23, 0.0408900
3121.1, 0.0408900
3122.98, 0.0408360
3124.87, 0.0408360
3126.75, 0.0409450
3128.64, 0.0410540
3130.53, 0.0411080
3132.42, 0.0411630
3134.31, 0.0411080
3136.21, 0.0411080
3138.11, 0.0411080
3140.01, 0.0411630
3141.91, 0.0411080
3143.82, 0.0411080
3145.73, 0.0412720
3147.64, 0.0413810
3149.55, 0.0413810
3151.46, 0.0412720
3153.38, 0.0412720
3155.3, 0.0413270
3157.22, 0.0414360
3159.14, 0.0415450
3161.07, 0.0414900
3163.0, 0.0414360
3164.93, 0.0414360
3166.86, 0.0415450
3168.8, 0.0415450
3170.74, 0.0415450
3172.68, 0.0414900
3174.62, 0.0414360
3176.56, 0.0415450
3178.51, 0.0417080
3180.46, 0.0416540
3182.42, 0.0415990
3184.37, 0.0417080
3186.33, 0.0418170
3188.29, 0.0417630
3190.25, 0.0417630
3192.21, 0.0417080
3194.18, 0.0417080
3196.15, 0.0417630
3198.12, 0.0418170
3200.09, 0.0418720
3202.07, 0.0418170
3204.05, 0.0418720
3206.03, 0.0421440
3208.02, 0.0421990
3210.0, 0.0421440
3211.99, 0.0420900
3213.98, 0.0420900
3215.98, 0.0421440
3217.97, 0.0421990
3219.97, 0.0422530
3221.97, 0.0423080
3223.98, 0.0422530
3225.98, 0.0423080
3227.99, 0.0423620
3230.0, 0.0423620
3232.02, 0.0424170
3234.03, 0.0424170
3236.05, 0.0424170
3238.07, 0.0424710
3240.1, 0.0425260
3242.12, 0.0424710
3244.15, 0.0425810
3246.18, 0.0425810
3248.22, 0.0425260
3250.25, 0.0426350
3252.29, 0.0427440
3254.33, 0.0427440
3256.38, 0.0427990
3258.43, 0.0429080
3260.47, 0.0428530
3262.53, 0.0427440
3264.58, 0.0427990
3266.64, 0.0429080
3268.7, 0.0429080
3270.76, 0.0429620
3272.82, 0.0429620
3274.89, 0.0430710
3276.96, 0.0430710
3279.04, 0.0430170
3281.11, 0.0429080
3283.19, 0.0428530
3285.27, 0.0429620
3287.35, 0.0431800
3289.44, 0.0432350
3291.53, 0.0432890
3293.62, 0.0433440
3295.71, 0.0434530
3297.81, 0.0434530
3299.91, 0.0435070
3302.01, 0.0434530
3304.11, 0.0435620
3306.22, 0.0435620
3308.33, 0.0435070
3310.44, 0.0436160
3312.56, 0.0435620
3314.68, 0.0435620
3316.8, 0.0436710
3318.92, 0.0436160
3321.05, 0.0436160
3323.18, 0.0436160
3325.31, 0.0436160
3327.44, 0.0436710
3329.58, 0.0435620
3331.72, 0.0435070
3333.86, 0.0436160
3336.01, 0.0437800
3338.16, 0.0437800
3340.31, 0.0437800
3342.46, 0.0437800
3344.61, 0.0438350
3346.77, 0.0438350
3348.94, 0.0438350
3351.1, 0.0438890
3353.27, 0.0439980
3355.44, 0.0439980
3357.61, 0.0440530
3359.79, 0.0439980
3361.97, 0.0439440
3364.15, 0.0440530
3366.33, 0.0441070
3368.52, 0.0440530
3370.71, 0.0439980
3372.9, 0.0440530
3375.1, 0.0441620
3377.3, 0.0442160
3379.5, 0.0443250
3381.71, 0.0442710
3383.91, 0.0442160
3386.12, 0.0442160
3388.34, 0.0443250
3390.55, 0.0443250
3392.77, 0.0441620
3394.99, 0.0441620
3397.22, 0.0442710
3399.45, 0.0443250
3401.68, 0.0443250
3403.91, 0.0442710
3406.15, 0.0441620
3408.39, 0.0442710
3410.63, 0.0443250
3412.87, 0.0443800
3415.12, 0.0443800
3417.37, 0.0443250
3419.63, 0.0443800
3421.88, 0.0444340
3424.14, 0.0443250
3426.41, 0.0442710
3428.67, 0.0444340
3430.94, 0.0445430
3433.21, 0.0446520
3435.49, 0.0446520
3437.77, 0.0445980
3440.05, 0.0445980
3442.33, 0.0446520
3444.62, 0.0446520
3446.91, 0.0446520
3449.2, 0.0446520
3451.5, 0.0447070
3453.8, 0.0445430
3456.1, 0.0444890
3458.41, 0.0445980
3460.72, 0.0445980
3463.03, 0.0444890
3465.34, 0.0445430
3467.66, 0.0445980
3469.98, 0.0447070
3472.31, 0.0447070
3474.63, 0.0445430
3476.96, 0.0445430
3479.3, 0.0445980
3481.64, 0.0447070
3483.97, 0.0448160
3486.32, 0.0448700
3488.66, 0.0448160
3491.01, 0.0448160
3493.36, 0.0447610
3495.72, 0.0447610
3498.08, 0.0446520
3500.44, 0.0445980
3502.81, 0.0447070
3505.18, 0.0446520
3507.55, 0.0447610
3509.92, 0.0448160
3512.3, 0.0448700
3514.68, 0.0448700
3517.06, 0.0449250
3519.45, 0.0449250
3521.84, 0.0449790
3524.24, 0.0449790
3526.64, 0.0448700
3529.04, 0.0448700
3531.44, 0.0449790
3533.85, 0.0449790
3536.26, 0.0450340
3538.67, 0.0450340
3541.09, 0.0449790
3543.51, 0.0449790
3545.93, 0.0450340
3548.36, 0.0450340
3550.79, 0.0450880
3553.22, 0.0451430
3555.66, 0.0450340
3558.1, 0.0449790
3560.54, 0.0450880
3562.99, 0.0451980
3565.44, 0.0453070
3567.9, 0.0453610
3570.35, 0.0453070
3572.81, 0.0451430
3575.28, 0.0451430
3577.75, 0.0451430
3580.22, 0.0451430
3582.69, 0.0450880
3585.17, 0.0451430
3587.65, 0.0451430
3590.14, 0.0450880
3592.62, 0.0451430
3595.11, 0.0451430
3597.61, 0.0451430
3600.11, 0.0451980
3602.61, 0.0451980
3605.11, 0.0452520
3607.62, 0.0453610
3610.14, 0.0454160
3612.65, 0.0453070
3615.17, 0.0453070
3617.69, 0.0453070
3620.22, 0.0452520
3622.75, 0.0453070
3625.28, 0.0453610
3627.82, 0.0453070
3630.36, 0.0453070
3632.9, 0.0453070
3635.45, 0.0453610
3638.0, 0.0453610
3640.56, 0.0454160
3643.12, 0.0453610
3645.68, 0.0454160
3648.24, 0.0454700
3650.81, 0.0454700
3653.39, 0.0454700
3655.96, 0.0455250
3658.54, 0.0454700
3661.13, 0.0455250
3663.71, 0.0455790
3666.3, 0.0454160
3668.9, 0.0453610
3671.5, 0.0454160
3674.1, 0.0453610
3676.7, 0.0454160
3679.31, 0.0454700
3681.93, 0.0455250
3684.54, 0.0454700
3687.17, 0.0454700
3689.79, 0.0454700
3692.42, 0.0454700
3695.05, 0.0454700
3697.69, 0.0455250
3700.32, 0.0455250
3702.97, 0.0454700
3705.61, 0.0454700
3708.27, 0.0455250
3710.92, 0.0456340
3713.58, 0.0456340
3716.24, 0.0455790
3718.91, 0.0455250
3721.58, 0.0455250
3724.25, 0.0455790
3726.93, 0.0455790
3729.61, 0.0455790
3732.29, 0.0456340
3734.98, 0.0456880
3737.67, 0.0456880
3740.37, 0.0455790
3743.07, 0.0456340
3745.78, 0.0456880
3748.49, 0.0456880
3751.2, 0.0456880
3753.91, 0.0456340
3756.63, 0.0456340
3759.36, 0.0456340
3762.09, 0.0456340
3764.82, 0.0456880
3767.55, 0.0456340
3770.29, 0.0457430
3773.04, 0.0456880
3775.78, 0.0455790
3778.54, 0.0455790
3781.29, 0.0456340
3784.05, 0.0456880
3786.82, 0.0457430
3789.59, 0.0456880
3792.36, 0.0456340
3795.13, 0.0456880
3797.92, 0.0457970
3800.7, 0.0459060
3803.49, 0.0457970
3806.28, 0.0456880
3809.08, 0.0457430
3811.88, 0.0456880
3814.68, 0.0456340
3817.49, 0.0456880
3820.31, 0.0456340
3823.12, 0.0456880
3825.94, 0.0456880
3828.77, 0.0457430
3831.6, 0.0457970
3834.43, 0.0458520
3837.27, 0.0457430
3840.11, 0.0456340
3842.96, 0.0456340
3845.81, 0.0456340
3848.67, 0.0457430
3851.53, 0.0457430
3854.39, 0.0457430
3857.26, 0.0456880
3860.13, 0.0457430
3863.01, 0.0457430
3865.89, 0.0457430
3868.77, 0.0456880
3871.66, 0.0456880
3874.55, 0.0456340
3877.45, 0.0456880
3880.35, 0.0457430
3883.26, 0.0457430
3886.17, 0.0456340
3889.09, 0.0456340
3892.01, 0.0456340
3894.93, 0.0456340
3897.86, 0.0457430
3900.79, 0.0457970
3903.73, 0.0457970
3906.67, 0.0457970
3909.62, 0.0457430
3912.57, 0.0456880
3915.52, 0.0456340
3918.48, 0.0456880
3921.45, 0.0458520
3924.42, 0.0459060
3927.39, 0.0459060
3930.37, 0.0458520
3933.35, 0.0457430
3936.34, 0.0456880
3939.33, 0.0457970
3942.32, 0.0457430
3945.32, 0.0456880
3948.33, 0.0457430
3951.34, 0.0458520
3954.35, 0.0459060
3957.37, 0.0458520
3960.39, 0.0457970
3963.42, 0.0457430
3966.45, 0.0457430
3969.49, 0.0457970
3972.53, 0.0457970
3975.58, 0.0459060
3978.63, 0.0459610
3981.68, 0.0458520
3984.75, 0.0457970
3987.81, 0.0457970
3990.88, 0.0458520
3993.95, 0.0458520
3997.03, 0.0457970
4000.12, 0.0457970
4003.21, 0.0457430
4006.3, 0.0457430
4009.4, 0.0459060
4012.5, 0.0458520
4015.61, 0.0457430
4018.72, 0.0457970
4021.84, 0.0458520
4024.96, 0.0458520
4028.09, 0.0459610
4031.22, 0.0459060
4034.36, 0.0458520
4037.5, 0.0459060
4040.65, 0.0459610
4043.8, 0.0459060
4046.96, 0.0458520
4050.12, 0.0459060
4053.29, 0.0459610
4056.46, 0.0459610
4059.64, 0.0459060
4062.82, 0.0459060
4066.0, 0.0458520
4069.19, 0.0457970
4072.39, 0.0458520
4075.59, 0.0458520
4078.8, 0.0457970
4082.01, 0.0458520
4085.23, 0.0458520
4088.45, 0.0457970
4091.68, 0.0457970
4094.91, 0.0458520
4098.15, 0.0458520
4101.39, 0.0457430
4104.63, 0.0457970
4107.89, 0.0458520
4111.14, 0.0458520
4114.41, 0.0457970
4117.67, 0.0458520
4120.95, 0.0459060
4124.23, 0.0457970
4127.51, 0.0457970
4130.8, 0.0458520
4134.09, 0.0458520
4137.39, 0.0457970
4140.7, 0.0457970
4144.01, 0.0458520
4147.32, 0.0458520
4150.64, 0.0459060
4153.97, 0.0458520
4157.3, 0.0458520
4160.64, 0.0458520
4163.98, 0.0457970
4167.33, 0.0457970
4170.68, 0.0457970
4174.04, 0.0458520
4177.4, 0.0459060
4180.77, 0.0459060
4184.14, 0.0457970
4187.52, 0.0458520
4190.91, 0.0459060
4194.3, 0.0459060
4197.69, 0.0457430
4201.1, 0.0457430
4204.5, 0.0457430
4207.92, 0.0457970
4211.34, 0.0457430
4214.76, 0.0456340
4218.19, 0.0455790
4221.62, 0.0454700
4225.06, 0.0453070
4228.51, 0.0453070
4231.96, 0.0452520
4235.42, 0.0452520
4238.88, 0.0451980
4242.35, 0.0451980
4245.83, 0.0451980
4249.31, 0.0454160
4252.79, 0.0456340
4256.28, 0.0455790
4259.78, 0.0454160
4263.29, 0.0452520
4266.79, 0.0451980
4270.31, 0.0451980
4273.83, 0.0452520
4277.35, 0.0451980
4280.89, 0.0451980
4284.42, 0.0451980
4287.97, 0.0452520
4291.52, 0.0451430
4295.07, 0.0451430
4298.63, 0.0451980
4302.2, 0.0453070
4305.78, 0.0454700
4309.35, 0.0455790
4312.94, 0.0456340
4316.53, 0.0457430
4320.13, 0.0456880
4323.73, 0.0456880
4327.34, 0.0456340
4330.96, 0.0456340
4334.58, 0.0455790
4338.21, 0.0455790
4341.84, 0.0456340
4345.48, 0.0456880
4349.12, 0.0456340
4352.77, 0.0456340
4356.43, 0.0456880
4360.1, 0.0456340
4363.76, 0.0455790
4367.44, 0.0456340
4371.12, 0.0456880
4374.81, 0.0457430
4378.51, 0.0456880
4382.21, 0.0456340
4385.92, 0.0456340
4389.63, 0.0456340
4393.35, 0.0456340
4397.08, 0.0456340
4400.81, 0.0456340
4404.55, 0.0456340
4408.29, 0.0456880
4412.04, 0.0457430
4415.8, 0.0456880
4419.57, 0.0456340
4423.34, 0.0456340
4427.12, 0.0456340
4430.9, 0.0456880
4434.69, 0.0456880
4438.49, 0.0456880
4442.29, 0.0456340
4446.1, 0.0455790
4449.92, 0.0456340
4453.74, 0.0456340
4457.57, 0.0456340
4461.41, 0.0455790
4465.25, 0.0455250
4469.1, 0.0455250
4472.95, 0.0455790
4476.82, 0.0456340
4480.69, 0.0455790
4484.56, 0.0456340
4488.44, 0.0456880
4492.33, 0.0456340
4496.23, 0.0456340
4500.13, 0.0456880
4504.04, 0.0456880
4507.96, 0.0455790
4511.88, 0.0455790
4515.81, 0.0455790
4519.75, 0.0455790
4523.69, 0.0456340
4527.65, 0.0456880
4531.6, 0.0455790
4535.57, 0.0456340
4539.54, 0.0456880
4543.52, 0.0456880
4547.5, 0.0456880
4551.5, 0.0456340
4555.5, 0.0455790
4559.5, 0.0456340
4563.52, 0.0456880
4567.54, 0.0456340
4571.56, 0.0456340
4575.6, 0.0457430
4579.64, 0.0457430
4583.69, 0.0456880
4587.75, 0.0457430
4591.81, 0.0458520
4595.88, 0.0457430
4599.96, 0.0456340
4604.04, 0.0456340
4608.14, 0.0456880
4612.24, 0.0456880
4616.34, 0.0456340
4620.46, 0.0455790
4624.58, 0.0456340
4628.71, 0.0456880
4632.84, 0.0456340
4636.99, 0.0455790
4641.14, 0.0455250
4645.3, 0.0454160
4649.47, 0.0454160
4653.64, 0.0454160
4657.82, 0.0454700
4662.01, 0.0454160
4666.21, 0.0453070
4670.41, 0.0452520
4674.62, 0.0453070
4678.84, 0.0453610
4683.07, 0.0454160
4687.3, 0.0454160
4691.54, 0.0454160
4695.79, 0.0453610
4700.05, 0.0453610
4704.31, 0.0453610
4708.59, 0.0454700
4712.87, 0.0454700
4717.15, 0.0454700
4721.45, 0.0453610
4725.76, 0.0453610
4730.07, 0.0453610
4734.39, 0.0454160
4738.72, 0.0454160
4743.05, 0.0453610
4747.39, 0.0453070
4751.75, 0.0453070
4756.1, 0.0453070
4760.47, 0.0452520
4764.85, 0.0451980
4769.23, 0.0451430
4773.62, 0.0451980
4778.02, 0.0451980
4782.43, 0.0451980
4786.85, 0.0451430
4791.27, 0.0451430
4795.7, 0.0450880
4800.14, 0.0450340
4804.59, 0.0450340
4809.05, 0.0451430
4813.51, 0.0450880
4817.99, 0.0450340
4822.47, 0.0450340
4826.96, 0.0450340
4831.46, 0.0449790
4835.96, 0.0450340
4840.48, 0.0449790
4845.0, 0.0449790
4849.54, 0.0449790
4854.08, 0.0449790
4858.63, 0.0450340
4863.18, 0.0449790
4867.75, 0.0449250
4872.33, 0.0448160
4876.91, 0.0448700
4881.5, 0.0449250
4886.1, 0.0448700
4890.71, 0.0448700
4895.33, 0.0448700
4899.96, 0.0448700
4904.59, 0.0448700
4909.24, 0.0448160
4913.89, 0.0448160
4918.55, 0.0448160
4923.22, 0.0447610
4927.9, 0.0447610
4932.59, 0.0447610
4937.29, 0.0448160
4942.0, 0.0448160
4946.71, 0.0448160
4951.44, 0.0447610
4956.17, 0.0447070
4960.91, 0.0446520
4965.67, 0.0447070
4970.43, 0.0446520
4975.2, 0.0446520
4979.98, 0.0445980
4984.76, 0.0445980
4989.56, 0.0446520
4994.37, 0.0446520
4999.18, 0.0445980
5004.01, 0.0445980
5008.84, 0.0446520
5013.69, 0.0445980
5018.54, 0.0444890
5023.4, 0.0444890
5028.28, 0.0445430
5033.16, 0.0446520
5038.05, 0.0447070
5042.95, 0.0446520
5047.86, 0.0446520
5052.78, 0.0445980
5057.71, 0.0445980
5062.65, 0.0446520
5067.6, 0.0447070
5072.56, 0.0446520
5077.53, 0.0445430
5082.5, 0.0444890
5087.49, 0.0445430
5092.49, 0.0445980
5097.5, 0.0445430
5102.51, 0.0445430
5107.54, 0.0445430
5112.58, 0.0445980
5117.62, 0.0445980
5122.68, 0.0445430
5127.75, 0.0445980
5132.82, 0.0445430
5137.91, 0.0445430
5143.01, 0.0444340
5148.12, 0.0443800
5153.23, 0.0444890
5158.36, 0.0444890
5163.5, 0.0444890
5168.65, 0.0445430
5173.81, 0.0444890
5178.98, 0.0444890
5184.15, 0.0444890
5189.34, 0.0444340
5194.54, 0.0443800
5199.75, 0.0443250
5204.98, 0.0443800
5210.21, 0.0441620
5215.45, 0.0441070
5220.7, 0.0443250
5225.96, 0.0443250
5231.23, 0.0442710
5236.52, 0.0442710
5241.81, 0.0442710
5247.12, 0.0442710
5252.44, 0.0442710
5257.76, 0.0443250
5263.1, 0.0442710
5268.45, 0.0442710
5273.81, 0.0442160
5279.18, 0.0442160
5284.56, 0.0442160
5289.95, 0.0439980
5295.36, 0.0440530
5300.77, 0.0442160
5306.2, 0.0442160
5311.63, 0.0442160
5317.08, 0.0442160
5322.54, 0.0442710
5328.01, 0.0442160
5333.49, 0.0441070
5338.98, 0.0441070
5344.49, 0.0438890
5350.0, 0.0436160
5355.53, 0.0437800
5361.07, 0.0439980
5366.62, 0.0441070
5372.18, 0.0439980
5377.75, 0.0439980
5383.34, 0.0440530
5388.93, 0.0441070
5394.54, 0.0440530
5400.16, 0.0440530
5405.79, 0.0441070
5411.44, 0.0439980
5417.09, 0.0435070
5422.76, 0.0431800
5428.43, 0.0436710
5434.12, 0.0439440
5439.83, 0.0438890
5445.54, 0.0438350
5451.26, 0.0437800
5457.0, 0.0435620
5462.75, 0.0432350
5468.52, 0.0432890
5474.29, 0.0433980
5480.08, 0.0433440
5485.88, 0.0436710
5491.69, 0.0437800
5497.51, 0.0437800
5503.35, 0.0436710
5509.2, 0.0437250
5515.06, 0.0436710
5520.93, 0.0436160
5526.82, 0.0435620
5532.71, 0.0436710
5538.63, 0.0436710
5544.55, 0.0435620
5550.49, 0.0433440
5556.44, 0.0432890
5562.4, 0.0434530
5568.37, 0.0433980
5574.36, 0.0428530
5580.36, 0.0426350
5586.37, 0.0432350
5592.4, 0.0435620
5598.44, 0.0433980
5604.49, 0.0433980
5610.56, 0.0433980
5616.63, 0.0433440
5622.73, 0.0434530
5628.83, 0.0433440
5634.95, 0.0427440
5641.08, 0.0420350
5647.23, 0.0424710
5653.39, 0.0427440
5659.56, 0.0429620
5665.74, 0.0431800
5671.94, 0.0427990
5678.15, 0.0427990
5684.38, 0.0430710
5690.62, 0.0428530
5696.87, 0.0430170
5703.14, 0.0427440
5709.42, 0.0420900
5715.72, 0.0422530
5722.03, 0.0425810
5728.35, 0.0427440
5734.69, 0.0426900
5741.03, 0.0425260
5747.4, 0.0423620
5753.78, 0.0425810
5760.17, 0.0417630
5766.58, 0.0407810
5773.0, 0.0417630
5779.44, 0.0424710
5785.88, 0.0426350
5792.35, 0.0426900
5798.83, 0.0425810
5805.32, 0.0425810
5811.83, 0.0421990
5818.35, 0.0409450
5824.89, 0.0406720
5831.45, 0.0414360
5838.01, 0.0419810
5844.59, 0.0421440
5851.19, 0.0419260
5857.8, 0.0415450
5864.43, 0.0412180
5871.07, 0.0411080
5877.73, 0.0396360
5884.4, 0.0396910
5891.09, 0.0401820
5897.79, 0.0400180
5904.5, 0.0411080
5911.23, 0.0413270
5917.98, 0.0411080
5924.75, 0.0408900
5931.53, 0.0395270
5938.32, 0.0389280
5945.13, 0.0402360
5951.96, 0.0406180
5958.8, 0.0405090
5965.65, 0.0397450
5972.53, 0.0396910
5979.42, 0.0399090
5986.32, 0.0394180
5993.24, 0.0394730
6000.18, 0.0400730
6007.13, 0.0398000
6014.1, 0.0393640
6021.08, 0.0396360
6028.09, 0.0398550
6035.1, 0.0394730
6042.14, 0.0377280
6049.19, 0.0363650
6056.25, 0.0380550
6063.34, 0.0387640
6070.44, 0.0380010
6077.55, 0.0382730
6084.69, 0.0390370
6091.84, 0.0392000
6099.0, 0.0390910
6106.19, 0.0382730
6113.39, 0.0375100
6120.61, 0.0383820
6127.84, 0.0390910
6135.09, 0.0390370
6142.36, 0.0389820
6149.65, 0.0390370
6156.95, 0.0387640
6164.27, 0.0389280
6171.61, 0.0393640
6178.97, 0.0387100
6186.34, 0.0383280
6193.73, 0.0393090
6201.14, 0.0397450
6208.57, 0.0398000
6216.01, 0.0399090
6223.47, 0.0400730
6230.95, 0.0401820
6238.45, 0.0402360
6245.97, 0.0402360
6253.5, 0.0401820
6261.06, 0.0402360
6268.63, 0.0402910
6276.21, 0.0403450
6283.82, 0.0404000
6291.45, 0.0402910
6299.1, 0.0404000
6306.76, 0.0406180
6314.44, 0.0406720
6322.14, 0.0406180
6329.86, 0.0405090
6337.6, 0.0396360
6345.35, 0.0390370
6353.13, 0.0400730
6360.92, 0.0402360
6368.74, 0.0396360
6376.57, 0.0399640
6384.43, 0.0402910
6392.3, 0.0402910
6400.19, 0.0398550
6408.1, 0.0378370
6416.03, 0.0372380
6423.98, 0.0388730
6431.95, 0.0395270
6439.94, 0.0399640
6447.95, 0.0400730
6455.98, 0.0400180
6464.03, 0.0399090
6472.1, 0.0393090
6480.19, 0.0386550
6488.31, 0.0376740
6496.44, 0.0377830
6504.59, 0.0392000
6512.76, 0.0395820
6520.95, 0.0392000
6529.16, 0.0396910
6537.4, 0.0398000
6545.65, 0.0395270
6553.92, 0.0392550
6562.22, 0.0389280
6570.54, 0.0381640
6578.88, 0.0386010
6587.23, 0.0389820
6595.61, 0.0391460
6604.02, 0.0395270
6612.44, 0.0394180
6620.89, 0.0391460
6629.35, 0.0380010
6637.84, 0.0372380
6646.35, 0.0386550
6654.88, 0.0397450
6663.44, 0.0395270
6672.01, 0.0389280
6680.61, 0.0386010
6689.23, 0.0391460
6697.88, 0.0394730
6706.54, 0.0388730
6715.23, 0.0387640
6723.94, 0.0390370
6732.67, 0.0393090
6741.42, 0.0394180
6750.2, 0.0393090
6759.0, 0.0393640
6767.82, 0.0390910
6776.67, 0.0385460
6785.54, 0.0378370
6794.44, 0.0380550
6803.35, 0.0389280
6812.29, 0.0390910
6821.26, 0.0386010
6830.24, 0.0385460
6839.25, 0.0389280
6848.29, 0.0385460
6857.35, 0.0372920
6866.43, 0.0370740
6875.54, 0.0382730
6884.67, 0.0388190
6893.82, 0.0388190
6903.0, 0.0384910
6912.2, 0.0385460
6921.43, 0.0388190
6930.69, 0.0388190
6939.96, 0.0387640
6949.27, 0.0383820
6958.59, 0.0376740
6967.95, 0.0381100
6977.33, 0.0385460
6986.73, 0.0384370
6996.16, 0.0383280
7005.61, 0.0384370
7015.09, 0.0382730
7024.6, 0.0381640
7034.13, 0.0378920
7043.69, 0.0371830
7053.27, 0.0372380
7062.88, 0.0377280
7072.52, 0.0378370
7082.18, 0.0377280
7091.87, 0.0376740
7101.58, 0.0376190
7111.32, 0.0372920
7121.09, 0.0370740
7130.88, 0.0370740
7140.71, 0.0366920
7150.56, 0.0363650
7160.43, 0.0362560
7170.33, 0.0360380
7180.27, 0.0361470
7190.23, 0.0360930
7200.21, 0.0357110
7210.23, 0.0352750
7220.27, 0.0353840
7230.34, 0.0353290
7240.44, 0.0351660
7250.56, 0.0349480
7260.72, 0.0348390
7270.9, 0.0345660
7281.12, 0.0344020
7291.36, 0.0344020
7301.63, 0.0343480
7311.93, 0.0343480
7322.25, 0.0343480
7332.61, 0.0341300
7343.0, 0.0342390
7353.41, 0.0345660
7363.86, 0.0346750
7374.33, 0.0346750
7384.83, 0.0346750
7395.37, 0.0347300
7405.93, 0.0347300
7416.53, 0.0347300
7427.15, 0.0347840
7437.81, 0.0347300
7448.5, 0.0346750
7459.22, 0.0346210
7469.96, 0.0345660
7480.74, 0.0347300
7491.55, 0.0348390
7502.39, 0.0348390
7513.27, 0.0348930
7524.17, 0.0349480
7535.11, 0.0350020
7546.08, 0.0350570
7557.08, 0.0350020
7568.11, 0.0349480
7579.17, 0.0348930
7590.27, 0.0348390
7601.4, 0.0348390
7612.56, 0.0348390
7623.76, 0.0346750
7634.98, 0.0345660
7646.24, 0.0345110
7657.54, 0.0345110
7668.87, 0.0344020
7680.23, 0.0342930
7691.62, 0.0342930
7703.05, 0.0342390
7714.51, 0.0341300
7726.01, 0.0340750
7737.54, 0.0340210
7749.11, 0.0340210
7760.71, 0.0339660
7772.35, 0.0339120
7784.02, 0.0338030
7795.72, 0.0338570
7807.46, 0.0339660
7819.23, 0.0339120
7831.04, 0.0338570
7842.89, 0.0338570
7854.77, 0.0338030
7866.69, 0.0336940
7878.65, 0.0335850
7890.64, 0.0334210
7902.67, 0.0333120
7914.74, 0.0333120
7926.84, 0.0333120
7938.98, 0.0332030
7951.16, 0.0330940
7963.37, 0.0330390
7975.62, 0.0329300
7987.91, 0.0328760
8000.24, 0.0328760
8012.6, 0.0328210
8025.01, 0.0327670
8037.45, 0.0327120
8049.93, 0.0326580
8062.45, 0.0324940
8075.01, 0.0324400
8087.61, 0.0323850
8100.24, 0.0322760
8112.91, 0.0321130
8125.63, 0.0319490
8138.39, 0.0318400
8151.18, 0.0315670
8164.02, 0.0314040
8176.9, 0.0312950
8189.81, 0.0311310
8202.77, 0.0310770
8215.77, 0.0309130
8228.82, 0.0308590
8241.9, 0.0308590
8255.02, 0.0309680
8268.19, 0.0310770
8281.39, 0.0311310
8294.65, 0.0311860
8307.94, 0.0312400
8321.28, 0.0312400
8334.66, 0.0312400
8348.08, 0.0312950
8361.54, 0.0312950
8375.05, 0.0312400
8388.6, 0.0311310
8402.2, 0.0311310
8415.84, 0.0310770
8429.52, 0.0310770
8443.25, 0.0309680
8457.02, 0.0308590
8470.84, 0.0309130
8484.7, 0.0309680
8498.61, 0.0307500
8512.57, 0.0304770
8526.57, 0.0304770
8540.62, 0.0304770
8554.71, 0.0304220
8568.85, 0.0302040
8583.04, 0.0300950
8597.27, 0.0300410
8611.55, 0.0299320
8625.88, 0.0297140
8640.26, 0.0296050
8654.68, 0.0295500
8669.16, 0.0293320
8683.68, 0.0290590
8698.25, 0.0288960
8712.87, 0.0287320
8727.53, 0.0286230
8742.25, 0.0285140
8757.02, 0.0283510
8771.83, 0.0281870
8786.7, 0.0279690
8801.62, 0.0277510
8816.59, 0.0276420
8831.61, 0.0275870
8846.68, 0.0275330
8861.8, 0.0273690
8876.97, 0.0272600
8892.2, 0.0270970
8907.48, 0.0269330
8922.81, 0.0265520
8938.2, 0.0263330
8953.63, 0.0260610
8969.13, 0.0256790
8984.67, 0.0252980
9000.27, 0.0250790
9015.92, 0.0249700
9031.63, 0.0249160
9047.39, 0.0248610
9063.21, 0.0247520
9079.08, 0.0248070
9095.01, 0.0248610
9111.0, 0.0246980
9127.04, 0.0246430
9143.13, 0.0247520
9159.28, 0.0248610
9175.49, 0.0248070
9191.76, 0.0247520
9208.09, 0.0248070
9224.47, 0.0247520
9240.92, 0.0246980
9257.42, 0.0248070
9273.98, 0.0247520
9290.6, 0.0247520
9307.28, 0.0246430
9324.02, 0.0246980
9340.82, 0.0245890
9357.68, 0.0244250
9374.6, 0.0243710
9391.58, 0.0244250
9408.62, 0.0244800
9425.73, 0.0246430
9442.9, 0.0247520
9460.13, 0.0249160
9477.42, 0.0249160
9494.78, 0.0249160
9512.2, 0.0248610
9529.69, 0.0248610
9547.24, 0.0249160
9564.86, 0.0249160
9582.54, 0.0249160
9600.28, 0.0246980
9618.1, 0.0245890
9635.97, 0.0245340
9653.92, 0.0245340
9671.93, 0.0243160
9690.01, 0.0239350
9708.16, 0.0234440
9726.37, 0.0228990
9744.65, 0.0224620
9763.0, 0.0220810
9781.43, 0.0219170
9799.92, 0.0218080
9818.48, 0.0216990
9837.1, 0.0218080
9855.8, 0.0218630
9874.58, 0.0218630
9893.42, 0.0218630
9912.34, 0.0219720
9931.33, 0.0218630
9950.39, 0.0215360
9969.52, 0.0213720
9988.74, 0.0212080
10008.0, 0.0209360
10027.4, 0.0207180
10046.8, 0.0206630
10066.3, 0.0205540
10085.9, 0.0202820
10105.6, 0.0201180
10125.3, 0.0201180
10145.1, 0.0198450
10165.0, 0.0196270
10185.0, 0.0194640
10205.0, 0.0191370
10225.2, 0.0189730
10245.4, 0.0188640
10265.7, 0.0185370
10286.0, 0.0182100
10306.5, 0.0181550
10327.0, 0.0180460
10347.6, 0.0178830
10368.3, 0.0178280
10389.1, 0.0176650
10409.9, 0.0174470
10430.9, 0.0171740
10451.9, 0.0171740
10473.0, 0.0171740
10494.2, 0.0169560
10515.5, 0.0167380
10536.9, 0.0166290
10558.4, 0.0166290
10579.9, 0.0166830
10601.5, 0.0165740
10623.3, 0.0166290
10645.1, 0.0165740
10667.0, 0.0164110
10689.0, 0.0162470
10711.1, 0.0161380
10733.2, 0.0159750
10755.5, 0.0158110
10777.9, 0.0156470
10800.3, 0.0155380
10822.9, 0.0155930
10845.5, 0.0157020
10868.2, 0.0156470
10891.1, 0.0155930
10914.0, 0.0154290
10937.0, 0.0152660
10960.2, 0.0152110
10983.4, 0.0151570
11006.7, 0.0148840
11030.1, 0.0145570
11053.6, 0.0145570
11077.3, 0.0144480
11101.0, 0.0141750
11124.8, 0.0139570
11148.7, 0.0137940
11172.7, 0.0135210
11196.9, 0.0133030
11221.1, 0.0130850
11245.4, 0.0127030
11269.9, 0.0125400
11294.4, 0.0124310
11319.1, 0.0122130
11343.9, 0.0118850
11368.8, 0.0118310
11393.7, 0.0118310
11418.8, 0.0118310
11444.0, 0.0117220
11469.4, 0.0116130
11494.8, 0.0113950
11520.3, 0.0110130
11546.0, 0.0105770
11571.8, 0.0105770
11597.7, 0.0105220
11623.7, 0.0104680
11649.8, 0.0102500
11676.0, 0.00992300
11702.4, 0.00975900
11728.9, 0.00965000
11755.5, 0.00948700
11782.2, 0.00921400
11809.0, 0.00899600
11836.0, 0.00883200
11863.0, 0.00861400
11890.3, 0.00850500
11917.6, 0.00834200
11945.0, 0.00812400
11972.6, 0.00796000
12000.4, 0.00796000
12028.2, 0.00779600
12056.2, 0.00741500
12084.3, 0.00719700
12112.5, 0.00719700
12140.9, 0.00714200
12169.4, 0.00703300
12198.0, 0.00697900
12226.8, 0.00703300
12255.7, 0.00697900
12284.7, 0.00697900
12313.9, 0.00708800
12343.2, 0.00714200
12372.7, 0.00708800
12402.3, 0.00703300
12432.0, 0.00692400
12461.9, 0.00719700
12491.9, 0.00768700
12522.1, 0.00801500
12552.4, 0.00828700
12582.9, 0.00872300
12613.5, 0.00943200
12644.3, 0.0104130
12675.2, 0.0116130
12706.3, 0.0130300
12737.5, 0.0148300
12768.9, 0.0170100
12800.4, 0.0197360
12832.1, 0.0227900
12863.9, 0.0262240
12895.9, 0.0305320
12928.1, 0.0357110
12960.4, 0.0414360
12992.9, 0.0477050
13025.5, 0.0546300
13058.3, 0.0622080
13091.3, 0.0702770
13124.4, 0.0785100
13157.8, 0.0864150
13191.2, 0.0936660
13224.9, 0.100045
13258.7, 0.105443
13292.7, 0.109804
13326.9, 0.113130
13361.2, 0.115638
13395.7, 0.117601
13430.4, 0.119182
13465.3, 0.120545
13500.4, 0.121962
13535.7, 0.123162
13571.1, 0.123653
13606.7, 0.123653
13642.5, 0.123762
13678.5, 0.123816
13714.7, 0.123925
13751.1, 0.124198
13787.6, 0.124634
13824.4, 0.125179
13861.4, 0.125779
13898.5, 0.126924
13935.9, 0.128232
13973.5, 0.129650
14011.2, 0.131613
14049.2, 0.133848
14087.4, 0.136465
14125.8, 0.139354
14164.3, 0.142408
14203.2, 0.145788
14242.2, 0.149168
14281.4, 0.152112
14320.9, 0.154130
14360.5, 0.155983
14400.4, 0.158001
14440.5, 0.160072
14480.9, 0.162580
14521.4, 0.165633
14562.2, 0.168741
14603.3, 0.171522
14644.5, 0.173757
14686.0, 0.175665
14727.7, 0.177355
14769.7, 0.178882
14811.9, 0.180190
14854.3, 0.181771
14897.0, 0.183244
14939.9, 0.183789
14983.1, 0.184770
15026.5, 0.187224
15070.2, 0.188968
15114.2, 0.190440
15158.3, 0.192294
15202.8, 0.194202
15247.5, 0.195838
15292.5, 0.197637
15337.7, 0.199491
15383.2, 0.201399
15429.0, 0.203307
15475.1, 0.204997
15521.4, 0.206251
15568.0, 0.207669
15614.9, 0.209577
15662.1, 0.211540
15709.6, 0.212794
15757.3, 0.214157
15805.4, 0.216065
15853.7, 0.217973
15902.3, 0.220208
15951.2, 0.222444
16000.5, 0.224297
16050.0, 0.226478
16099.8, 0.228550
16150.0, 0.230404
16200.5, 0.231331
16251.3, 0.231549
16302.4, 0.230676
16353.8, 0.228168
16405.5, 0.224188
16457.6, 0.218300
16510.0, 0.211213
16562.8, 0.204616
16615.9, 0.198673
16669.3, 0.193493
16723.1, 0.189241
16777.2, 0.185424
16831.7, 0.181881
16886.5, 0.178827
16941.7, 0.176047
16997.2, 0.173648
17053.1, 0.171740
17109.4, 0.169668
17166.1, 0.167760
17223.1, 0.165688
17280.5, 0.163671
17338.3, 0.162090
17396.5, 0.160781
17455.1, 0.159254
17514.0, 0.157891
17573.4, 0.156528
17633.2, 0.154838
17693.4, 0.153366
17754.0, 0.152221
17815.0, 0.151185
17876.4, 0.149495
17938.3, 0.147914
18000.5, 0.146715
18063.3, 0.146006
18126.4, 0.144698
18190.0, 0.142844
18254.1, 0.141753
18318.6, 0.140772
18383.5, 0.139518
18449.0, 0.138428
18514.9, 0.137555
18581.2, 0.136628
18648.0, 0.134938
18715.4, 0.133739
18783.2, 0.132539
18851.5, 0.131776
18920.3, 0.130631
18989.6, 0.128505
19059.4, 0.127687
19129.7, 0.126869
19200.6, 0.125506
19272.0, 0.124416
19343.9, 0.122944
19416.3, 0.121744
19489.3, 0.120654
19562.8, 0.119236
19637.0, 0.118091
19711.6, 0.117219
19786.8, 0.116456
19862.6, 0.115529
19939.0, 0.113839
20016.0, 0.113076
20093.6, 0.112149
20171.8, 0.110786
20250.6, 0.109259
20330.0, 0.108332
20410.0, 0.107187
20490.7, 0.106097
20572.0, 0.105388
20654.0, 0.103644
20736.6, 0.102281
20819.9, 0.101081
20903.8, 0.0993360
20988.5, 0.0972650
21073.8, 0.0951930
21159.8, 0.0932850
21246.5, 0.0920310
21334.0, 0.0905040
21422.1, 0.0887590
21511.0, 0.0866880
21600.7, 0.0840710
21691.0, 0.0819990
21782.1, 0.0793820
21874.0, 0.0769830
21966.7, 0.0763290
22060.2, 0.0751840
22154.5, 0.0739840
22249.6, 0.0722400
22345.5, 0.0702220
22442.2, 0.0689680
22539.8, 0.0679870
22638.2, 0.0667880
22737.5, 0.0660240
22837.7, 0.0654250
22938.7, 0.0649340
23040.7, 0.0648790
23143.5, 0.0632440
23247.3, 0.0617720
23352.1, 0.0620440
23457.7, 0.0617170
23564.4, 0.0602450
23672.0, 0.0574710
23780.5, 0.0562410
23890.1, 0.0557390
24000.7, 0.0542810
24112.3, 0.0525260
24225.0, 0.0511590
24338.7, 0.0502020
24453.5, 0.0487210
24569.4, 0.0473080
24686.4, 0.0468070
24804.5, 0.0478550
24923.8, 0.0477410
25044.2, 0.0470120
25165.8, 0.0470800
25288.6, 0.0463740
25412.5, 0.0455080
25537.7, 0.0452110
25664.1, 0.0441860
25791.8, 0.0431830
25920.8, 0.0436160
26051.1, 0.0426590
26182.6, 0.0407680
26315.5, 0.0398330
26449.8, 0.0396970
26585.4, 0.0415430
26722.5, 0.0434790
26860.9, 0.0460550
27000.8, 0.0505890
27142.1, 0.0588390
27285.0, 0.0740150
27429.4, 0.0958920
27575.3, 0.119546
27722.7, 0.138095
27871.8, 0.150469
28022.4, 0.160268
28174.7, 0.168312
28328.7, 0.174830
28484.4, 0.180185
28641.7, 0.184013
28800.9, 0.186953
28961.8, 0.188662
29124.5, 0.189232
29289.0, 0.191943
29455.4, 0.194746
29623.8, 0.196888
29794.0, 0.200170
29966.3, 0.201332
30140.5, 0.203155
30316.7, 0.207781
30495.1, 0.212931
30675.5, 0.214048
30858.1, 0.216418
31042.8, 0.215985
31229.8, 0.214458
31419.1, 0.215278
31610.7, 0.216896
31804.6, 0.218423
32000.9, 0.216190
32199.7, 0.216600
32400.9, 0.215780
32604.8, 0.213410
32811.1, 0.215643
33020.1, 0.220747
33231.8, 0.216030
33446.2, 0.214230
33663.4, 0.215552
33883.4, 0.217056
34106.3, 0.216759
34332.1, 0.216623
34561.0, 0.214048
34792.9, 0.203747
35028.0, 0.186018
35266.3, 0.165805
35507.8, 0.144020
35752.7, 0.123716
36001.0, 0.100108
36252.8, 0.0773200
36508.1, 0.0721920
36767.0, 0.110043
37029.7, 0.163527
37296.1, 0.192171
37566.3, 0.205388
37840.5, 0.210014
38118.8, 0.212225
38401.2, 0.214572
38687.8, 0.215141
38978.6, 0.216281
39273.9, 0.221317
39573.7, 0.220816
39878.1, 0.217830
40187.3, 0.220337
40501.2, 0.221818
40820.0, 0.212840
41144.0, 0.193835
41473.2, 0.175923
41807.6, 0.165076
42147.5, 0.157989
42493.0, 0.153568
42844.2, 0.147780
43201.2, 0.143861
43564.3, 0.141263
43933.5, 0.140579
44309.0, 0.136865
44691.0, 0.133993
45079.6, 0.131601
45475.0, 0.127681
45877.5, 0.124240
46287.1, 0.123010
46704.2, 0.124354
47128.7, 0.121665
47561.1, 0.118817
48001.5, 0.114806
48450.1, 0.113712
48907.2, 0.117313
49373.0, 0.115125
49847.7, 0.110795
50331.5, 0.108289
50825.0, 0.105212
51328.2, 0.104187
51841.5, 0.105622
52365.1, 0.107172
52899.4, 0.105759
53444.8, 0.101953
54001.5, 0.100427
54570.1, 0.0993330
55150.6, 0.100222
55743.6, 0.102181
56349.5, 0.102113
56968.7, 0.100700
57601.7, 0.100244
58248.9, 0.101293
58910.9, 0.100290
59588.1, 0.0975100
60281.0, 0.0942510
60990.2, 0.0918360
61716.3, 0.0920180
62459.8, 0.0929520
63221.6, 0.0939320
64002.1, 0.0937040
64802.1, 0.0955960
65622.1, 0.0960740
66463.4, 0.0957100
67326.6, 0.0953220
68212.4, 0.0906730
69121.9, 0.0899440
70056.0, 0.0923830
71015.7, 0.0935900
72002.0, 0.0912430
73016.3, 0.0900810
74059.4, 0.0917440
75132.7, 0.0953220
76237.6, 0.0947980
77375.5, 0.0934990
78547.9, 0.0909700
79756.3, 0.0888050
81002.5, 0.0914940
82288.5, 0.0963250
83615.7, 0.0921090
84986.5, 0.0879390
86402.9, 0.0873690
87867.4, 0.0923140
89382.4, 0.0946840
90950.5, 0.0911290
92574.6, 0.0918360
94257.2, 0.0932030
96002.7, 0.0900350
97814.1, 0.0940920
99695.1, 0.103298
101650.0, 0.0934310
103683.0, 0.0850680
105799.0, 0.0917220
108003.0, 0.0967350
110301.0, 0.0958240
112699.0, 0.0954590
115204.0, 0.0903770
117822.0, 0.0856600
120562.0, 0.0889870
123433.0, 0.0914250
126443.0, 0.0948660
129604.0, 0.0959370
132926.0, 0.0921770
136424.0, 0.0973730
140111.0, 0.0989450
144003.0, 0.105941
148118.0, 0.111593
152474.0, 0.108083
157095.0, 0.0981480
162004.0, 0.0880070
167231.0, 0.0928160
172805.0, 0.0952540
178764.0, 0.0923140
185148.0, 0.100130
192005.0, 0.137070
199390.0, 0.182555
207366.0, 0.161749
216006.0, 0.0910380
