Database of Origin, USGS Spectral Database
Sample Description, See USGS database for additional info
Date Added,2016-08-10 05:27:14.148368

Data ID,USGS_psi02          
Sample ID, psilomelane_hs139.18507
Mineral Name, psilomelane
Material Class,Hydroxide

Wavelength
1607.49, 0.0294790
1607.99, 0.0295990
1608.49, 0.0297180
1608.99, 0.0298980
1609.49, 0.0294190
1609.99, 0.0292400
1610.49, 0.0297180
1610.99, 0.0299570
1611.49, 0.0297780
1611.99, 0.0297180
1612.49, 0.0298980
1612.99, 0.0303160
1613.49, 0.0301970
1614.0, 0.0299570
1614.5, 0.0302560
1615.0, 0.0308540
1615.51, 0.0307350
1616.01, 0.0303160
1616.51, 0.0303160
1617.02, 0.0306150
1617.52, 0.0306750
1618.03, 0.0307350
1618.53, 0.0307940
1619.04, 0.0310340
1619.54, 0.0309140
1620.05, 0.0307940
1620.55, 0.0307350
1621.06, 0.0307350
1621.57, 0.0306750
1622.08, 0.0302560
1622.58, 0.0303760
1623.09, 0.0307940
1623.6, 0.0309140
1624.11, 0.0307940
1624.62, 0.0308540
1625.13, 0.0310930
1625.64, 0.0311530
1626.15, 0.0310930
1626.66, 0.0310930
1627.17, 0.0313330
1627.68, 0.0313920
1628.19, 0.0311530
1628.7, 0.0311530
1629.21, 0.0313920
1629.72, 0.0315120
1630.24, 0.0315120
1630.75, 0.0313920
1631.26, 0.0316910
1631.78, 0.0318710
1632.29, 0.0313330
1632.8, 0.0310930
1633.32, 0.0316320
1633.83, 0.0318710
1634.35, 0.0314520
1634.86, 0.0314520
1635.38, 0.0316910
1635.9, 0.0318110
1636.41, 0.0319310
1636.93, 0.0319900
1637.45, 0.0319310
1637.96, 0.0321100
1638.48, 0.0324090
1639.0, 0.0321700
1639.52, 0.0322300
1640.04, 0.0322890
1640.56, 0.0321100
1641.08, 0.0317510
1641.59, 0.0319900
1642.11, 0.0324690
1642.63, 0.0320500
1643.16, 0.0318710
1643.68, 0.0319900
1644.2, 0.0321100
1644.72, 0.0325290
1645.24, 0.0328280
1645.76, 0.0323490
1646.29, 0.0318110
1646.81, 0.0316320
1647.33, 0.0320500
1647.86, 0.0325880
1648.38, 0.0328870
1648.9, 0.0330670
1649.43, 0.0325290
1649.95, 0.0325880
1650.48, 0.0329470
1651.0, 0.0332460
1651.53, 0.0335450
1652.06, 0.0335450
1652.58, 0.0331270
1653.11, 0.0325880
1653.64, 0.0322300
1654.17, 0.0323490
1654.69, 0.0331270
1655.22, 0.0332460
1655.75, 0.0330070
1656.28, 0.0330070
1656.81, 0.0325880
1657.34, 0.0328280
1657.87, 0.0330070
1658.4, 0.0327680
1658.93, 0.0327080
1659.46, 0.0326480
1659.99, 0.0326480
1660.52, 0.0327680
1661.05, 0.0327680
1661.59, 0.0327080
1662.12, 0.0330070
1662.65, 0.0332460
1663.19, 0.0332460
1663.72, 0.0333060
1664.26, 0.0334850
1664.79, 0.0337240
1665.32, 0.0339040
1665.86, 0.0336050
1666.39, 0.0334850
1666.93, 0.0334850
1667.47, 0.0332460
1668.0, 0.0330670
1668.54, 0.0333060
1669.08, 0.0331860
1669.61, 0.0336050
1670.15, 0.0342630
1670.69, 0.0344420
1671.23, 0.0342630
1671.77, 0.0343820
1672.31, 0.0343220
1672.85, 0.0338440
1673.39, 0.0336650
1673.93, 0.0340230
1674.47, 0.0340230
1675.01, 0.0340830
1675.55, 0.0342030
1676.09, 0.0341430
1676.64, 0.0345020
1677.18, 0.0350400
1677.72, 0.0346810
1678.26, 0.0341430
1678.81, 0.0344420
1679.35, 0.0346210
1679.89, 0.0339640
1680.44, 0.0340230
1680.98, 0.0348010
1681.53, 0.0346810
1682.07, 0.0342630
1682.62, 0.0342030
1683.17, 0.0340230
1683.71, 0.0341430
1684.26, 0.0342630
1684.81, 0.0346810
1685.36, 0.0345620
1685.9, 0.0343820
1686.45, 0.0348010
1687.0, 0.0346210
1687.55, 0.0347410
1688.1, 0.0349800
1688.65, 0.0348010
1689.2, 0.0349200
1689.75, 0.0350400
1690.3, 0.0348610
1690.85, 0.0349200
1691.41, 0.0350400
1691.96, 0.0345620
1692.51, 0.0346810
1693.06, 0.0349200
1693.61, 0.0348610
1694.17, 0.0346210
1694.72, 0.0348010
1695.28, 0.0351000
1695.83, 0.0351600
1696.39, 0.0351600
1696.94, 0.0352190
1697.5, 0.0353990
1698.05, 0.0353990
1698.61, 0.0348010
1699.17, 0.0341430
1699.72, 0.0347410
1700.28, 0.0354590
1700.84, 0.0351000
1701.4, 0.0349200
1701.95, 0.0352190
1702.51, 0.0356380
1703.07, 0.0359370
1703.63, 0.0356380
1704.19, 0.0353990
1704.75, 0.0356380
1705.31, 0.0355180
1705.88, 0.0351600
1706.44, 0.0355180
1707.0, 0.0359970
1707.56, 0.0356980
1708.12, 0.0353390
1708.69, 0.0352790
1709.25, 0.0358170
1709.81, 0.0359370
1710.38, 0.0359370
1710.94, 0.0359370
1711.51, 0.0357570
1712.07, 0.0356380
1712.64, 0.0356980
1713.2, 0.0359370
1713.77, 0.0358770
1714.34, 0.0356980
1714.9, 0.0357570
1715.47, 0.0358770
1716.04, 0.0360560
1716.61, 0.0362360
1717.18, 0.0362360
1717.74, 0.0363550
1718.31, 0.0362960
1718.88, 0.0362360
1719.45, 0.0363550
1720.02, 0.0359970
1720.59, 0.0359970
1721.17, 0.0360560
1721.74, 0.0360560
1722.31, 0.0362960
1722.88, 0.0366540
1723.45, 0.0369530
1724.03, 0.0370730
1724.6, 0.0368340
1725.18, 0.0364150
1725.75, 0.0364150
1726.33, 0.0365350
1726.9, 0.0364150
1727.48, 0.0365950
1728.05, 0.0366540
1728.63, 0.0367740
1729.2, 0.0365350
1729.78, 0.0360560
1730.36, 0.0362960
1730.94, 0.0362960
1731.51, 0.0364150
1732.09, 0.0367740
1732.67, 0.0367140
1733.25, 0.0366540
1733.83, 0.0365350
1734.41, 0.0367140
1734.99, 0.0370130
1735.57, 0.0369530
1736.15, 0.0367140
1736.73, 0.0365950
1737.32, 0.0364750
1737.9, 0.0365950
1738.48, 0.0369530
1739.07, 0.0371930
1739.65, 0.0373120
1740.23, 0.0375510
1740.82, 0.0374320
1741.4, 0.0374320
1741.99, 0.0370730
1742.57, 0.0367740
1743.16, 0.0369530
1743.74, 0.0374320
1744.33, 0.0374920
1744.92, 0.0374920
1745.51, 0.0373720
1746.09, 0.0371330
1746.68, 0.0372520
1747.27, 0.0374320
1747.86, 0.0371930
1748.45, 0.0374920
1749.04, 0.0377910
1749.63, 0.0377910
1750.22, 0.0375510
1750.81, 0.0374920
1751.4, 0.0378500
1751.99, 0.0376710
1752.59, 0.0375510
1753.18, 0.0377910
1753.77, 0.0377310
1754.37, 0.0375510
1754.96, 0.0374920
1755.56, 0.0377910
1756.15, 0.0377910
1756.74, 0.0377310
1757.34, 0.0373720
1757.94, 0.0374320
1758.53, 0.0374920
1759.13, 0.0375510
1759.73, 0.0374920
1760.32, 0.0379700
1760.92, 0.0380300
1761.52, 0.0376710
1762.12, 0.0377310
1762.72, 0.0380890
1763.32, 0.0381490
1763.92, 0.0380890
1764.52, 0.0380300
1765.12, 0.0378500
1765.72, 0.0381490
1766.32, 0.0385080
1766.92, 0.0383880
1767.53, 0.0380890
1768.13, 0.0379700
1768.73, 0.0381490
1769.34, 0.0380890
1769.94, 0.0380300
1770.55, 0.0382090
1771.15, 0.0385080
1771.76, 0.0380890
1772.36, 0.0380300
1772.97, 0.0376710
1773.57, 0.0377310
1774.18, 0.0382690
1774.79, 0.0386870
1775.4, 0.0385680
1776.0, 0.0382690
1776.61, 0.0382090
1777.22, 0.0382690
1777.83, 0.0385080
1778.44, 0.0383290
1779.05, 0.0377910
1779.66, 0.0377910
1780.27, 0.0382690
1780.88, 0.0387470
1781.5, 0.0386870
1782.11, 0.0386280
1782.72, 0.0388670
1783.33, 0.0391660
1783.95, 0.0391060
1784.56, 0.0388070
1785.18, 0.0388070
1785.79, 0.0388070
1786.41, 0.0385680
1787.02, 0.0386870
1787.64, 0.0387470
1788.26, 0.0389270
1788.87, 0.0392260
1789.49, 0.0391660
1790.11, 0.0389860
1790.73, 0.0392260
1791.35, 0.0393450
1791.96, 0.0390460
1792.58, 0.0391060
1793.21, 0.0391660
1793.83, 0.0390460
1794.45, 0.0389270
1795.07, 0.0389270
1795.69, 0.0390460
1796.31, 0.0389270
1796.93, 0.0388070
1797.56, 0.0388070
1798.18, 0.0391060
1798.8, 0.0394650
1799.43, 0.0393450
1800.05, 0.0389270
1800.68, 0.0389860
1801.3, 0.0390460
1801.93, 0.0391660
1802.56, 0.0393450
1803.18, 0.0395840
1803.81, 0.0394650
1804.44, 0.0394050
1805.07, 0.0397040
1805.7, 0.0398830
1806.33, 0.0395250
1806.95, 0.0391660
1807.58, 0.0392850
1808.22, 0.0396440
1808.85, 0.0396440
1809.48, 0.0397040
1810.11, 0.0397040
1810.74, 0.0395250
1811.38, 0.0396440
1812.01, 0.0399430
1812.64, 0.0398240
1813.28, 0.0398240
1813.91, 0.0397640
1814.55, 0.0397640
1815.18, 0.0400030
1815.82, 0.0401820
1816.45, 0.0402420
1817.09, 0.0400630
1817.73, 0.0400630
1818.36, 0.0402420
1819.0, 0.0401230
1819.64, 0.0401230
1820.28, 0.0401820
1820.92, 0.0401230
1821.56, 0.0403020
1822.2, 0.0406010
1822.84, 0.0405410
1823.48, 0.0401820
1824.12, 0.0401230
1824.76, 0.0402420
1825.41, 0.0401230
1826.05, 0.0400030
1826.69, 0.0403020
1827.34, 0.0405410
1827.98, 0.0404220
1828.63, 0.0404810
1829.27, 0.0407200
1829.92, 0.0408400
1830.56, 0.0406010
1831.21, 0.0404810
1831.86, 0.0404220
1832.5, 0.0404220
1833.15, 0.0404810
1833.8, 0.0406010
1834.45, 0.0404810
1835.1, 0.0403620
1835.75, 0.0406010
1836.4, 0.0410190
1837.05, 0.0408400
1837.7, 0.0407200
1838.35, 0.0406010
1839.01, 0.0406010
1839.66, 0.0409000
1840.31, 0.0411390
1840.96, 0.0411390
1841.62, 0.0410190
1842.27, 0.0410190
1842.93, 0.0409000
1843.58, 0.0410190
1844.24, 0.0411390
1844.9, 0.0408400
1845.55, 0.0406610
1846.21, 0.0407200
1846.87, 0.0407800
1847.53, 0.0409000
1848.18, 0.0411990
1848.84, 0.0413180
1849.5, 0.0409600
1850.16, 0.0409000
1850.82, 0.0410190
1851.48, 0.0409000
1852.14, 0.0410190
1852.81, 0.0414380
1853.47, 0.0417970
1854.13, 0.0416170
1854.8, 0.0411390
1855.46, 0.0412590
1856.12, 0.0416170
1856.79, 0.0415580
1857.45, 0.0411390
1858.12, 0.0413180
1858.79, 0.0416170
1859.45, 0.0414380
1860.12, 0.0411990
1860.79, 0.0411990
1861.46, 0.0414380
1862.12, 0.0416770
1862.79, 0.0416770
1863.46, 0.0416770
1864.13, 0.0416170
1864.8, 0.0414980
1865.48, 0.0414980
1866.15, 0.0415580
1866.82, 0.0414980
1867.49, 0.0414380
1868.16, 0.0417370
1868.84, 0.0418570
1869.51, 0.0417370
1870.19, 0.0416770
1870.86, 0.0417370
1871.54, 0.0417970
1872.21, 0.0414980
1872.89, 0.0415580
1873.56, 0.0419160
1874.24, 0.0420360
1874.92, 0.0422150
1875.6, 0.0422150
1876.28, 0.0419760
1876.96, 0.0419760
1877.64, 0.0422750
1878.32, 0.0423350
1879.0, 0.0423350
1879.68, 0.0422750
1880.36, 0.0420360
1881.04, 0.0416770
1881.73, 0.0414380
1882.41, 0.0417370
1883.09, 0.0419160
1883.78, 0.0420960
1884.46, 0.0422750
1885.15, 0.0421560
1885.83, 0.0421560
1886.52, 0.0421560
1887.21, 0.0422750
1887.89, 0.0423350
1888.58, 0.0423950
1889.27, 0.0425740
1889.96, 0.0429930
1890.65, 0.0428730
1891.34, 0.0426940
1892.03, 0.0425740
1892.72, 0.0424550
1893.41, 0.0423350
1894.1, 0.0425140
1894.79, 0.0428130
1895.49, 0.0424550
1896.18, 0.0423950
1896.87, 0.0425740
1897.57, 0.0425740
1898.26, 0.0426940
1898.96, 0.0428130
1899.65, 0.0426340
1900.35, 0.0426340
1901.05, 0.0428130
1901.74, 0.0429930
1902.44, 0.0429330
1903.14, 0.0429930
1903.84, 0.0427540
1904.54, 0.0425740
1905.24, 0.0428130
1905.94, 0.0432320
1906.64, 0.0431720
1907.34, 0.0432320
1908.04, 0.0432920
1908.75, 0.0431720
1909.45, 0.0429930
1910.15, 0.0428730
1910.86, 0.0429330
1911.56, 0.0429330
1912.27, 0.0428730
1912.97, 0.0429330
1913.68, 0.0431720
1914.39, 0.0432320
1915.09, 0.0431720
1915.8, 0.0430520
1916.51, 0.0430520
1917.22, 0.0432920
1917.93, 0.0433510
1918.64, 0.0433510
1919.35, 0.0435310
1920.06, 0.0436500
1920.77, 0.0436500
1921.48, 0.0432320
1922.19, 0.0429330
1922.91, 0.0433510
1923.62, 0.0435310
1924.33, 0.0435910
1925.05, 0.0438900
1925.76, 0.0438300
1926.48, 0.0435310
1927.19, 0.0433510
1927.91, 0.0432920
1928.63, 0.0433510
1929.35, 0.0434110
1930.07, 0.0433510
1930.78, 0.0434110
1931.5, 0.0435310
1932.22, 0.0435310
1932.94, 0.0434710
1933.66, 0.0434710
1934.39, 0.0436500
1935.11, 0.0434710
1935.83, 0.0435910
1936.55, 0.0437700
1937.28, 0.0438900
1938.0, 0.0436500
1938.73, 0.0437700
1939.45, 0.0440090
1940.18, 0.0439490
1940.9, 0.0439490
1941.63, 0.0439490
1942.36, 0.0439490
1943.09, 0.0441290
1943.81, 0.0441290
1944.54, 0.0439490
1945.27, 0.0438900
1946.0, 0.0438300
1946.73, 0.0438300
1947.47, 0.0438300
1948.2, 0.0440090
1948.93, 0.0440090
1949.66, 0.0440090
1950.4, 0.0440690
1951.13, 0.0441290
1951.86, 0.0440090
1952.6, 0.0437700
1953.34, 0.0437700
1954.07, 0.0441890
1954.81, 0.0442480
1955.55, 0.0441890
1956.29, 0.0444280
1957.02, 0.0441890
1957.76, 0.0440690
1958.5, 0.0443680
1959.24, 0.0446670
1959.98, 0.0447270
1960.72, 0.0443080
1961.47, 0.0440090
1962.21, 0.0438300
1962.95, 0.0438900
1963.7, 0.0442480
1964.44, 0.0446070
1965.18, 0.0447870
1965.93, 0.0445470
1966.67, 0.0444880
1967.42, 0.0447270
1968.17, 0.0447270
1968.92, 0.0443680
1969.66, 0.0442480
1970.41, 0.0446070
1971.16, 0.0445470
1971.91, 0.0444880
1972.66, 0.0446070
1973.41, 0.0449060
1974.16, 0.0450260
1974.92, 0.0446670
1975.67, 0.0447870
1976.42, 0.0450260
1977.18, 0.0451450
1977.93, 0.0451450
1978.69, 0.0450860
1979.44, 0.0449060
1980.2, 0.0446670
1980.95, 0.0448460
1981.71, 0.0450860
1982.47, 0.0450860
1983.23, 0.0451450
1983.99, 0.0452050
1984.74, 0.0449060
1985.51, 0.0450860
1986.27, 0.0453250
1987.03, 0.0454440
1987.79, 0.0454440
1988.55, 0.0453250
1989.32, 0.0453850
1990.08, 0.0455040
1990.84, 0.0455040
1991.61, 0.0453850
1992.37, 0.0453250
1993.14, 0.0454440
1993.9, 0.0458030
1994.67, 0.0458030
1995.44, 0.0458030
1996.21, 0.0458630
1996.98, 0.0457430
1997.75, 0.0455640
1998.52, 0.0453250
1999.29, 0.0453250
2000.06, 0.0454440
2000.83, 0.0455040
2001.6, 0.0456240
2002.38, 0.0458030
2003.15, 0.0459230
2003.93, 0.0458030
2004.7, 0.0456830
2005.48, 0.0455640
2006.25, 0.0455640
2007.03, 0.0457430
2007.81, 0.0458630
2008.58, 0.0458630
2009.36, 0.0458630
2010.14, 0.0460420
2010.92, 0.0461620
2011.7, 0.0461620
2012.48, 0.0459820
2013.26, 0.0456830
2014.05, 0.0456240
2014.83, 0.0458030
2015.61, 0.0459230
2016.4, 0.0459820
2017.18, 0.0459820
2017.97, 0.0461620
2018.75, 0.0461620
2019.54, 0.0460420
2020.32, 0.0460420
2021.11, 0.0462810
2021.9, 0.0462810
2022.69, 0.0459820
2023.48, 0.0460420
2024.27, 0.0464010
2025.06, 0.0468200
2025.85, 0.0465800
2026.64, 0.0462810
2027.44, 0.0461620
2028.23, 0.0460420
2029.02, 0.0459820
2029.82, 0.0462220
2030.61, 0.0464010
2031.41, 0.0464010
2032.2, 0.0465210
2033.0, 0.0466400
2033.8, 0.0464010
2034.6, 0.0464610
2035.4, 0.0465210
2036.2, 0.0461620
2037.0, 0.0462220
2037.8, 0.0462810
2038.6, 0.0464610
2039.4, 0.0468200
2040.2, 0.0468200
2041.01, 0.0467600
2041.81, 0.0468200
2042.61, 0.0468200
2043.42, 0.0469390
2044.22, 0.0469990
2045.03, 0.0467600
2045.84, 0.0466400
2046.65, 0.0467600
2047.46, 0.0468790
2048.26, 0.0469390
2049.07, 0.0469990
2049.88, 0.0471190
2050.69, 0.0471190
2051.51, 0.0470590
2052.32, 0.0470590
2053.13, 0.0469390
2053.94, 0.0469390
2054.76, 0.0471780
2055.57, 0.0474180
2056.39, 0.0472380
2057.2, 0.0469390
2058.02, 0.0468790
2058.84, 0.0471780
2059.66, 0.0472980
2060.48, 0.0472380
2061.29, 0.0473580
2062.11, 0.0472380
2062.94, 0.0471780
2063.76, 0.0472380
2064.58, 0.0469990
2065.4, 0.0469990
2066.22, 0.0470590
2067.05, 0.0475370
2067.87, 0.0473580
2068.7, 0.0471780
2069.52, 0.0472380
2070.35, 0.0474180
2071.18, 0.0475970
2072.0, 0.0475970
2072.83, 0.0475370
2073.66, 0.0475970
2074.49, 0.0474770
2075.32, 0.0474770
2076.15, 0.0475970
2076.98, 0.0475970
2077.82, 0.0475370
2078.65, 0.0478360
2079.48, 0.0481350
2080.32, 0.0480150
2081.15, 0.0478960
2081.99, 0.0476570
2082.83, 0.0475970
2083.66, 0.0478360
2084.5, 0.0481350
2085.34, 0.0481350
2086.18, 0.0477760
2087.02, 0.0478360
2087.86, 0.0480150
2088.7, 0.0479560
2089.54, 0.0478960
2090.39, 0.0477170
2091.23, 0.0478360
2092.07, 0.0482550
2092.92, 0.0483140
2093.76, 0.0482550
2094.61, 0.0483140
2095.45, 0.0481950
2096.3, 0.0480750
2097.15, 0.0482550
2098.0, 0.0483140
2098.85, 0.0482550
2099.7, 0.0483740
2100.55, 0.0483740
2101.4, 0.0483740
2102.25, 0.0482550
2103.1, 0.0482550
2103.96, 0.0484340
2104.81, 0.0486130
2105.67, 0.0484340
2106.52, 0.0481950
2107.38, 0.0483140
2108.24, 0.0484340
2109.09, 0.0482550
2109.95, 0.0483740
2110.81, 0.0485540
2111.67, 0.0486130
2112.53, 0.0486130
2113.39, 0.0485540
2114.25, 0.0486130
2115.12, 0.0484940
2115.98, 0.0485540
2116.84, 0.0489720
2117.71, 0.0489720
2118.58, 0.0489120
2119.44, 0.0489120
2120.31, 0.0487930
2121.18, 0.0488530
2122.04, 0.0490320
2122.91, 0.0491520
2123.78, 0.0487930
2124.65, 0.0486730
2125.52, 0.0490320
2126.4, 0.0492110
2127.27, 0.0491520
2128.14, 0.0490320
2129.02, 0.0490920
2129.89, 0.0490920
2130.77, 0.0490920
2131.64, 0.0489720
2132.52, 0.0487930
2133.4, 0.0489720
2134.27, 0.0492110
2135.15, 0.0492110
2136.03, 0.0492110
2136.91, 0.0492110
2137.79, 0.0491520
2138.68, 0.0492110
2139.56, 0.0494510
2140.44, 0.0493310
2141.33, 0.0491520
2142.21, 0.0491520
2143.1, 0.0491520
2143.99, 0.0491520
2144.87, 0.0493310
2145.76, 0.0496900
2146.65, 0.0496300
2147.54, 0.0494510
2148.43, 0.0494510
2149.32, 0.0495700
2150.21, 0.0495100
2151.1, 0.0495100
2151.99, 0.0496300
2152.89, 0.0497500
2153.78, 0.0496900
2154.68, 0.0494510
2155.57, 0.0494510
2156.47, 0.0494510
2157.37, 0.0495700
2158.27, 0.0496900
2159.16, 0.0496900
2160.06, 0.0496900
2160.96, 0.0496900
2161.86, 0.0496300
2162.77, 0.0495700
2163.67, 0.0495700
2164.57, 0.0495700
2165.48, 0.0497500
2166.38, 0.0496900
2167.29, 0.0498090
2168.2, 0.0498690
2169.1, 0.0496900
2170.01, 0.0497500
2170.92, 0.0500490
2171.83, 0.0501680
2172.74, 0.0501080
2173.65, 0.0499890
2174.56, 0.0500490
2175.47, 0.0502280
2176.39, 0.0502280
2177.3, 0.0500490
2178.22, 0.0500490
2179.13, 0.0500490
2180.05, 0.0499290
2180.96, 0.0500490
2181.88, 0.0501680
2182.8, 0.0502280
2183.72, 0.0501080
2184.64, 0.0501080
2185.56, 0.0502880
2186.48, 0.0505270
2187.41, 0.0507060
2188.33, 0.0507060
2189.25, 0.0505270
2190.18, 0.0505870
2191.1, 0.0506460
2192.03, 0.0505870
2192.96, 0.0505270
2193.89, 0.0505870
2194.82, 0.0505870
2195.74, 0.0508860
2196.68, 0.0508260
2197.61, 0.0504070
2198.54, 0.0507060
2199.47, 0.0509450
2200.4, 0.0508260
2201.34, 0.0507660
2202.28, 0.0508860
2203.21, 0.0509450
2204.15, 0.0508260
2205.08, 0.0507060
2206.02, 0.0507060
2206.96, 0.0507660
2207.9, 0.0506460
2208.84, 0.0507060
2209.78, 0.0510050
2210.73, 0.0512440
2211.67, 0.0510650
2212.61, 0.0510050
2213.56, 0.0512440
2214.5, 0.0512440
2215.45, 0.0511850
2216.4, 0.0513040
2217.35, 0.0514240
2218.3, 0.0515430
2219.24, 0.0515430
2220.2, 0.0514240
2221.15, 0.0513640
2222.1, 0.0513640
2223.05, 0.0515430
2224.0, 0.0513640
2224.96, 0.0511850
2225.91, 0.0514240
2226.87, 0.0514840
2227.83, 0.0513640
2228.79, 0.0511250
2229.74, 0.0512440
2230.7, 0.0516630
2231.66, 0.0519020
2232.63, 0.0518420
2233.59, 0.0516030
2234.55, 0.0514240
2235.51, 0.0515430
2236.48, 0.0515430
2237.44, 0.0515430
2238.41, 0.0517830
2239.38, 0.0517830
2240.34, 0.0517830
2241.31, 0.0518420
2242.28, 0.0519620
2243.25, 0.0520820
2244.22, 0.0519620
2245.19, 0.0519020
2246.17, 0.0519620
2247.14, 0.0520220
2248.12, 0.0519020
2249.09, 0.0517230
2250.07, 0.0519020
2251.04, 0.0520820
2252.02, 0.0520820
2253.0, 0.0520220
2253.98, 0.0519620
2254.96, 0.0519020
2255.94, 0.0518420
2256.92, 0.0519620
2257.91, 0.0520220
2258.89, 0.0519620
2259.88, 0.0520820
2260.86, 0.0522010
2261.85, 0.0522010
2262.83, 0.0522010
2263.82, 0.0522010
2264.81, 0.0523210
2265.8, 0.0522010
2266.79, 0.0521410
2267.78, 0.0524400
2268.78, 0.0525000
2269.77, 0.0522010
2270.76, 0.0521410
2271.76, 0.0522610
2272.75, 0.0523210
2273.75, 0.0523810
2274.75, 0.0523210
2275.75, 0.0524400
2276.75, 0.0525600
2277.75, 0.0525000
2278.75, 0.0525600
2279.75, 0.0526200
2280.75, 0.0525600
2281.76, 0.0525000
2282.76, 0.0524400
2283.77, 0.0525000
2284.77, 0.0525000
2285.78, 0.0525600
2286.79, 0.0527390
2287.8, 0.0526800
2288.81, 0.0525600
2289.82, 0.0526200
2290.83, 0.0526200
2291.84, 0.0526200
2292.86, 0.0526200
2293.87, 0.0527390
2294.89, 0.0530980
2295.91, 0.0530980
2296.92, 0.0529220
2297.94, 0.0529810
2298.96, 0.0530980
2299.98, 0.0535670
2301.0, 0.0536840
2302.02, 0.0535670
2303.04, 0.0533330
2304.07, 0.0532740
2305.09, 0.0533910
2306.12, 0.0532740
2307.15, 0.0530390
2308.17, 0.0532740
2309.2, 0.0534500
2310.23, 0.0532740
2311.26, 0.0533330
2312.29, 0.0535080
2313.32, 0.0535080
2314.35, 0.0534500
2315.39, 0.0533330
2316.42, 0.0533330
2317.46, 0.0536840
2318.5, 0.0538010
2319.53, 0.0537430
2320.57, 0.0539770
2321.61, 0.0538010
2322.65, 0.0533910
2323.69, 0.0535670
2324.73, 0.0538600
2325.78, 0.0540360
2326.82, 0.0538600
2327.86, 0.0536840
2328.91, 0.0538600
2329.96, 0.0538010
2331.01, 0.0535670
2332.05, 0.0537430
2333.1, 0.0538600
2334.15, 0.0540940
2335.21, 0.0540940
2336.26, 0.0542700
2337.31, 0.0542700
2338.36, 0.0542120
2339.42, 0.0543870
2340.48, 0.0542120
2341.53, 0.0540940
2342.59, 0.0539770
2343.65, 0.0542700
2344.71, 0.0543290
2345.77, 0.0543290
2346.83, 0.0545630
2347.9, 0.0544460
2348.96, 0.0542120
2350.02, 0.0540940
2351.09, 0.0540360
2352.16, 0.0545050
2353.23, 0.0546220
2354.29, 0.0544460
2355.36, 0.0545630
2356.43, 0.0550910
2357.51, 0.0549730
2358.58, 0.0544460
2359.65, 0.0542700
2360.73, 0.0547980
2361.8, 0.0552670
2362.88, 0.0552670
2363.96, 0.0553250
2365.03, 0.0552080
2366.11, 0.0550910
2367.19, 0.0550910
2368.27, 0.0550910
2369.36, 0.0554420
2370.44, 0.0552670
2371.53, 0.0552670
2372.61, 0.0553250
2373.7, 0.0554420
2374.78, 0.0555010
2375.87, 0.0556180
2376.96, 0.0553840
2378.05, 0.0553840
2379.14, 0.0556180
2380.24, 0.0555010
2381.33, 0.0555600
2382.42, 0.0557350
2383.52, 0.0557940
2384.61, 0.0556180
2385.71, 0.0556180
2386.81, 0.0556180
2387.91, 0.0552670
2389.01, 0.0552080
2390.11, 0.0555600
2391.22, 0.0559110
2392.32, 0.0557940
2393.42, 0.0556770
2394.53, 0.0557350
2395.64, 0.0559700
2396.74, 0.0562040
2397.85, 0.0561460
2398.96, 0.0560870
2400.07, 0.0560870
2401.18, 0.0561460
2402.3, 0.0562040
2403.41, 0.0562630
2404.52, 0.0564970
2405.64, 0.0561460
2406.76, 0.0559110
2407.88, 0.0564390
2408.99, 0.0564970
2410.11, 0.0564390
2411.23, 0.0563210
2412.36, 0.0565560
2413.48, 0.0566730
2414.6, 0.0565560
2415.73, 0.0564970
2416.85, 0.0564970
2417.98, 0.0569660
2419.11, 0.0569660
2420.24, 0.0567900
2421.37, 0.0567900
2422.5, 0.0567320
2423.64, 0.0567900
2424.77, 0.0566730
2425.9, 0.0563800
2427.04, 0.0563800
2428.18, 0.0567320
2429.31, 0.0570830
2430.45, 0.0569660
2431.59, 0.0567900
2432.73, 0.0570250
2433.88, 0.0570830
2435.02, 0.0570830
2436.16, 0.0570250
2437.31, 0.0570250
2438.45, 0.0570830
2439.6, 0.0571420
2440.75, 0.0572590
2441.9, 0.0573760
2443.05, 0.0572010
2444.2, 0.0573180
2445.35, 0.0573760
2446.51, 0.0576690
2447.67, 0.0578450
2448.82, 0.0577280
2449.98, 0.0576110
2451.14, 0.0575520
2452.3, 0.0576110
2453.46, 0.0576110
2454.62, 0.0576690
2455.78, 0.0579040
2456.94, 0.0579620
2458.11, 0.0580210
2459.28, 0.0581970
2460.44, 0.0581380
2461.61, 0.0579040
2462.78, 0.0579040
2463.95, 0.0580800
2465.12, 0.0580800
2466.3, 0.0579620
2467.47, 0.0581380
2468.65, 0.0580210
2469.82, 0.0579620
2471.0, 0.0581380
2472.18, 0.0583140
2473.36, 0.0581970
2474.54, 0.0581380
2475.72, 0.0581380
2476.9, 0.0579040
2478.08, 0.0578450
2479.27, 0.0579040
2480.46, 0.0581380
2481.64, 0.0581380
2482.83, 0.0581970
2484.02, 0.0584900
2485.21, 0.0584900
2486.4, 0.0584900
2487.6, 0.0584310
2488.79, 0.0583140
2489.99, 0.0585490
2491.18, 0.0587240
2492.38, 0.0585490
2493.58, 0.0585490
2494.78, 0.0587240
2495.98, 0.0589000
2497.18, 0.0587240
2498.39, 0.0584900
2499.59, 0.0587240
2500.8, 0.0589000
2502.01, 0.0589590
2503.21, 0.0590170
2504.42, 0.0590170
2505.63, 0.0589590
2506.84, 0.0589590
2508.06, 0.0591350
2509.27, 0.0589000
2510.49, 0.0588420
2511.7, 0.0589590
2512.92, 0.0589590
2514.14, 0.0590760
2515.36, 0.0593100
2516.58, 0.0593100
2517.8, 0.0593690
2519.03, 0.0592520
2520.25, 0.0589590
2521.48, 0.0590170
2522.7, 0.0592520
2523.93, 0.0594280
2525.16, 0.0594860
2526.39, 0.0594280
2527.62, 0.0595450
2528.86, 0.0597790
2530.09, 0.0597790
2531.33, 0.0596620
2532.56, 0.0594860
2533.8, 0.0594280
2535.04, 0.0596030
2536.28, 0.0596620
2537.52, 0.0598960
2538.76, 0.0599550
2540.01, 0.0598380
2541.25, 0.0597790
2542.5, 0.0598380
2543.75, 0.0601900
2544.99, 0.0603650
2546.24, 0.0602480
2547.49, 0.0603070
2548.75, 0.0603070
2550.0, 0.0604240
2551.26, 0.0601900
2552.51, 0.0604240
2553.77, 0.0605410
2555.03, 0.0605410
2556.29, 0.0606000
2557.55, 0.0604830
2558.81, 0.0604240
2560.08, 0.0609510
2561.34, 0.0614200
2562.61, 0.0612440
2563.88, 0.0610690
2565.14, 0.0609510
2566.41, 0.0608340
2567.68, 0.0608340
2568.96, 0.0609510
2570.23, 0.0608340
2571.51, 0.0606000
2572.78, 0.0610100
2574.06, 0.0614200
2575.34, 0.0612440
2576.62, 0.0611860
2577.9, 0.0611270
2579.18, 0.0609510
2580.47, 0.0613030
2581.75, 0.0614200
2583.04, 0.0614790
2584.32, 0.0616550
2585.61, 0.0613030
2586.9, 0.0614790
2588.2, 0.0615370
2589.49, 0.0613030
2590.78, 0.0611270
2592.08, 0.0613030
2593.37, 0.0619480
2594.67, 0.0628850
2595.97, 0.0621820
2597.27, 0.0611270
2598.57, 0.0610100
2599.88, 0.0611860
2601.18, 0.0614790
2602.49, 0.0615960
2603.79, 0.0615960
2605.1, 0.0619480
2606.41, 0.0621240
2607.72, 0.0618890
2609.03, 0.0617130
2610.35, 0.0616550
2611.66, 0.0617130
2612.98, 0.0617130
2614.3, 0.0615370
2615.62, 0.0618890
2616.94, 0.0624170
2618.26, 0.0620650
2619.58, 0.0620650
2620.91, 0.0624170
2622.23, 0.0618890
2623.56, 0.0617130
2624.89, 0.0618310
2626.22, 0.0624170
2627.55, 0.0625340
2628.88, 0.0622410
2630.21, 0.0627100
2631.55, 0.0627100
2632.89, 0.0624170
2634.22, 0.0622990
2635.56, 0.0620060
2636.9, 0.0621240
2638.25, 0.0623580
2639.59, 0.0622410
2640.93, 0.0621820
2642.28, 0.0624170
2643.63, 0.0624170
2644.98, 0.0625340
2646.33, 0.0625340
2647.68, 0.0624750
2649.03, 0.0624750
2650.39, 0.0625340
2651.74, 0.0628850
2653.1, 0.0631200
2654.46, 0.0627100
2655.82, 0.0625340
2657.18, 0.0624750
2658.54, 0.0627680
2659.9, 0.0631790
2661.27, 0.0633540
2662.64, 0.0632960
2664.01, 0.0635890
2665.38, 0.0641160
2666.74, 0.0639990
2668.12, 0.0636470
2669.49, 0.0638820
2670.87, 0.0642920
2672.24, 0.0634720
2673.62, 0.0632960
2675.0, 0.0634130
2676.38, 0.0638230
2677.76, 0.0638820
2679.15, 0.0638230
2680.54, 0.0635300
2681.92, 0.0632960
2683.31, 0.0637060
2684.7, 0.0637650
2686.09, 0.0634720
2687.48, 0.0634130
2688.88, 0.0634720
2690.27, 0.0634130
2691.67, 0.0634720
2693.07, 0.0638820
2694.47, 0.0642920
2695.87, 0.0638820
2697.27, 0.0634130
2698.67, 0.0634130
2700.08, 0.0634720
2701.49, 0.0635300
2702.9, 0.0634720
2704.31, 0.0637650
2705.72, 0.0638230
2707.13, 0.0637650
2708.54, 0.0640580
2709.96, 0.0645260
2711.38, 0.0646440
2712.8, 0.0642330
2714.22, 0.0637650
2715.64, 0.0636470
2717.06, 0.0639400
2718.49, 0.0642330
2719.91, 0.0647610
2721.34, 0.0647610
2722.77, 0.0644090
2724.2, 0.0651130
2725.63, 0.0648780
2727.07, 0.0640580
2728.5, 0.0640580
2729.94, 0.0639400
2731.38, 0.0638820
2732.82, 0.0642330
2734.26, 0.0647610
2735.7, 0.0647020
2737.15, 0.0645850
2738.59, 0.0651130
2740.04, 0.0652300
2741.49, 0.0648190
2742.94, 0.0646440
2744.39, 0.0644090
2745.84, 0.0641750
2747.3, 0.0642330
2748.76, 0.0642920
2750.21, 0.0642920
2751.67, 0.0645260
2753.14, 0.0645850
2754.6, 0.0649370
2756.06, 0.0650540
2757.53, 0.0644680
2759.0, 0.0642920
2760.46, 0.0643510
2761.94, 0.0644680
2763.41, 0.0644090
2764.88, 0.0640580
2766.36, 0.0638820
2767.83, 0.0639990
2769.31, 0.0641160
2770.79, 0.0642330
2772.27, 0.0639400
2773.76, 0.0636470
2775.24, 0.0636470
2776.73, 0.0635890
2778.22, 0.0634130
2779.71, 0.0632960
2781.2, 0.0633540
2782.69, 0.0635300
2784.18, 0.0633540
2785.68, 0.0632960
2787.18, 0.0632960
2788.68, 0.0630030
2790.18, 0.0625340
2791.68, 0.0623580
2793.19, 0.0622410
2794.69, 0.0621240
2796.2, 0.0620060
2797.71, 0.0616550
2799.22, 0.0613620
2800.73, 0.0610690
2802.24, 0.0607760
2803.76, 0.0604830
2805.28, 0.0600720
2806.8, 0.0595450
2808.32, 0.0587830
2809.84, 0.0580800
2811.36, 0.0575520
2812.89, 0.0569660
2814.42, 0.0559700
2815.94, 0.0550910
2817.48, 0.0543870
2819.01, 0.0536260
2820.54, 0.0528640
2822.08, 0.0521020
2823.61, 0.0516330
2825.15, 0.0513980
2826.69, 0.0512810
2828.23, 0.0509300
2829.78, 0.0509300
2831.32, 0.0513400
2832.87, 0.0515740
2834.42, 0.0518670
2835.97, 0.0522190
2837.52, 0.0526290
2839.08, 0.0530390
2840.63, 0.0535670
2842.19, 0.0541530
2843.75, 0.0545630
2845.31, 0.0547980
2846.87, 0.0552080
2848.44, 0.0557940
2850.0, 0.0562630
2851.57, 0.0564390
2853.14, 0.0568490
2854.71, 0.0571420
2856.28, 0.0573760
2857.86, 0.0574940
2859.43, 0.0576110
2861.01, 0.0576110
2862.59, 0.0577280
2864.17, 0.0576690
2865.76, 0.0571420
2867.34, 0.0566730
2868.93, 0.0564970
2870.52, 0.0564970
2872.11, 0.0564970
2873.7, 0.0563800
2875.29, 0.0562630
2876.89, 0.0562040
2878.49, 0.0564390
2880.08, 0.0567320
2881.69, 0.0567900
2883.29, 0.0569080
2884.89, 0.0572590
2886.5, 0.0576110
2888.11, 0.0577870
2889.72, 0.0582550
2891.33, 0.0587240
2892.94, 0.0587830
2894.56, 0.0590170
2896.17, 0.0594860
2897.79, 0.0598960
2899.42, 0.0600720
2901.04, 0.0601900
2902.66, 0.0603650
2904.29, 0.0606000
2905.92, 0.0608340
2907.55, 0.0611860
2909.18, 0.0614200
2910.81, 0.0615960
2912.45, 0.0615960
2914.08, 0.0619480
2915.72, 0.0622990
2917.36, 0.0626510
2919.01, 0.0626510
2920.65, 0.0625920
2922.3, 0.0628270
2923.94, 0.0630030
2925.59, 0.0630030
2927.25, 0.0631790
2928.9, 0.0631790
2930.56, 0.0631790
2932.21, 0.0634720
2933.87, 0.0635890
2935.53, 0.0635890
2937.2, 0.0636470
2938.86, 0.0637060
2940.53, 0.0638230
2942.2, 0.0640580
2943.87, 0.0640580
2945.54, 0.0639990
2947.22, 0.0641750
2948.89, 0.0643510
2950.57, 0.0644680
2952.25, 0.0646440
2953.93, 0.0647020
2955.62, 0.0647610
2957.3, 0.0647610
2958.99, 0.0647020
2960.68, 0.0646440
2962.37, 0.0647610
2964.07, 0.0649950
2965.76, 0.0651130
2967.46, 0.0651130
2969.16, 0.0651710
2970.86, 0.0653470
2972.56, 0.0654640
2974.27, 0.0654640
2975.98, 0.0654640
2977.69, 0.0655230
2979.4, 0.0656990
2981.11, 0.0657570
2982.83, 0.0657570
2984.54, 0.0657570
2986.26, 0.0659330
2987.98, 0.0659920
2989.71, 0.0659330
2991.43, 0.0659920
2993.16, 0.0661090
2994.89, 0.0661090
2996.62, 0.0661670
2998.35, 0.0662260
3000.09, 0.0662260
3001.83, 0.0662260
3003.57, 0.0662850
3005.31, 0.0663430
3007.05, 0.0664600
3008.79, 0.0665190
3010.54, 0.0663430
3012.29, 0.0662850
3014.04, 0.0665190
3015.8, 0.0665780
3017.55, 0.0666360
3019.31, 0.0666950
3021.07, 0.0666360
3022.83, 0.0667540
3024.59, 0.0668710
3026.36, 0.0669880
3028.13, 0.0669880
3029.9, 0.0671640
3031.67, 0.0672220
3033.44, 0.0671640
3035.22, 0.0671640
3037.0, 0.0673400
3038.78, 0.0673980
3040.56, 0.0676330
3042.34, 0.0678080
3044.13, 0.0678670
3045.92, 0.0678670
3047.71, 0.0679840
3049.5, 0.0678670
3051.3, 0.0679260
3053.09, 0.0681600
3054.89, 0.0682770
3056.69, 0.0681600
3058.5, 0.0680430
3060.3, 0.0682190
3062.11, 0.0683950
3063.92, 0.0685700
3065.73, 0.0685120
3067.55, 0.0684530
3069.36, 0.0686880
3071.18, 0.0689810
3073.0, 0.0690980
3074.82, 0.0689810
3076.65, 0.0689220
3078.48, 0.0690390
3080.31, 0.0691560
3082.14, 0.0690390
3083.97, 0.0690390
3085.8, 0.0691560
3087.64, 0.0692740
3089.48, 0.0693910
3091.33, 0.0694490
3093.17, 0.0695080
3095.02, 0.0695080
3096.87, 0.0694490
3098.72, 0.0694490
3100.57, 0.0695670
3102.43, 0.0695670
3104.28, 0.0697420
3106.14, 0.0699180
3108.01, 0.0700360
3109.87, 0.0702110
3111.74, 0.0703870
3113.61, 0.0703290
3115.48, 0.0701530
3117.35, 0.0701530
3119.23, 0.0703870
3121.1, 0.0703870
3122.98, 0.0705040
3124.87, 0.0706800
3126.75, 0.0706220
3128.64, 0.0706800
3130.53, 0.0707970
3132.42, 0.0710320
3134.31, 0.0710320
3136.21, 0.0708560
3138.11, 0.0709150
3140.01, 0.0710900
3141.91, 0.0710900
3143.82, 0.0712660
3145.73, 0.0714420
3147.64, 0.0715590
3149.55, 0.0716770
3151.46, 0.0715590
3153.38, 0.0715590
3155.3, 0.0716770
3157.22, 0.0717350
3159.14, 0.0718520
3161.07, 0.0719110
3163.0, 0.0720280
3164.93, 0.0720280
3166.86, 0.0720280
3168.8, 0.0721450
3170.74, 0.0722630
3172.68, 0.0723800
3174.62, 0.0723210
3176.56, 0.0723800
3178.51, 0.0724380
3180.46, 0.0724970
3182.42, 0.0725560
3184.37, 0.0726140
3186.33, 0.0727310
3188.29, 0.0728490
3190.25, 0.0729660
3192.21, 0.0729660
3194.18, 0.0730830
3196.15, 0.0732000
3198.12, 0.0731420
3200.09, 0.0732000
3202.07, 0.0732590
3204.05, 0.0733180
3206.03, 0.0733180
3208.02, 0.0734930
3210.0, 0.0737280
3211.99, 0.0737280
3213.98, 0.0736110
3215.98, 0.0736110
3217.97, 0.0738450
3219.97, 0.0740210
3221.97, 0.0740210
3223.98, 0.0741380
3225.98, 0.0741380
3227.99, 0.0741380
3230.0, 0.0743140
3232.02, 0.0743720
3234.03, 0.0743720
3236.05, 0.0744310
3238.07, 0.0745480
3240.1, 0.0745480
3242.12, 0.0746070
3244.15, 0.0748410
3246.18, 0.0750170
3248.22, 0.0750760
3250.25, 0.0750170
3252.29, 0.0749590
3254.33, 0.0749590
3256.38, 0.0750760
3258.43, 0.0750760
3260.47, 0.0751340
3262.53, 0.0751930
3264.58, 0.0751930
3266.64, 0.0753100
3268.7, 0.0754860
3270.76, 0.0756030
3272.82, 0.0756620
3274.89, 0.0757200
3276.96, 0.0758380
3279.04, 0.0758960
3281.11, 0.0758960
3283.19, 0.0758380
3285.27, 0.0759550
3287.35, 0.0760720
3289.44, 0.0761310
3291.53, 0.0761890
3293.62, 0.0762480
3295.71, 0.0762480
3297.81, 0.0763060
3299.91, 0.0763650
3302.01, 0.0763060
3304.11, 0.0763060
3306.22, 0.0765410
3308.33, 0.0766580
3310.44, 0.0767170
3312.56, 0.0767750
3314.68, 0.0767750
3316.8, 0.0768340
3318.92, 0.0769510
3321.05, 0.0771270
3323.18, 0.0771270
3325.31, 0.0770100
3327.44, 0.0771270
3329.58, 0.0773030
3331.72, 0.0773610
3333.86, 0.0773030
3336.01, 0.0773610
3338.16, 0.0774790
3340.31, 0.0776540
3342.46, 0.0777720
3344.61, 0.0777130
3346.77, 0.0775960
3348.94, 0.0775960
3351.1, 0.0776540
3353.27, 0.0778300
3355.44, 0.0780650
3357.61, 0.0781230
3359.79, 0.0781230
3361.97, 0.0781820
3364.15, 0.0782410
3366.33, 0.0781820
3368.52, 0.0782990
3370.71, 0.0784160
3372.9, 0.0784160
3375.1, 0.0784750
3377.3, 0.0785340
3379.5, 0.0786510
3381.71, 0.0788270
3383.91, 0.0788850
3386.12, 0.0788850
3388.34, 0.0790020
3390.55, 0.0791200
3392.77, 0.0790020
3394.99, 0.0790610
3397.22, 0.0791200
3399.45, 0.0791200
3401.68, 0.0791200
3403.91, 0.0792950
3406.15, 0.0794710
3408.39, 0.0794710
3410.63, 0.0795300
3412.87, 0.0795890
3415.12, 0.0797060
3417.37, 0.0798820
3419.63, 0.0798820
3421.88, 0.0797640
3424.14, 0.0798230
3426.41, 0.0799400
3428.67, 0.0801160
3430.94, 0.0802330
3433.21, 0.0802330
3435.49, 0.0804090
3437.77, 0.0804680
3440.05, 0.0804090
3442.33, 0.0804680
3444.62, 0.0804680
3446.91, 0.0804680
3449.2, 0.0806430
3451.5, 0.0807610
3453.8, 0.0808190
3456.1, 0.0809360
3458.41, 0.0809950
3460.72, 0.0809360
3463.03, 0.0810540
3465.34, 0.0811120
3467.66, 0.0811710
3469.98, 0.0812300
3472.31, 0.0812880
3474.63, 0.0814050
3476.96, 0.0814640
3479.3, 0.0816400
3481.64, 0.0816400
3483.97, 0.0816980
3486.32, 0.0817570
3488.66, 0.0817570
3491.01, 0.0817570
3493.36, 0.0818160
3495.72, 0.0821090
3498.08, 0.0823430
3500.44, 0.0823430
3502.81, 0.0822260
3505.18, 0.0824020
3507.55, 0.0824600
3509.92, 0.0825190
3512.3, 0.0826950
3514.68, 0.0825770
3517.06, 0.0826360
3519.45, 0.0827530
3521.84, 0.0828120
3524.24, 0.0829290
3526.64, 0.0828700
3529.04, 0.0828700
3531.44, 0.0829880
3533.85, 0.0831050
3536.26, 0.0831640
3538.67, 0.0832220
3541.09, 0.0832810
3543.51, 0.0832810
3545.93, 0.0832810
3548.36, 0.0832810
3550.79, 0.0833390
3553.22, 0.0833980
3555.66, 0.0835740
3558.1, 0.0836910
3560.54, 0.0836910
3562.99, 0.0836320
3565.44, 0.0838080
3567.9, 0.0838670
3570.35, 0.0838080
3572.81, 0.0837500
3575.28, 0.0838670
3577.75, 0.0841010
3580.22, 0.0842180
3582.69, 0.0842770
3585.17, 0.0842770
3587.65, 0.0843360
3590.14, 0.0844530
3592.62, 0.0844530
3595.11, 0.0844530
3597.61, 0.0845700
3600.11, 0.0845700
3602.61, 0.0845120
3605.11, 0.0844530
3607.62, 0.0845700
3610.14, 0.0846870
3612.65, 0.0848050
3615.17, 0.0847460
3617.69, 0.0848050
3620.22, 0.0849800
3622.75, 0.0850980
3625.28, 0.0851560
3627.82, 0.0851560
3630.36, 0.0851560
3632.9, 0.0851560
3635.45, 0.0852150
3638.0, 0.0853910
3640.56, 0.0854490
3643.12, 0.0855660
3645.68, 0.0856840
3648.24, 0.0858010
3650.81, 0.0856840
3653.39, 0.0855660
3655.96, 0.0856250
3658.54, 0.0856840
3661.13, 0.0858010
3663.71, 0.0859180
3666.3, 0.0859770
3668.9, 0.0859770
3671.5, 0.0860940
3674.1, 0.0862110
3676.7, 0.0862700
3679.31, 0.0862700
3681.93, 0.0862110
3684.54, 0.0862110
3687.17, 0.0862110
3689.79, 0.0862700
3692.42, 0.0865040
3695.05, 0.0866210
3697.69, 0.0867390
3700.32, 0.0867390
3702.97, 0.0868560
3705.61, 0.0869140
3708.27, 0.0869140
3710.92, 0.0868560
3713.58, 0.0869140
3716.24, 0.0870900
3718.91, 0.0871490
3721.58, 0.0870900
3724.25, 0.0870900
3726.93, 0.0871490
3729.61, 0.0873250
3732.29, 0.0875000
3734.98, 0.0876180
3737.67, 0.0875590
3740.37, 0.0874420
3743.07, 0.0875000
3745.78, 0.0876180
3748.49, 0.0877930
3751.2, 0.0879110
3753.91, 0.0880870
3756.63, 0.0880870
3759.36, 0.0879690
3762.09, 0.0880870
3764.82, 0.0881450
3767.55, 0.0882620
3770.29, 0.0883800
3773.04, 0.0884970
3775.78, 0.0885550
3778.54, 0.0886730
3781.29, 0.0887900
3784.05, 0.0887900
3786.82, 0.0886730
3789.59, 0.0886140
3792.36, 0.0887310
3795.13, 0.0887900
3797.92, 0.0889070
3800.7, 0.0889070
3803.49, 0.0889660
3806.28, 0.0890240
3809.08, 0.0891410
3811.88, 0.0892000
3814.68, 0.0893170
3817.49, 0.0893760
3820.31, 0.0894350
3823.12, 0.0894350
3825.94, 0.0894930
3828.77, 0.0896100
3831.6, 0.0896690
3834.43, 0.0896100
3837.27, 0.0896690
3840.11, 0.0896690
3842.96, 0.0897280
3845.81, 0.0898450
3848.67, 0.0899030
3851.53, 0.0900210
3854.39, 0.0900790
3857.26, 0.0899030
3860.13, 0.0899620
3863.01, 0.0900790
3865.89, 0.0900790
3868.77, 0.0901380
3871.66, 0.0902550
3874.55, 0.0902550
3877.45, 0.0903140
3880.35, 0.0902550
3883.26, 0.0901960
3886.17, 0.0903140
3889.09, 0.0904890
3892.01, 0.0905480
3894.93, 0.0905480
3897.86, 0.0905480
3900.79, 0.0906070
3903.73, 0.0906070
3906.67, 0.0906650
3909.62, 0.0907240
3912.57, 0.0907820
3915.52, 0.0908410
3918.48, 0.0908410
3921.45, 0.0909000
3924.42, 0.0910170
3927.39, 0.0910760
3930.37, 0.0911930
3933.35, 0.0912510
3936.34, 0.0913100
3939.33, 0.0911930
3942.32, 0.0911930
3945.32, 0.0912510
3948.33, 0.0913100
3951.34, 0.0913690
3954.35, 0.0913690
3957.37, 0.0914270
3960.39, 0.0915440
3963.42, 0.0915440
3966.45, 0.0916030
3969.49, 0.0916030
3972.53, 0.0915440
3975.58, 0.0918370
3978.63, 0.0919550
3981.68, 0.0918960
3984.75, 0.0920130
3987.81, 0.0921890
3990.88, 0.0921890
3993.95, 0.0920720
3997.03, 0.0921300
4000.12, 0.0923060
4003.21, 0.0923650
4006.3, 0.0923650
4009.4, 0.0924230
4012.5, 0.0924820
4015.61, 0.0925990
4018.72, 0.0927170
4021.84, 0.0927170
4024.96, 0.0927750
4028.09, 0.0928920
4031.22, 0.0929510
4034.36, 0.0928920
4037.5, 0.0928920
4040.65, 0.0930100
4043.8, 0.0931270
4046.96, 0.0930680
4050.12, 0.0930680
4053.29, 0.0931850
4056.46, 0.0933030
4059.64, 0.0933610
4062.82, 0.0933610
4066.0, 0.0933030
4069.19, 0.0934200
4072.39, 0.0934780
4075.59, 0.0935960
4078.8, 0.0936540
4082.01, 0.0935960
4085.23, 0.0935960
4088.45, 0.0935960
4091.68, 0.0937710
4094.91, 0.0938890
4098.15, 0.0938300
4101.39, 0.0938890
4104.63, 0.0940060
4107.89, 0.0940060
4111.14, 0.0940060
4114.41, 0.0940640
4117.67, 0.0941820
4120.95, 0.0942400
4124.23, 0.0942400
4127.51, 0.0943570
4130.8, 0.0944750
4134.09, 0.0944750
4137.39, 0.0945330
4140.7, 0.0947090
4144.01, 0.0948260
4147.32, 0.0947680
4150.64, 0.0946510
4153.97, 0.0947090
4157.3, 0.0948850
4160.64, 0.0950020
4163.98, 0.0951190
4167.33, 0.0951780
4170.68, 0.0950610
4174.04, 0.0950610
4177.4, 0.0952370
4180.77, 0.0954120
4184.14, 0.0954120
4187.52, 0.0952950
4190.91, 0.0954120
4194.3, 0.0954710
4197.69, 0.0954710
4201.1, 0.0955300
4204.5, 0.0956470
4207.92, 0.0957050
4211.34, 0.0957050
4214.76, 0.0957640
4218.19, 0.0959400
4221.62, 0.0961160
4225.06, 0.0962330
4228.51, 0.0962330
4231.96, 0.0963500
4235.42, 0.0965260
4238.88, 0.0964670
4242.35, 0.0964090
4245.83, 0.0964090
4249.31, 0.0964670
4252.79, 0.0964090
4256.28, 0.0963500
4259.78, 0.0964670
4263.29, 0.0965260
4266.79, 0.0966430
4270.31, 0.0967020
4273.83, 0.0966430
4277.35, 0.0967600
4280.89, 0.0968190
4284.42, 0.0968780
4287.97, 0.0969360
4291.52, 0.0970530
4295.07, 0.0971710
4298.63, 0.0972290
4302.2, 0.0972290
4305.78, 0.0972880
4309.35, 0.0972290
4312.94, 0.0972880
4316.53, 0.0974050
4320.13, 0.0974640
4323.73, 0.0975810
4327.34, 0.0975220
4330.96, 0.0975220
4334.58, 0.0975810
4338.21, 0.0976980
4341.84, 0.0977570
4345.48, 0.0978740
4349.12, 0.0978150
4352.77, 0.0977570
4356.43, 0.0978740
4360.1, 0.0979910
4363.76, 0.0980500
4367.44, 0.0981080
4371.12, 0.0980500
4374.81, 0.0980500
4378.51, 0.0982260
4382.21, 0.0982840
4385.92, 0.0982260
4389.63, 0.0982840
4393.35, 0.0984010
4397.08, 0.0984600
4400.81, 0.0984600
4404.55, 0.0985770
4408.29, 0.0985770
4412.04, 0.0986360
4415.8, 0.0987530
4419.57, 0.0988120
4423.34, 0.0988700
4427.12, 0.0989290
4430.9, 0.0989290
4434.69, 0.0990460
4438.49, 0.0990460
4442.29, 0.0990460
4446.1, 0.0991050
4449.92, 0.0991630
4453.74, 0.0992220
4457.57, 0.0992220
4461.41, 0.0992220
4465.25, 0.0993390
4469.1, 0.0995150
4472.95, 0.0995150
4476.82, 0.0993980
4480.69, 0.0993980
4484.56, 0.0994560
4488.44, 0.0995150
4492.33, 0.0996320
4496.23, 0.0997490
4500.13, 0.0998080
4504.04, 0.0998670
4507.96, 0.0998670
4511.88, 0.0999840
4515.81, 0.0999840
4519.75, 0.0999840
4523.69, 0.100042
4527.65, 0.100160
4531.6, 0.100335
4535.57, 0.100335
4539.54, 0.100277
4543.52, 0.100218
4547.5, 0.100277
4551.5, 0.100335
4555.5, 0.100453
4559.5, 0.100570
4563.52, 0.100570
4567.54, 0.100570
4571.56, 0.100570
4575.6, 0.100687
4579.64, 0.100804
4583.69, 0.100863
4587.75, 0.100804
4591.81, 0.100746
4595.88, 0.100804
4599.96, 0.100921
4604.04, 0.100980
4608.14, 0.101039
4612.24, 0.101097
4616.34, 0.101156
4620.46, 0.101156
4624.58, 0.101273
4628.71, 0.101273
4632.84, 0.101390
4636.99, 0.101566
4641.14, 0.101508
4645.3, 0.101566
4649.47, 0.101566
4653.64, 0.101566
4657.82, 0.101625
4662.01, 0.101742
4666.21, 0.101859
4670.41, 0.101801
4674.62, 0.101859
4678.84, 0.102035
4683.07, 0.102035
4687.3, 0.102094
4691.54, 0.102152
4695.79, 0.102094
4700.05, 0.102211
4704.31, 0.102269
4708.59, 0.102211
4712.87, 0.102269
4717.15, 0.102387
4721.45, 0.102563
4725.76, 0.102680
4730.07, 0.102738
4734.39, 0.102738
4738.72, 0.102680
4743.05, 0.102738
4747.39, 0.102797
4751.75, 0.102856
4756.1, 0.102973
4760.47, 0.102973
4764.85, 0.102914
4769.23, 0.102973
4773.62, 0.103149
4778.02, 0.103266
4782.43, 0.103266
4786.85, 0.103324
4791.27, 0.103383
4795.7, 0.103500
4800.14, 0.103559
4804.59, 0.103617
4809.05, 0.103617
4813.51, 0.103676
4817.99, 0.103676
4822.47, 0.103735
4826.96, 0.103793
4831.46, 0.103910
4835.96, 0.103969
4840.48, 0.104086
4845.0, 0.104204
4849.54, 0.104204
4854.08, 0.104204
4858.63, 0.104262
4863.18, 0.104262
4867.75, 0.104438
4872.33, 0.104438
4876.91, 0.104321
4881.5, 0.104379
4886.1, 0.104438
4890.71, 0.104438
4895.33, 0.104555
4899.96, 0.104672
4904.59, 0.104672
4909.24, 0.104731
4913.89, 0.104790
4918.55, 0.104848
4923.22, 0.104848
4927.9, 0.104907
4932.59, 0.104907
4937.29, 0.104965
4942.0, 0.104965
4946.71, 0.105024
4951.44, 0.105024
4956.17, 0.105141
4960.91, 0.105200
4965.67, 0.105200
4970.43, 0.105200
4975.2, 0.105376
4979.98, 0.105317
4984.76, 0.105317
4989.56, 0.105376
4994.37, 0.105376
4999.18, 0.105317
5004.01, 0.105434
5008.84, 0.105551
5013.69, 0.105610
5018.54, 0.105669
5023.4, 0.105669
5028.28, 0.105669
5033.16, 0.105727
5038.05, 0.105727
5042.95, 0.105786
5047.86, 0.105786
5052.78, 0.105844
5057.71, 0.105844
5062.65, 0.105844
5067.6, 0.105786
5072.56, 0.105786
5077.53, 0.105903
5082.5, 0.106079
5087.49, 0.106079
5092.49, 0.106138
5097.5, 0.106079
5102.51, 0.106020
5107.54, 0.106138
5112.58, 0.106196
5117.62, 0.106196
5122.68, 0.106138
5127.75, 0.106255
5132.82, 0.106313
5137.91, 0.106313
5143.01, 0.106431
5148.12, 0.106606
5153.23, 0.106548
5158.36, 0.106548
5163.5, 0.106548
5168.65, 0.106548
5173.81, 0.106548
5178.98, 0.106548
5184.15, 0.106548
5189.34, 0.106548
5194.54, 0.106724
5199.75, 0.106958
5204.98, 0.106899
5210.21, 0.107134
5215.45, 0.107134
5220.7, 0.106958
5225.96, 0.106958
5231.23, 0.107017
5236.52, 0.107075
5241.81, 0.107192
5247.12, 0.107134
5252.44, 0.107134
5257.76, 0.107251
5263.1, 0.107368
5268.45, 0.107368
5273.81, 0.107368
5279.18, 0.107310
5284.56, 0.107368
5289.95, 0.107603
5295.36, 0.107544
5300.77, 0.107427
5306.2, 0.107486
5311.63, 0.107603
5317.08, 0.107779
5322.54, 0.107779
5328.01, 0.107837
5333.49, 0.107896
5338.98, 0.108072
5344.49, 0.108365
5350.0, 0.108658
5355.53, 0.108482
5361.07, 0.108189
5366.62, 0.108130
5372.18, 0.108247
5377.75, 0.108306
5383.34, 0.108247
5388.93, 0.108365
5394.54, 0.108482
5400.16, 0.108540
5405.79, 0.108599
5411.44, 0.108716
5417.09, 0.109126
5422.76, 0.109537
5428.43, 0.109126
5434.12, 0.108892
5439.83, 0.108833
5445.54, 0.108951
5451.26, 0.108951
5457.0, 0.109126
5462.75, 0.109537
5468.52, 0.109420
5474.29, 0.109361
5480.08, 0.109478
5485.88, 0.109244
5491.69, 0.109244
5497.51, 0.109302
5503.35, 0.109244
5509.2, 0.109244
5515.06, 0.109420
5520.93, 0.109595
5526.82, 0.109595
5532.71, 0.109420
5538.63, 0.109420
5544.55, 0.109537
5550.49, 0.109654
5556.44, 0.109771
5562.4, 0.109654
5568.37, 0.109595
5574.36, 0.110123
5580.36, 0.110474
5586.37, 0.109947
5592.4, 0.109537
5598.44, 0.109713
5604.49, 0.109830
5610.56, 0.109830
5616.63, 0.109888
5622.73, 0.109888
5628.83, 0.109888
5634.95, 0.110240
5641.08, 0.111002
5647.23, 0.110709
5653.39, 0.110357
5659.56, 0.110123
5665.74, 0.109947
5671.94, 0.110299
5678.15, 0.110299
5684.38, 0.110064
5690.62, 0.110299
5696.87, 0.110123
5703.14, 0.110123
5709.42, 0.110650
5715.72, 0.110650
5722.03, 0.110474
5728.35, 0.110357
5734.69, 0.110299
5741.03, 0.110416
5747.4, 0.110767
5753.78, 0.110357
5760.17, 0.110885
5766.58, 0.111940
5773.0, 0.111061
5779.44, 0.110416
5785.88, 0.110181
5792.35, 0.110006
5798.83, 0.110064
5805.32, 0.110006
5811.83, 0.110299
5818.35, 0.111295
5824.89, 0.111588
5831.45, 0.110709
5838.01, 0.110064
5844.59, 0.109830
5851.19, 0.110064
5857.8, 0.110357
5864.43, 0.110474
5871.07, 0.110299
5877.73, 0.111705
5884.4, 0.111588
5891.09, 0.110709
5897.79, 0.110709
5904.5, 0.109537
5911.23, 0.109185
5917.98, 0.109302
5924.75, 0.109302
5931.53, 0.110240
5938.32, 0.110885
5945.13, 0.109244
5951.96, 0.108423
5958.8, 0.108247
5965.65, 0.108775
5972.53, 0.108540
5979.42, 0.107896
5986.32, 0.108130
5993.24, 0.107837
6000.18, 0.107017
6007.13, 0.106782
6014.1, 0.106841
6021.08, 0.106196
6028.09, 0.105610
6035.1, 0.105317
6042.14, 0.106372
6049.19, 0.107368
6056.25, 0.105141
6063.34, 0.103969
6070.44, 0.104145
6077.55, 0.103207
6084.69, 0.101742
6091.84, 0.100804
6099.0, 0.100042
6106.19, 0.0996910
6113.39, 0.0992220
6120.61, 0.0971120
6127.84, 0.0948850
6135.09, 0.0933030
6142.36, 0.0914860
6149.65, 0.0890240
6156.95, 0.0865040
6164.27, 0.0833980
6171.61, 0.0800570
6178.97, 0.0775960
6186.34, 0.0750170
6193.73, 0.0720870
6201.14, 0.0705630
6208.57, 0.0702700
6216.01, 0.0709730
6223.47, 0.0724380
6230.95, 0.0746070
6238.45, 0.0771860
6245.97, 0.0797640
6253.5, 0.0819910
6261.06, 0.0836910
6268.63, 0.0851560
6276.21, 0.0861530
6283.82, 0.0867970
6291.45, 0.0871490
6299.1, 0.0872070
6306.76, 0.0873830
6314.44, 0.0880280
6322.14, 0.0890830
6329.86, 0.0906070
6337.6, 0.0930680
6345.35, 0.0955300
6353.13, 0.0963500
6360.92, 0.0975810
6368.74, 0.0993980
6376.57, 0.100218
6384.43, 0.100687
6392.3, 0.101449
6400.19, 0.102269
6408.1, 0.104497
6416.03, 0.105903
6423.98, 0.104614
6431.95, 0.104262
6439.94, 0.104204
6447.95, 0.104145
6455.98, 0.104204
6464.03, 0.104497
6472.1, 0.105317
6480.19, 0.106138
6488.31, 0.107310
6496.44, 0.107368
6504.59, 0.106020
6512.76, 0.105786
6520.95, 0.106431
6529.16, 0.106020
6537.4, 0.105962
6545.65, 0.106431
6553.92, 0.106899
6562.22, 0.107192
6570.54, 0.108013
6578.88, 0.107661
6587.23, 0.107310
6595.61, 0.107251
6604.02, 0.106841
6612.44, 0.106899
6620.89, 0.107134
6629.35, 0.108189
6637.84, 0.109126
6646.35, 0.107896
6654.88, 0.106958
6663.44, 0.107075
6672.01, 0.107486
6680.61, 0.107720
6689.23, 0.107310
6697.88, 0.107017
6706.54, 0.107427
6715.23, 0.107661
6723.94, 0.107427
6732.67, 0.107017
6741.42, 0.106899
6750.2, 0.106899
6759.0, 0.106841
6767.82, 0.107075
6776.67, 0.107368
6785.54, 0.107954
6794.44, 0.107837
6803.35, 0.106958
6812.29, 0.106724
6821.26, 0.107017
6830.24, 0.107017
6839.25, 0.106606
6848.29, 0.106841
6857.35, 0.108013
6866.43, 0.108189
6875.54, 0.106782
6884.67, 0.106196
6893.82, 0.106020
6903.0, 0.106255
6912.2, 0.106079
6921.43, 0.105786
6930.69, 0.105727
6939.96, 0.105669
6949.27, 0.105844
6958.59, 0.106372
6967.95, 0.105786
6977.33, 0.105258
6986.73, 0.105258
6996.16, 0.105258
7005.61, 0.104907
7015.09, 0.104907
7024.6, 0.104848
7034.13, 0.104790
7043.69, 0.105258
7053.27, 0.104907
7062.88, 0.104379
7072.52, 0.104204
7082.18, 0.104086
7091.87, 0.104086
7101.58, 0.103969
7111.32, 0.103969
7121.09, 0.103910
7130.88, 0.103617
7140.71, 0.103735
7150.56, 0.103852
7160.43, 0.103793
7170.33, 0.103735
7180.27, 0.103266
7190.23, 0.102973
7200.21, 0.102914
7210.23, 0.103031
7220.27, 0.102856
7230.34, 0.102680
7240.44, 0.102445
7250.56, 0.102328
7260.72, 0.102328
7270.9, 0.102445
7281.12, 0.102445
7291.36, 0.102211
7301.63, 0.102035
7311.93, 0.101801
7322.25, 0.101625
7332.61, 0.101859
7343.0, 0.101859
7353.41, 0.101508
7363.86, 0.101332
7374.33, 0.101273
7384.83, 0.101097
7395.37, 0.100980
7405.93, 0.100863
7416.53, 0.100746
7427.15, 0.100628
7437.81, 0.100511
7448.5, 0.100511
7459.22, 0.100570
7469.96, 0.100570
7480.74, 0.100453
7491.55, 0.100335
7502.39, 0.100335
7513.27, 0.100277
7524.17, 0.100160
7535.11, 0.100042
7546.08, 0.100042
7557.08, 0.100160
7568.11, 0.100101
7579.17, 0.0999840
7590.27, 0.100042
7601.4, 0.0999250
7612.56, 0.0998670
7623.76, 0.0998670
7634.98, 0.0996910
7646.24, 0.0996320
7657.54, 0.0995150
7668.87, 0.0993980
7680.23, 0.0993980
7691.62, 0.0992810
7703.05, 0.0991630
7714.51, 0.0989870
7726.01, 0.0989290
7737.54, 0.0988700
7749.11, 0.0986940
7760.71, 0.0985770
7772.35, 0.0985770
7784.02, 0.0985190
7795.72, 0.0984010
7807.46, 0.0982260
7819.23, 0.0981670
7831.04, 0.0981080
7842.89, 0.0978150
7854.77, 0.0976400
7866.69, 0.0975810
7878.65, 0.0974640
7890.64, 0.0973460
7902.67, 0.0971710
7914.74, 0.0971120
7926.84, 0.0969950
7938.98, 0.0968780
7951.16, 0.0967020
7963.37, 0.0966430
7975.62, 0.0965260
7987.91, 0.0964670
8000.24, 0.0963500
8012.6, 0.0962330
8025.01, 0.0960570
8037.45, 0.0958810
8049.93, 0.0957050
8062.45, 0.0955880
8075.01, 0.0954710
8087.61, 0.0954710
8100.24, 0.0953540
8112.91, 0.0951780
8125.63, 0.0948260
8138.39, 0.0947680
8151.18, 0.0947090
8164.02, 0.0944750
8176.9, 0.0944160
8189.81, 0.0944160
8202.77, 0.0942400
8215.77, 0.0940060
8228.82, 0.0937710
8241.9, 0.0935960
8255.02, 0.0935960
8268.19, 0.0935960
8281.39, 0.0933610
8294.65, 0.0931270
8307.94, 0.0928920
8321.28, 0.0927170
8334.66, 0.0925990
8348.08, 0.0923060
8361.54, 0.0920720
8375.05, 0.0920720
8388.6, 0.0919550
8402.2, 0.0917790
8415.84, 0.0916030
8429.52, 0.0914270
8443.25, 0.0913100
8457.02, 0.0911930
8470.84, 0.0910170
8484.7, 0.0908410
8498.61, 0.0907240
8512.57, 0.0904890
8526.57, 0.0902550
8540.62, 0.0901960
8554.71, 0.0900790
8568.85, 0.0898450
8583.04, 0.0897280
8597.27, 0.0896100
8611.55, 0.0893170
8625.88, 0.0891410
8640.26, 0.0890240
8654.68, 0.0888480
8669.16, 0.0886730
8683.68, 0.0886140
8698.25, 0.0884970
8712.87, 0.0883210
8727.53, 0.0880870
8742.25, 0.0878520
8757.02, 0.0875000
8771.83, 0.0874420
8786.7, 0.0873830
8801.62, 0.0870320
8816.59, 0.0867970
8831.61, 0.0866210
8846.68, 0.0866210
8861.8, 0.0865040
8876.97, 0.0863280
8892.2, 0.0861530
8907.48, 0.0858590
8922.81, 0.0855080
8938.2, 0.0854490
8953.63, 0.0852150
8969.13, 0.0849220
8984.67, 0.0845700
9000.27, 0.0843940
9015.92, 0.0843940
9031.63, 0.0841600
9047.39, 0.0838080
9063.21, 0.0835740
9079.08, 0.0834570
9095.01, 0.0833390
9111.0, 0.0830460
9127.04, 0.0827530
9143.13, 0.0823430
9159.28, 0.0820500
9175.49, 0.0818160
9191.76, 0.0816980
9208.09, 0.0816980
9224.47, 0.0814050
9240.92, 0.0811120
9257.42, 0.0809950
9273.98, 0.0808780
9290.6, 0.0805850
9307.28, 0.0801160
9324.02, 0.0799990
9340.82, 0.0798820
9357.68, 0.0795300
9374.6, 0.0792370
9391.58, 0.0790610
9408.62, 0.0787090
9425.73, 0.0784750
9442.9, 0.0783580
9460.13, 0.0781230
9477.42, 0.0777130
9494.78, 0.0774200
9512.2, 0.0771860
9529.69, 0.0769510
9547.24, 0.0767170
9564.86, 0.0766000
9582.54, 0.0763650
9600.28, 0.0762480
9618.1, 0.0760130
9635.97, 0.0757200
9653.92, 0.0755450
9671.93, 0.0753100
9690.01, 0.0752520
9708.16, 0.0751930
9726.37, 0.0749590
9744.65, 0.0747830
9763.0, 0.0744310
9781.43, 0.0741380
9799.92, 0.0739040
9818.48, 0.0739620
9837.1, 0.0738450
9855.8, 0.0734350
9874.58, 0.0730830
9893.42, 0.0728490
9912.34, 0.0727310
9931.33, 0.0724380
9950.39, 0.0723210
9969.52, 0.0722040
9988.74, 0.0720870
10008.0, 0.0719110
10027.4, 0.0714420
10046.8, 0.0711490
10066.3, 0.0710320
10085.9, 0.0707970
10105.6, 0.0703870
10125.3, 0.0700360
10145.1, 0.0698010
10165.0, 0.0695080
10185.0, 0.0692740
10205.0, 0.0689810
10225.2, 0.0687460
10245.4, 0.0685700
10265.7, 0.0682190
10286.0, 0.0679840
10306.5, 0.0676910
10327.0, 0.0671640
10347.6, 0.0668710
10368.3, 0.0667540
10389.1, 0.0666950
10409.9, 0.0664600
10430.9, 0.0661090
10451.9, 0.0658160
10473.0, 0.0655810
10494.2, 0.0653470
10515.5, 0.0650540
10536.9, 0.0648190
10558.4, 0.0645850
10579.9, 0.0644680
10601.5, 0.0645260
10623.3, 0.0644090
10645.1, 0.0642330
10667.0, 0.0638230
10689.0, 0.0635300
10711.1, 0.0633540
10733.2, 0.0632960
10755.5, 0.0630610
10777.9, 0.0627680
10800.3, 0.0625340
10822.9, 0.0622990
10845.5, 0.0622990
10868.2, 0.0620650
10891.1, 0.0617130
10914.0, 0.0617130
10937.0, 0.0615960
10960.2, 0.0613620
10983.4, 0.0611270
11006.7, 0.0608340
11030.1, 0.0606580
11053.6, 0.0604830
11077.3, 0.0600720
11101.0, 0.0599550
11124.8, 0.0599550
11148.7, 0.0595450
11172.7, 0.0591930
11196.9, 0.0590760
11221.1, 0.0587830
11245.4, 0.0586660
11269.9, 0.0583730
11294.4, 0.0580210
11319.1, 0.0576690
11343.9, 0.0574940
11368.8, 0.0572010
11393.7, 0.0567320
11418.8, 0.0563800
11444.0, 0.0561460
11469.4, 0.0559110
11494.8, 0.0556180
11520.3, 0.0554420
11546.0, 0.0552080
11571.8, 0.0548560
11597.7, 0.0544460
11623.7, 0.0540360
11649.8, 0.0538010
11676.0, 0.0535670
11702.4, 0.0532150
11728.9, 0.0527460
11755.5, 0.0523950
11782.2, 0.0519850
11809.0, 0.0515740
11836.0, 0.0511050
11863.0, 0.0507540
11890.3, 0.0502850
11917.6, 0.0496400
11945.0, 0.0491130
11972.6, 0.0485850
12000.4, 0.0479410
12028.2, 0.0474130
12056.2, 0.0469440
12084.3, 0.0463000
12112.5, 0.0458890
12140.9, 0.0453030
12169.4, 0.0445410
12198.0, 0.0437800
12226.8, 0.0429590
12255.7, 0.0421970
12284.7, 0.0416110
12313.9, 0.0412010
12343.2, 0.0407320
12372.7, 0.0400870
12402.3, 0.0394430
12432.0, 0.0385630
12461.9, 0.0376260
12491.9, 0.0368640
12522.1, 0.0362190
12552.4, 0.0355160
12582.9, 0.0346370
12613.5, 0.0336990
12644.3, 0.0329370
12675.2, 0.0321750
12706.3, 0.0314130
12737.5, 0.0305340
12768.9, 0.0295970
12800.4, 0.0287180
12832.1, 0.0280730
12863.9, 0.0274280
12895.9, 0.0264900
12928.1, 0.0256700
12960.4, 0.0252600
12992.9, 0.0245560
13025.5, 0.0236770
13058.3, 0.0231500
13091.3, 0.0226220
13124.4, 0.0220950
13157.8, 0.0219190
13191.2, 0.0220360
13224.9, 0.0219190
13258.7, 0.0222120
13292.7, 0.0228570
13326.9, 0.0235010
13361.2, 0.0239700
13395.7, 0.0246150
13430.4, 0.0253770
13465.3, 0.0260800
13500.4, 0.0267250
13535.7, 0.0276630
13571.1, 0.0286000
13606.7, 0.0288930
13642.5, 0.0291860
13678.5, 0.0296550
13714.7, 0.0302410
13751.1, 0.0307100
13787.6, 0.0308270
13824.4, 0.0308860
13861.4, 0.0313550
13898.5, 0.0312960
13935.9, 0.0312380
13973.5, 0.0312960
14011.2, 0.0313550
14049.2, 0.0314720
14087.4, 0.0315890
14125.8, 0.0317060
14164.3, 0.0316480
14203.2, 0.0318240
14242.2, 0.0317650
14281.4, 0.0318240
14320.9, 0.0322930
14360.5, 0.0329370
14400.4, 0.0334060
14440.5, 0.0341680
14480.9, 0.0349300
14521.4, 0.0359260
14562.2, 0.0372740
14603.3, 0.0384460
14644.5, 0.0395010
14686.0, 0.0407910
14727.7, 0.0421970
14769.7, 0.0435450
14811.9, 0.0453620
14854.3, 0.0469440
14897.0, 0.0486440
14939.9, 0.0503440
14983.1, 0.0521600
15026.5, 0.0538600
15070.2, 0.0550320
15114.2, 0.0562630
15158.3, 0.0576690
15202.8, 0.0584900
15247.5, 0.0594860
15292.5, 0.0606580
15337.7, 0.0616550
15383.2, 0.0622990
15429.0, 0.0631200
15475.1, 0.0638820
15521.4, 0.0647020
15568.0, 0.0656990
15614.9, 0.0664020
15662.1, 0.0676330
15709.6, 0.0692740
15757.3, 0.0708560
15805.4, 0.0720870
15853.7, 0.0734350
15902.3, 0.0748410
15951.2, 0.0758960
16000.5, 0.0769510
16050.0, 0.0780650
16099.8, 0.0794710
16150.0, 0.0811120
16200.5, 0.0838670
16251.3, 0.0869140
16302.4, 0.0895520
16353.8, 0.0923650
16405.5, 0.0952950
16457.6, 0.0983430
16510.0, 0.101039
16562.8, 0.102797
16615.9, 0.104262
16669.3, 0.105141
16723.1, 0.105727
16777.2, 0.105844
16831.7, 0.105669
16886.5, 0.105376
16941.7, 0.105141
16997.2, 0.104907
17053.1, 0.104965
17109.4, 0.105493
17166.1, 0.105962
17223.1, 0.106899
17280.5, 0.107720
17338.3, 0.108189
17396.5, 0.109068
17455.1, 0.110064
17514.0, 0.110299
17573.4, 0.110181
17633.2, 0.110240
17693.4, 0.110181
17754.0, 0.109302
17815.0, 0.108716
17876.4, 0.108365
17938.3, 0.107954
18000.5, 0.108072
18063.3, 0.108540
18126.4, 0.109713
18190.0, 0.111647
18254.1, 0.113932
18318.6, 0.116159
18383.5, 0.118035
18449.0, 0.119969
18514.9, 0.121375
18581.2, 0.122606
18648.0, 0.123720
18715.4, 0.124892
18783.2, 0.125830
18851.5, 0.126533
18920.3, 0.127646
18989.6, 0.129170
19059.4, 0.128994
19129.7, 0.129112
19200.6, 0.128994
19272.0, 0.127529
19343.9, 0.127236
19416.3, 0.127529
19489.3, 0.127353
19562.8, 0.126826
19637.0, 0.126123
19711.6, 0.124423
19786.8, 0.122665
19862.6, 0.120731
19939.0, 0.118445
20016.0, 0.116511
20093.6, 0.113522
20171.8, 0.110709
20250.6, 0.109947
20330.0, 0.109126
20410.0, 0.107837
20490.7, 0.107368
20572.0, 0.107310
20654.0, 0.108013
20736.6, 0.107779
20819.9, 0.107661
20903.8, 0.109595
20988.5, 0.110767
21073.8, 0.110299
21159.8, 0.110767
21246.5, 0.111354
21334.0, 0.112291
21422.1, 0.112702
21511.0, 0.112643
21600.7, 0.112995
21691.0, 0.114050
21782.1, 0.113405
21874.0, 0.112467
21966.7, 0.112409
22060.2, 0.112643
22154.5, 0.113698
22249.6, 0.114518
22345.5, 0.115925
22442.2, 0.117859
22539.8, 0.119910
22638.2, 0.119793
22737.5, 0.117976
22837.7, 0.118621
22938.7, 0.119676
23040.7, 0.120203
23143.5, 0.119441
23247.3, 0.117918
23352.1, 0.116101
23457.7, 0.116511
23564.4, 0.116804
23672.0, 0.113170
23780.5, 0.112057
23890.1, 0.112995
24000.7, 0.110767
24112.3, 0.109361
24225.0, 0.108658
24338.7, 0.109947
24453.5, 0.111822
24569.4, 0.112233
24686.4, 0.114225
24804.5, 0.116863
