Database of Origin, USGS Spectral Database
Sample Description, See USGS database for additional info
Date Added,2017-07-03 06:06:52.810917

Data ID,USGS_pyr20          
Sample ID, pyrrhotite_hs269.19021
Mineral Name, pyrrhotite
Material Class,Sulfide

Wavelength
1499.61, 0.0834870
1500.04, 0.0836140
1500.48, 0.0836560
1500.91, 0.0835290
1501.35, 0.0833600
1501.78, 0.0835720
1502.22, 0.0837830
1502.65, 0.0838670
1503.09, 0.0839100
1503.53, 0.0839100
1503.96, 0.0838670
1504.4, 0.0838250
1504.83, 0.0838670
1505.27, 0.0837410
1505.71, 0.0836560
1506.15, 0.0836980
1506.58, 0.0837830
1507.02, 0.0836560
1507.46, 0.0836980
1507.9, 0.0838670
1508.34, 0.0841630
1508.78, 0.0840370
1509.21, 0.0837830
1509.66, 0.0837830
1510.09, 0.0837830
1510.53, 0.0838670
1510.97, 0.0839100
1511.42, 0.0838250
1511.86, 0.0838250
1512.3, 0.0837830
1512.74, 0.0839520
1513.18, 0.0841210
1513.62, 0.0841630
1514.06, 0.0842060
1514.51, 0.0842060
1514.95, 0.0841630
1515.39, 0.0842060
1515.83, 0.0842060
1516.28, 0.0844170
1516.72, 0.0844170
1517.16, 0.0842060
1517.61, 0.0841210
1518.05, 0.0841630
1518.5, 0.0842480
1518.94, 0.0842480
1519.39, 0.0843320
1519.83, 0.0842060
1520.28, 0.0842480
1520.73, 0.0844590
1521.17, 0.0843750
1521.62, 0.0844170
1522.07, 0.0845860
1522.51, 0.0845020
1522.96, 0.0842480
1523.41, 0.0845020
1523.85, 0.0847130
1524.3, 0.0844170
1524.75, 0.0843320
1525.2, 0.0845440
1525.65, 0.0844170
1526.1, 0.0844170
1526.55, 0.0845440
1527.0, 0.0846280
1527.45, 0.0845440
1527.9, 0.0844170
1528.35, 0.0845860
1528.8, 0.0848400
1529.25, 0.0848820
1529.7, 0.0847970
1530.15, 0.0846280
1530.6, 0.0844590
1531.05, 0.0845440
1531.51, 0.0846710
1531.96, 0.0845860
1532.41, 0.0845860
1532.87, 0.0847130
1533.32, 0.0848400
1533.77, 0.0850090
1534.23, 0.0850510
1534.68, 0.0850090
1535.14, 0.0850090
1535.59, 0.0849670
1536.05, 0.0849670
1536.5, 0.0848820
1536.96, 0.0849240
1537.41, 0.0848400
1537.87, 0.0847970
1538.32, 0.0849240
1538.78, 0.0848820
1539.24, 0.0850090
1539.7, 0.0850510
1540.15, 0.0850090
1540.61, 0.0851360
1541.07, 0.0852620
1541.53, 0.0853890
1541.98, 0.0852200
1542.44, 0.0850930
1542.9, 0.0852620
1543.36, 0.0852620
1543.82, 0.0852620
1544.28, 0.0853470
1544.74, 0.0853890
1545.2, 0.0854320
1545.66, 0.0854320
1546.12, 0.0854320
1546.59, 0.0854740
1547.05, 0.0854320
1547.51, 0.0854320
1547.97, 0.0855160
1548.43, 0.0856010
1548.9, 0.0856430
1549.36, 0.0855580
1549.82, 0.0856430
1550.29, 0.0856430
1550.75, 0.0856850
1551.21, 0.0856430
1551.68, 0.0856010
1552.14, 0.0856850
1552.61, 0.0856850
1553.07, 0.0858540
1553.54, 0.0859390
1554.0, 0.0859810
1554.47, 0.0859390
1554.93, 0.0859810
1555.4, 0.0859810
1555.87, 0.0860660
1556.34, 0.0862350
1556.8, 0.0861500
1557.27, 0.0862350
1557.74, 0.0861080
1558.21, 0.0859810
1558.68, 0.0861080
1559.14, 0.0861500
1559.61, 0.0862350
1560.08, 0.0864460
1560.55, 0.0864880
1561.02, 0.0863190
1561.49, 0.0863610
1561.96, 0.0864460
1562.43, 0.0864880
1562.9, 0.0865310
1563.38, 0.0865730
1563.85, 0.0864880
1564.32, 0.0865730
1564.79, 0.0868260
1565.26, 0.0869110
1565.74, 0.0867000
1566.21, 0.0867000
1566.68, 0.0869530
1567.16, 0.0869530
1567.63, 0.0868260
1568.1, 0.0867840
1568.58, 0.0867840
1569.05, 0.0869110
1569.53, 0.0870800
1570.0, 0.0870800
1570.48, 0.0869530
1570.96, 0.0866150
1571.43, 0.0867420
1571.91, 0.0869530
1572.39, 0.0870380
1572.86, 0.0871650
1573.34, 0.0872910
1573.82, 0.0872070
1574.3, 0.0873340
1574.77, 0.0873760
1575.25, 0.0873340
1575.73, 0.0872490
1576.21, 0.0871650
1576.69, 0.0872490
1577.17, 0.0874180
1577.65, 0.0874610
1578.13, 0.0875450
1578.61, 0.0876300
1579.09, 0.0874610
1579.57, 0.0875030
1580.05, 0.0877140
1580.54, 0.0875450
1581.02, 0.0875030
1581.5, 0.0874180
1581.98, 0.0875030
1582.47, 0.0875450
1582.95, 0.0875450
1583.43, 0.0875450
1583.92, 0.0877990
1584.4, 0.0877560
1584.88, 0.0876300
1585.37, 0.0877560
1585.85, 0.0877140
1586.34, 0.0877990
1586.82, 0.0877990
1587.31, 0.0877990
1587.8, 0.0879680
1588.28, 0.0879260
1588.77, 0.0879260
1589.26, 0.0879680
1589.74, 0.0880100
1590.23, 0.0881370
1590.72, 0.0880950
1591.21, 0.0880520
1591.7, 0.0882210
1592.19, 0.0883480
1592.67, 0.0882640
1593.16, 0.0882210
1593.65, 0.0880100
1594.14, 0.0879680
1594.63, 0.0882210
1595.12, 0.0882640
1595.61, 0.0883480
1596.11, 0.0884330
1596.6, 0.0882640
1597.09, 0.0881790
1597.58, 0.0882640
1598.08, 0.0883060
1598.57, 0.0883060
1599.06, 0.0882210
1599.55, 0.0880100
1600.05, 0.0880100
1600.54, 0.0882210
1601.04, 0.0883060
1601.53, 0.0883910
1602.03, 0.0884750
1602.52, 0.0885170
1603.02, 0.0885600
1603.51, 0.0884750
1604.01, 0.0884330
1604.5, 0.0885600
1605.0, 0.0886020
1605.5, 0.0888130
1606.0, 0.0887710
1606.49, 0.0887290
1606.99, 0.0887710
1607.49, 0.0889400
1607.99, 0.0889400
1608.49, 0.0889820
1608.99, 0.0889820
1609.49, 0.0889400
1609.99, 0.0889400
1610.49, 0.0890670
1610.99, 0.0893210
1611.49, 0.0893210
1611.99, 0.0891940
1612.49, 0.0891090
1612.99, 0.0891090
1613.49, 0.0891510
1614.0, 0.0893210
1614.5, 0.0893630
1615.0, 0.0892360
1615.51, 0.0893630
1616.01, 0.0895320
1616.51, 0.0895320
1617.02, 0.0895740
1617.52, 0.0896160
1618.03, 0.0896590
1618.53, 0.0896160
1619.04, 0.0894900
1619.54, 0.0896590
1620.05, 0.0896590
1620.55, 0.0894470
1621.06, 0.0895740
1621.57, 0.0897010
1622.08, 0.0897010
1622.58, 0.0898700
1623.09, 0.0899970
1623.6, 0.0899120
1624.11, 0.0899970
1624.62, 0.0901660
1625.13, 0.0901660
1625.64, 0.0901660
1626.15, 0.0899970
1626.66, 0.0899970
1627.17, 0.0901240
1627.68, 0.0902080
1628.19, 0.0902930
1628.7, 0.0903350
1629.21, 0.0904200
1629.72, 0.0903770
1630.24, 0.0902510
1630.75, 0.0901660
1631.26, 0.0902080
1631.78, 0.0903350
1632.29, 0.0901660
1632.8, 0.0901240
1633.32, 0.0903350
1633.83, 0.0903770
1634.35, 0.0904200
1634.86, 0.0905460
1635.38, 0.0905890
1635.9, 0.0905460
1636.41, 0.0904200
1636.93, 0.0904200
1637.45, 0.0906310
1637.96, 0.0907150
1638.48, 0.0907150
1639.0, 0.0907150
1639.52, 0.0908000
1640.04, 0.0907580
1640.56, 0.0905040
1641.08, 0.0903770
1641.59, 0.0906310
1642.11, 0.0909690
1642.63, 0.0908850
1643.16, 0.0909270
1643.68, 0.0909270
1644.2, 0.0910540
1644.72, 0.0911380
1645.24, 0.0910110
1645.76, 0.0909270
1646.29, 0.0908850
1646.81, 0.0910110
1647.33, 0.0911800
1647.86, 0.0911800
1648.38, 0.0910960
1648.9, 0.0910540
1649.43, 0.0910960
1649.95, 0.0910540
1650.48, 0.0909690
1651.0, 0.0910110
1651.53, 0.0911800
1652.06, 0.0913500
1652.58, 0.0912650
1653.11, 0.0914340
1653.64, 0.0916030
1654.17, 0.0915190
1654.69, 0.0913500
1655.22, 0.0913920
1655.75, 0.0914760
1656.28, 0.0915190
1656.81, 0.0915610
1657.34, 0.0915610
1657.87, 0.0916450
1658.4, 0.0916450
1658.93, 0.0915610
1659.46, 0.0916030
1659.99, 0.0916450
1660.52, 0.0917300
1661.05, 0.0917300
1661.59, 0.0916880
1662.12, 0.0916880
1662.65, 0.0916450
1663.19, 0.0916030
1663.72, 0.0916880
1664.26, 0.0916880
1664.79, 0.0915610
1665.32, 0.0916880
1665.86, 0.0917720
1666.39, 0.0919410
1666.93, 0.0918990
1667.47, 0.0918990
1668.0, 0.0919840
1668.54, 0.0921100
1669.08, 0.0922370
1669.61, 0.0922370
1670.15, 0.0922370
1670.69, 0.0922370
1671.23, 0.0919840
1671.77, 0.0919410
1672.31, 0.0921530
1672.85, 0.0922370
1673.39, 0.0922370
1673.93, 0.0922800
1674.47, 0.0922370
1675.01, 0.0921950
1675.55, 0.0921950
1676.09, 0.0921950
1676.64, 0.0922800
1677.18, 0.0923640
1677.72, 0.0923640
1678.26, 0.0924910
1678.81, 0.0925750
1679.35, 0.0925330
1679.89, 0.0924490
1680.44, 0.0924910
1680.98, 0.0924490
1681.53, 0.0924910
1682.07, 0.0925330
1682.62, 0.0926180
1683.17, 0.0927020
1683.71, 0.0928710
1684.26, 0.0927020
1684.81, 0.0927020
1685.36, 0.0929560
1685.9, 0.0929980
1686.45, 0.0929980
1687.0, 0.0931250
1687.55, 0.0931670
1688.1, 0.0930830
1688.65, 0.0929980
1689.2, 0.0931670
1689.75, 0.0931670
1690.3, 0.0932520
1690.85, 0.0931670
1691.41, 0.0929560
1691.96, 0.0931250
1692.51, 0.0932520
1693.06, 0.0931670
1693.61, 0.0933360
1694.17, 0.0934630
1694.72, 0.0932940
1695.28, 0.0932100
1695.83, 0.0932520
1696.39, 0.0932520
1696.94, 0.0933790
1697.5, 0.0934630
1698.05, 0.0935050
1698.61, 0.0935050
1699.17, 0.0934210
1699.72, 0.0934630
1700.28, 0.0935050
1700.84, 0.0933360
1701.4, 0.0932940
1701.95, 0.0933790
1702.51, 0.0935900
1703.07, 0.0937170
1703.63, 0.0937590
1704.19, 0.0939280
1704.75, 0.0939280
1705.31, 0.0936320
1705.88, 0.0937170
1706.44, 0.0938440
1707.0, 0.0938860
1707.56, 0.0939700
1708.12, 0.0938440
1708.69, 0.0937170
1709.25, 0.0937170
1709.81, 0.0938010
1710.38, 0.0938440
1710.94, 0.0940130
1711.51, 0.0939700
1712.07, 0.0939280
1712.64, 0.0940550
1713.2, 0.0941400
1713.77, 0.0941400
1714.34, 0.0940970
1714.9, 0.0939280
1715.47, 0.0938860
1716.04, 0.0940970
1716.61, 0.0940550
1717.18, 0.0940130
1717.74, 0.0940550
1718.31, 0.0941820
1718.88, 0.0942240
1719.45, 0.0940970
1720.02, 0.0940550
1720.59, 0.0941820
1721.17, 0.0941400
1721.74, 0.0940550
1722.31, 0.0941820
1722.88, 0.0941820
1723.45, 0.0941400
1724.03, 0.0942660
1724.6, 0.0942240
1725.18, 0.0941400
1725.75, 0.0942240
1726.33, 0.0943930
1726.9, 0.0943930
1727.48, 0.0943930
1728.05, 0.0943930
1728.63, 0.0943930
1729.2, 0.0944780
1729.78, 0.0945620
1730.36, 0.0944780
1730.94, 0.0944350
1731.51, 0.0943930
1732.09, 0.0943090
1732.67, 0.0943510
1733.25, 0.0943930
1733.83, 0.0945620
1734.41, 0.0946470
1734.99, 0.0945200
1735.57, 0.0946050
1736.15, 0.0945620
1736.73, 0.0944780
1737.32, 0.0945620
1737.9, 0.0945200
1738.48, 0.0946470
1739.07, 0.0948580
1739.65, 0.0948160
1740.23, 0.0946470
1740.82, 0.0947310
1741.4, 0.0950270
1741.99, 0.0949000
1742.57, 0.0946890
1743.16, 0.0948160
1743.74, 0.0948160
1744.33, 0.0947310
1744.92, 0.0948160
1745.51, 0.0949850
1746.09, 0.0950700
1746.68, 0.0950270
1747.27, 0.0950700
1747.86, 0.0951120
1748.45, 0.0950270
1749.04, 0.0950270
1749.63, 0.0950700
1750.22, 0.0949430
1750.81, 0.0949000
1751.4, 0.0951120
1751.99, 0.0952810
1752.59, 0.0952390
1753.18, 0.0953230
1753.77, 0.0952390
1754.37, 0.0952390
1754.96, 0.0951960
1755.56, 0.0951960
1756.15, 0.0951960
1756.74, 0.0952810
1757.34, 0.0952390
1757.94, 0.0954080
1758.53, 0.0954500
1759.13, 0.0954920
1759.73, 0.0955340
1760.32, 0.0954080
1760.92, 0.0953650
1761.52, 0.0953650
1762.12, 0.0952390
1762.72, 0.0955340
1763.32, 0.0957460
1763.92, 0.0958300
1764.52, 0.0958730
1765.12, 0.0958300
1765.72, 0.0956610
1766.32, 0.0956610
1766.92, 0.0957040
1767.53, 0.0957040
1768.13, 0.0957880
1768.73, 0.0958300
1769.34, 0.0958300
1769.94, 0.0958730
1770.55, 0.0959150
1771.15, 0.0958730
1771.76, 0.0958730
1772.36, 0.0958300
1772.97, 0.0958730
1773.57, 0.0959990
1774.18, 0.0959150
1774.79, 0.0958730
1775.4, 0.0959570
1776.0, 0.0959150
1776.61, 0.0959150
1777.22, 0.0960420
1777.83, 0.0960840
1778.44, 0.0959990
1779.05, 0.0960420
1779.66, 0.0961690
1780.27, 0.0960420
1780.88, 0.0959990
1781.5, 0.0961690
1782.11, 0.0960840
1782.72, 0.0959570
1783.33, 0.0960420
1783.95, 0.0960420
1784.56, 0.0959990
1785.18, 0.0961260
1785.79, 0.0962530
1786.41, 0.0961260
1787.02, 0.0960840
1787.64, 0.0962110
1788.26, 0.0962950
1788.87, 0.0962950
1789.49, 0.0962110
1790.11, 0.0962110
1790.73, 0.0962110
1791.35, 0.0962110
1791.96, 0.0962530
1792.58, 0.0963380
1793.21, 0.0962110
1793.83, 0.0961690
1794.45, 0.0962110
1795.07, 0.0962950
1795.69, 0.0964220
1796.31, 0.0963800
1796.93, 0.0963380
1797.56, 0.0962530
1798.18, 0.0963800
1798.8, 0.0965070
1799.43, 0.0962950
1800.05, 0.0961260
1800.68, 0.0962530
1801.3, 0.0962950
1801.93, 0.0963380
1802.56, 0.0962530
1803.18, 0.0963800
1803.81, 0.0965490
1804.44, 0.0966340
1805.07, 0.0967600
1805.7, 0.0966340
1806.33, 0.0963380
1806.95, 0.0963380
1807.58, 0.0964640
1808.22, 0.0965070
1808.85, 0.0964220
1809.48, 0.0963800
1810.11, 0.0965490
1810.74, 0.0966340
1811.38, 0.0965490
1812.01, 0.0965490
1812.64, 0.0966340
1813.28, 0.0966340
1813.91, 0.0966760
1814.55, 0.0966340
1815.18, 0.0965910
1815.82, 0.0965910
1816.45, 0.0966340
1817.09, 0.0966760
1817.73, 0.0966760
1818.36, 0.0966340
1819.0, 0.0965490
1819.64, 0.0965910
1820.28, 0.0967180
1820.92, 0.0968030
1821.56, 0.0967180
1822.2, 0.0965490
1822.84, 0.0965910
1823.48, 0.0968030
1824.12, 0.0969290
1824.76, 0.0968030
1825.41, 0.0967180
1826.05, 0.0968450
1826.69, 0.0968030
1827.34, 0.0967180
1827.98, 0.0967600
1828.63, 0.0968450
1829.27, 0.0968870
1829.92, 0.0969720
1830.56, 0.0968870
1831.21, 0.0968450
1831.86, 0.0970560
1832.5, 0.0971830
1833.15, 0.0971830
1833.8, 0.0971830
1834.45, 0.0971830
1835.1, 0.0973100
1835.75, 0.0972680
1836.4, 0.0971830
1837.05, 0.0971410
1837.7, 0.0970990
1838.35, 0.0970140
1839.01, 0.0970990
1839.66, 0.0971410
1840.31, 0.0971830
1840.96, 0.0971830
1841.62, 0.0973100
1842.27, 0.0974370
1842.93, 0.0974790
1843.58, 0.0973940
1844.24, 0.0975210
1844.9, 0.0974790
1845.55, 0.0973940
1846.21, 0.0974370
1846.87, 0.0973940
1847.53, 0.0974790
1848.18, 0.0976060
1848.84, 0.0976480
1849.5, 0.0976060
1850.16, 0.0975640
1850.82, 0.0976060
1851.48, 0.0976480
1852.14, 0.0977330
1852.81, 0.0976900
1853.47, 0.0976480
1854.13, 0.0977330
1854.8, 0.0978170
1855.46, 0.0979020
1856.12, 0.0979020
1856.79, 0.0977750
1857.45, 0.0978590
1858.12, 0.0980710
1858.79, 0.0978590
1859.45, 0.0977330
1860.12, 0.0979020
1860.79, 0.0979860
1861.46, 0.0979860
1862.12, 0.0980290
1862.79, 0.0981130
1863.46, 0.0979860
1864.13, 0.0978590
1864.8, 0.0979440
1865.48, 0.0980710
1866.15, 0.0980710
1866.82, 0.0980290
1867.49, 0.0979440
1868.16, 0.0979020
1868.84, 0.0980710
1869.51, 0.0980290
1870.19, 0.0978590
1870.86, 0.0978170
1871.54, 0.0979020
1872.21, 0.0978590
1872.89, 0.0978590
1873.56, 0.0978170
1874.24, 0.0977750
1874.92, 0.0979020
1875.6, 0.0980290
1876.28, 0.0980290
1876.96, 0.0980290
1877.64, 0.0979440
1878.32, 0.0979440
1879.0, 0.0978590
1879.68, 0.0978170
1880.36, 0.0979440
1881.04, 0.0979440
1881.73, 0.0979440
1882.41, 0.0979440
1883.09, 0.0979020
1883.78, 0.0977330
1884.46, 0.0978170
1885.15, 0.0979020
1885.83, 0.0980290
1886.52, 0.0980290
1887.21, 0.0979860
1887.89, 0.0978170
1888.58, 0.0978590
1889.27, 0.0978590
1889.96, 0.0979020
1890.65, 0.0978590
1891.34, 0.0978170
1892.03, 0.0977750
1892.72, 0.0977330
1893.41, 0.0976480
1894.1, 0.0977330
1894.79, 0.0979440
1895.49, 0.0980290
1896.18, 0.0979440
1896.87, 0.0978590
1897.57, 0.0979020
1898.26, 0.0978170
1898.96, 0.0976480
1899.65, 0.0976060
1900.35, 0.0977750
1901.05, 0.0979440
1901.74, 0.0979020
1902.44, 0.0978170
1903.14, 0.0977330
1903.84, 0.0978590
1904.54, 0.0978170
1905.24, 0.0976900
1905.94, 0.0976900
1906.64, 0.0978170
1907.34, 0.0978170
1908.04, 0.0976900
1908.75, 0.0976900
1909.45, 0.0977750
1910.15, 0.0978170
1910.86, 0.0979020
1911.56, 0.0978590
1912.27, 0.0976900
1912.97, 0.0976060
1913.68, 0.0977750
1914.39, 0.0979020
1915.09, 0.0978590
1915.8, 0.0979020
1916.51, 0.0980710
1917.22, 0.0981130
1917.93, 0.0982400
1918.64, 0.0981980
1919.35, 0.0980710
1920.06, 0.0980710
1920.77, 0.0981550
1921.48, 0.0981130
1922.19, 0.0980290
1922.91, 0.0981130
1923.62, 0.0981130
1924.33, 0.0981130
1925.05, 0.0981550
1925.76, 0.0982400
1926.48, 0.0983240
1927.19, 0.0982820
1927.91, 0.0982400
1928.63, 0.0983240
1929.35, 0.0984510
1930.07, 0.0982820
1930.78, 0.0981980
1931.5, 0.0982820
1932.22, 0.0983670
1932.94, 0.0983670
1933.66, 0.0982820
1934.39, 0.0984940
1935.11, 0.0985360
1935.83, 0.0984090
1936.55, 0.0985780
1937.28, 0.0985780
1938.0, 0.0984940
1938.73, 0.0985360
1939.45, 0.0985780
1940.18, 0.0986200
1940.9, 0.0986200
1941.63, 0.0985360
1942.36, 0.0986630
1943.09, 0.0987890
1943.81, 0.0987470
1944.54, 0.0986200
1945.27, 0.0986200
1946.0, 0.0986630
1946.73, 0.0986200
1947.47, 0.0986200
1948.2, 0.0987050
1948.93, 0.0988740
1949.66, 0.0990010
1950.4, 0.0990430
1951.13, 0.0989590
1951.86, 0.0989160
1952.6, 0.0990010
1953.34, 0.0990010
1954.07, 0.0988740
1954.81, 0.0988320
1955.55, 0.0988320
1956.29, 0.0989160
1957.02, 0.0987890
1957.76, 0.0987470
1958.5, 0.0989160
1959.24, 0.0991280
1959.98, 0.0990850
1960.72, 0.0989160
1961.47, 0.0989160
1962.21, 0.0990850
1962.95, 0.0991280
1963.7, 0.0990430
1964.44, 0.0990430
1965.18, 0.0990010
1965.93, 0.0988740
1966.67, 0.0988320
1967.42, 0.0987470
1968.17, 0.0989160
1968.92, 0.0990430
1969.66, 0.0990430
1970.41, 0.0990010
1971.16, 0.0989160
1971.91, 0.0990010
1972.66, 0.0990010
1973.41, 0.0989590
1974.16, 0.0989590
1974.92, 0.0991280
1975.67, 0.0992120
1976.42, 0.0990850
1977.18, 0.0989160
1977.93, 0.0989590
1978.69, 0.0989590
1979.44, 0.0990010
1980.2, 0.0990850
1980.95, 0.0991280
1981.71, 0.0989590
1982.47, 0.0989160
1983.23, 0.0990430
1983.99, 0.0990430
1984.74, 0.0989160
1985.51, 0.0990010
1986.27, 0.0990850
1987.03, 0.0990430
1987.79, 0.0990430
1988.55, 0.0991700
1989.32, 0.0990850
1990.08, 0.0990010
1990.84, 0.0990010
1991.61, 0.0989590
1992.37, 0.0990010
1993.14, 0.0990010
1993.9, 0.0990430
1994.67, 0.0990850
1995.44, 0.0991700
1996.21, 0.0992120
1996.98, 0.0992120
1997.75, 0.0990010
1998.52, 0.0990430
1999.29, 0.0992120
2000.06, 0.0992120
2000.83, 0.0990850
2001.6, 0.0990010
2002.38, 0.0990010
2003.15, 0.0990010
2003.93, 0.0990010
2004.7, 0.0991280
2005.48, 0.0993390
2006.25, 0.0992970
2007.03, 0.0992120
2007.81, 0.0993390
2008.58, 0.0995080
2009.36, 0.0994240
2010.14, 0.0992970
2010.92, 0.0992970
2011.7, 0.0993390
2012.48, 0.0992540
2013.26, 0.0992970
2014.05, 0.0994240
2014.83, 0.0996350
2015.61, 0.0996350
2016.4, 0.0995930
2017.18, 0.0995930
2017.97, 0.0995500
2018.75, 0.0995930
2019.54, 0.0997620
2020.32, 0.0997190
2021.11, 0.0996770
2021.9, 0.0998460
2022.69, 0.0998460
2023.48, 0.0998460
2024.27, 0.0999730
2025.06, 0.0999730
2025.85, 0.100015
2026.64, 0.0999730
2027.44, 0.0999310
2028.23, 0.100058
2029.02, 0.100227
2029.82, 0.100142
2030.61, 0.0999730
2031.41, 0.100058
2032.2, 0.100142
2033.0, 0.100227
2033.8, 0.100438
2034.6, 0.100480
2035.4, 0.100396
2036.2, 0.100311
2037.0, 0.100396
2037.8, 0.100311
2038.6, 0.100311
2039.4, 0.100311
2040.2, 0.100311
2041.01, 0.100311
2041.81, 0.100396
2042.61, 0.100438
2043.42, 0.100353
2044.22, 0.100353
2045.03, 0.100353
2045.84, 0.100269
2046.65, 0.100353
2047.46, 0.100523
2048.26, 0.100523
2049.07, 0.100523
2049.88, 0.100565
2050.69, 0.100480
2051.51, 0.100565
2052.32, 0.100607
2053.13, 0.100692
2053.94, 0.100649
2054.76, 0.100523
2055.57, 0.100396
2056.39, 0.100438
2057.2, 0.100607
2058.02, 0.100776
2058.84, 0.100692
2059.66, 0.100692
2060.48, 0.100692
2061.29, 0.100565
2062.11, 0.100649
2062.94, 0.100692
2063.76, 0.100649
2064.58, 0.100692
2065.4, 0.100776
2066.22, 0.100776
2067.05, 0.100734
2067.87, 0.100692
2068.7, 0.100692
2069.52, 0.100734
2070.35, 0.100649
2071.18, 0.100565
2072.0, 0.100523
2072.83, 0.100607
2073.66, 0.100607
2074.49, 0.100649
2075.32, 0.100649
2076.15, 0.100649
2076.98, 0.100480
2077.82, 0.100565
2078.65, 0.100523
2079.48, 0.100438
2080.32, 0.100480
2081.15, 0.100649
2081.99, 0.100649
2082.83, 0.100607
2083.66, 0.100565
2084.5, 0.100523
2085.34, 0.100649
2086.18, 0.100692
2087.02, 0.100776
2087.86, 0.100734
2088.7, 0.100565
2089.54, 0.100396
2090.39, 0.100311
2091.23, 0.100438
2092.07, 0.100607
2092.92, 0.100649
2093.76, 0.100523
2094.61, 0.100438
2095.45, 0.100523
2096.3, 0.100565
2097.15, 0.100649
2098.0, 0.100692
2098.85, 0.100692
2099.7, 0.100649
2100.55, 0.100734
2101.4, 0.100734
2102.25, 0.100565
2103.1, 0.100438
2103.96, 0.100480
2104.81, 0.100565
2105.67, 0.100734
2106.52, 0.100861
2107.38, 0.100776
2108.24, 0.100734
2109.09, 0.100776
2109.95, 0.100818
2110.81, 0.100818
2111.67, 0.100903
2112.53, 0.100945
2113.39, 0.100903
2114.25, 0.100903
2115.12, 0.100988
2115.98, 0.100988
2116.84, 0.100988
2117.71, 0.100988
2118.58, 0.100945
2119.44, 0.100988
2120.31, 0.101030
2121.18, 0.101157
2122.04, 0.101114
2122.91, 0.101072
2123.78, 0.101199
2124.65, 0.101241
2125.52, 0.101241
2126.4, 0.101199
2127.27, 0.101241
2128.14, 0.101410
2129.02, 0.101537
2129.89, 0.101537
2130.77, 0.101410
2131.64, 0.101495
2132.52, 0.101495
2133.4, 0.101495
2134.27, 0.101622
2135.15, 0.101748
2136.03, 0.101664
2136.91, 0.101622
2137.79, 0.101622
2138.68, 0.101579
2139.56, 0.101622
2140.44, 0.101791
2141.33, 0.101918
2142.21, 0.101875
2143.1, 0.101918
2143.99, 0.102044
2144.87, 0.102087
2145.76, 0.102044
2146.65, 0.102044
2147.54, 0.102129
2148.43, 0.102087
2149.32, 0.102002
2150.21, 0.102087
2151.1, 0.102087
2151.99, 0.102129
2152.89, 0.102171
2153.78, 0.102256
2154.68, 0.102213
2155.57, 0.102129
2156.47, 0.102213
2157.37, 0.102298
2158.27, 0.102298
2159.16, 0.102383
2160.06, 0.102509
2160.96, 0.102383
2161.86, 0.102298
2162.77, 0.102383
2163.67, 0.102340
2164.57, 0.102298
2165.48, 0.102383
2166.38, 0.102298
2167.29, 0.102298
2168.2, 0.102425
2169.1, 0.102509
2170.01, 0.102467
2170.92, 0.102467
2171.83, 0.102552
2172.74, 0.102509
2173.65, 0.102425
2174.56, 0.102509
2175.47, 0.102467
2176.39, 0.102425
2177.3, 0.102425
2178.22, 0.102425
2179.13, 0.102509
2180.05, 0.102636
2180.96, 0.102552
2181.88, 0.102340
2182.8, 0.102383
2183.72, 0.102425
2184.64, 0.102383
2185.56, 0.102425
2186.48, 0.102509
2187.41, 0.102509
2188.33, 0.102425
2189.25, 0.102383
2190.18, 0.102467
2191.1, 0.102425
2192.03, 0.102425
2192.96, 0.102467
2193.89, 0.102467
2194.82, 0.102425
2195.74, 0.102383
2196.68, 0.102383
2197.61, 0.102467
2198.54, 0.102425
2199.47, 0.102340
2200.4, 0.102340
2201.34, 0.102383
2202.28, 0.102340
2203.21, 0.102298
2204.15, 0.102383
2205.08, 0.102383
2206.02, 0.102256
2206.96, 0.102256
2207.9, 0.102171
2208.84, 0.102171
2209.78, 0.102298
2210.73, 0.102213
2211.67, 0.102002
2212.61, 0.102044
2213.56, 0.102129
2214.5, 0.102256
2215.45, 0.102383
2216.4, 0.102383
2217.35, 0.102129
2218.3, 0.102087
2219.24, 0.102298
2220.2, 0.102383
2221.15, 0.102298
2222.1, 0.102213
2223.05, 0.102298
2224.0, 0.102298
2224.96, 0.102298
2225.91, 0.102298
2226.87, 0.102256
2227.83, 0.102213
2228.79, 0.102213
2229.74, 0.102256
2230.7, 0.102298
2231.66, 0.102256
2232.63, 0.102213
2233.59, 0.102298
2234.55, 0.102256
2235.51, 0.102213
2236.48, 0.102256
2237.44, 0.102340
2238.41, 0.102298
2239.38, 0.102425
2240.34, 0.102594
2241.31, 0.102594
2242.28, 0.102552
2243.25, 0.102594
2244.22, 0.102721
2245.19, 0.102721
2246.17, 0.102763
2247.14, 0.102848
2248.12, 0.102763
2249.09, 0.102678
2250.07, 0.102721
2251.04, 0.102721
2252.02, 0.102721
2253.0, 0.102805
2253.98, 0.102932
2254.96, 0.102848
2255.94, 0.102763
2256.92, 0.102805
2257.91, 0.102890
2258.89, 0.102890
2259.88, 0.102932
2260.86, 0.103017
2261.85, 0.103017
2262.83, 0.102932
2263.82, 0.102932
2264.81, 0.103017
2265.8, 0.103143
2266.79, 0.103186
2267.78, 0.103186
2268.78, 0.103186
2269.77, 0.103143
2270.76, 0.103059
2271.76, 0.103186
2272.75, 0.103270
2273.75, 0.103143
2274.75, 0.103101
2275.75, 0.103270
2276.75, 0.103270
2277.75, 0.103313
2278.75, 0.103270
2279.75, 0.103313
2280.75, 0.103313
2281.76, 0.103270
2282.76, 0.103228
2283.77, 0.103313
2284.77, 0.103186
2285.78, 0.103017
2286.79, 0.103101
2287.8, 0.103186
2288.81, 0.103143
2289.82, 0.103143
2290.83, 0.103143
2291.84, 0.103228
2292.86, 0.103228
2293.87, 0.103143
2294.89, 0.103186
2295.91, 0.103228
2296.92, 0.103143
2297.94, 0.103101
2298.96, 0.103186
2299.98, 0.102944
2301.0, 0.103266
2302.02, 0.103220
2303.04, 0.102898
2304.07, 0.102668
2305.09, 0.102852
2306.12, 0.102898
2307.15, 0.102622
2308.17, 0.102668
2309.2, 0.102622
2310.23, 0.102530
2311.26, 0.102438
2312.29, 0.102484
2313.32, 0.102852
2314.35, 0.102806
2315.39, 0.102484
2316.42, 0.102438
2317.46, 0.102530
2318.5, 0.102714
2319.53, 0.102622
2320.57, 0.102530
2321.61, 0.102530
2322.65, 0.102576
2323.69, 0.102806
2324.73, 0.102668
2325.78, 0.102714
2326.82, 0.102760
2327.86, 0.102760
2328.91, 0.102852
2329.96, 0.102898
2331.01, 0.102760
2332.05, 0.102668
2333.1, 0.102852
2334.15, 0.102990
2335.21, 0.102990
2336.26, 0.103220
2337.31, 0.103496
2338.36, 0.103220
2339.42, 0.103128
2340.48, 0.103036
2341.53, 0.102806
2342.59, 0.102898
2343.65, 0.103174
2344.71, 0.103220
2345.77, 0.103174
2346.83, 0.103082
2347.9, 0.102852
2348.96, 0.103174
2350.02, 0.103404
2351.09, 0.103266
2352.16, 0.103358
2353.23, 0.103404
2354.29, 0.103128
2355.36, 0.102944
2356.43, 0.103266
2357.51, 0.103450
2358.58, 0.103358
2359.65, 0.103312
2360.73, 0.103312
2361.8, 0.103496
2362.88, 0.103496
2363.96, 0.103128
2365.03, 0.102898
2366.11, 0.102944
2367.19, 0.102806
2368.27, 0.102714
2369.36, 0.102852
2370.44, 0.102990
2371.53, 0.103128
2372.61, 0.103082
2373.7, 0.103174
2374.78, 0.103128
2375.87, 0.103082
2376.96, 0.103128
2378.05, 0.103128
2379.14, 0.103082
2380.24, 0.102944
2381.33, 0.103082
2382.42, 0.103404
2383.52, 0.103312
2384.61, 0.103174
2385.71, 0.103036
2386.81, 0.103220
2387.91, 0.103358
2389.01, 0.103450
2390.11, 0.103266
2391.22, 0.103082
2392.32, 0.102898
2393.42, 0.102806
2394.53, 0.103036
2395.64, 0.103220
2396.74, 0.103220
2397.85, 0.103266
2398.96, 0.103496
2400.07, 0.103634
2401.18, 0.103726
2402.3, 0.103634
2403.41, 0.103450
2404.52, 0.103496
2405.64, 0.103772
2406.76, 0.103772
2407.88, 0.103818
2408.99, 0.103726
2410.11, 0.103726
2411.23, 0.103818
2412.36, 0.103818
2413.48, 0.103956
2414.6, 0.103956
2415.73, 0.103864
2416.85, 0.104048
2417.98, 0.104233
2419.11, 0.104187
2420.24, 0.104187
2421.37, 0.104187
2422.5, 0.104279
2423.64, 0.104141
2424.77, 0.104048
2425.9, 0.104141
2427.04, 0.103956
2428.18, 0.103864
2429.31, 0.103910
2430.45, 0.104233
2431.59, 0.104463
2432.73, 0.104187
2433.88, 0.104141
2435.02, 0.104279
2436.16, 0.104325
2437.31, 0.104509
2438.45, 0.104647
2439.6, 0.104509
2440.75, 0.104371
2441.9, 0.104279
2443.05, 0.104279
2444.2, 0.104417
2445.35, 0.104325
2446.51, 0.104417
2447.67, 0.104417
2448.82, 0.104463
2449.98, 0.104601
2451.14, 0.104555
2452.3, 0.104279
2453.46, 0.104233
2454.62, 0.104417
2455.78, 0.104555
2456.94, 0.104371
2458.11, 0.104233
2459.28, 0.104187
2460.44, 0.104141
2461.61, 0.104187
2462.78, 0.104371
2463.95, 0.104463
2465.12, 0.104371
2466.3, 0.104463
2467.47, 0.104509
2468.65, 0.104279
2469.82, 0.104463
2471.0, 0.104555
2472.18, 0.104417
2473.36, 0.104371
2474.54, 0.104463
2475.72, 0.104279
2476.9, 0.104187
2478.08, 0.104463
2479.27, 0.104647
2480.46, 0.104509
2481.64, 0.104555
2482.83, 0.104601
2484.02, 0.104601
2485.21, 0.104647
2486.4, 0.104601
2487.6, 0.104417
2488.79, 0.104233
2489.99, 0.104187
2491.18, 0.104463
2492.38, 0.104555
2493.58, 0.104555
2494.78, 0.104601
2495.98, 0.104647
2497.18, 0.104785
2498.39, 0.104785
2499.59, 0.104601
2500.8, 0.104463
2502.01, 0.104371
2503.21, 0.104601
2504.42, 0.104785
2505.63, 0.104601
2506.84, 0.104417
2508.06, 0.104417
2509.27, 0.104233
2510.49, 0.104233
2511.7, 0.104325
2512.92, 0.104279
2514.14, 0.104233
2515.36, 0.104325
2516.58, 0.104371
2517.8, 0.104325
2519.03, 0.104509
2520.25, 0.104647
2521.48, 0.104555
2522.7, 0.104601
2523.93, 0.104877
2525.16, 0.104969
2526.39, 0.104785
2527.62, 0.104555
2528.86, 0.104509
2530.09, 0.104555
2531.33, 0.104371
2532.56, 0.104555
2533.8, 0.104739
2535.04, 0.104969
2536.28, 0.105199
2537.52, 0.104969
2538.76, 0.104831
2540.01, 0.104877
2541.25, 0.104877
2542.5, 0.105199
2543.75, 0.105337
2544.99, 0.105107
2546.24, 0.105107
2547.49, 0.105153
2548.75, 0.105153
2550.0, 0.105153
2551.26, 0.105291
2552.51, 0.105475
2553.77, 0.105567
2555.03, 0.105475
2556.29, 0.105383
2557.55, 0.105153
2558.81, 0.104969
2560.08, 0.105291
2561.34, 0.105843
2562.61, 0.106027
2563.88, 0.105889
2565.14, 0.105521
2566.41, 0.105383
2567.68, 0.105429
2568.96, 0.105567
2570.23, 0.105705
2571.51, 0.105567
2572.78, 0.105751
2574.06, 0.106073
2575.34, 0.105889
2576.62, 0.105843
2577.9, 0.105797
2579.18, 0.105705
2580.47, 0.105843
2581.75, 0.105751
2583.04, 0.105889
2584.32, 0.106211
2585.61, 0.105705
2586.9, 0.105889
2588.2, 0.106165
2589.49, 0.106165
2590.78, 0.105889
2592.08, 0.105521
2593.37, 0.105843
2594.67, 0.106856
2595.97, 0.106626
2597.27, 0.105797
2598.57, 0.105751
2599.88, 0.105751
2601.18, 0.105797
2602.49, 0.105843
2603.79, 0.105935
2605.1, 0.106211
2606.41, 0.106349
2607.72, 0.106165
2609.03, 0.106165
2610.35, 0.106027
2611.66, 0.105797
2612.98, 0.105843
2614.3, 0.105751
2615.62, 0.105797
2616.94, 0.105981
2618.26, 0.105659
2619.58, 0.105889
2620.91, 0.106303
2622.23, 0.105843
2623.56, 0.105751
2624.89, 0.105705
2626.22, 0.105889
2627.55, 0.105981
2628.88, 0.105889
2630.21, 0.106211
2631.55, 0.106165
2632.89, 0.105935
2634.22, 0.106073
2635.56, 0.105981
2636.9, 0.106027
2638.25, 0.106027
2639.59, 0.105889
2640.93, 0.105843
2642.28, 0.105981
2643.63, 0.105843
2644.98, 0.105843
2646.33, 0.105981
2647.68, 0.105935
2649.03, 0.105797
2650.39, 0.105521
2651.74, 0.105475
2653.1, 0.105613
2654.46, 0.105521
2655.82, 0.105613
2657.18, 0.105429
2658.54, 0.105521
2659.9, 0.105797
2661.27, 0.105843
2662.64, 0.105705
2664.01, 0.105843
2665.38, 0.106303
2666.74, 0.106303
2668.12, 0.105889
2669.49, 0.105935
2670.87, 0.106533
2672.24, 0.105659
2673.62, 0.105245
2675.0, 0.105337
2676.38, 0.105567
2677.76, 0.105337
2679.15, 0.105107
2680.54, 0.104923
2681.92, 0.104509
2683.31, 0.104417
2684.7, 0.104233
2686.09, 0.104048
2687.48, 0.103910
2688.88, 0.103726
2690.27, 0.103542
2691.67, 0.103496
2693.07, 0.103726
2694.47, 0.103726
2695.87, 0.103358
2697.27, 0.103036
2698.67, 0.102898
2700.08, 0.103128
2701.49, 0.103036
2702.9, 0.102622
2704.31, 0.102438
2705.72, 0.102438
2707.13, 0.102116
2708.54, 0.101932
2709.96, 0.101886
2711.38, 0.101886
2712.8, 0.101057
2714.22, 0.100321
2715.64, 0.0996310
2717.06, 0.0988940
2718.49, 0.0982960
2719.91, 0.0985260
2721.34, 0.0989860
2722.77, 0.0986180
2724.2, 0.0989860
2725.63, 0.0989860
2727.07, 0.0983880
2728.5, 0.0976520
2729.94, 0.0970080
2731.38, 0.0966850
2732.82, 0.0966850
2734.26, 0.0970540
2735.7, 0.0971000
2737.15, 0.0966390
2738.59, 0.0965930
2740.04, 0.0968700
2741.49, 0.0965470
2742.94, 0.0956730
2744.39, 0.0950290
2745.84, 0.0948450
2747.3, 0.0944770
2748.76, 0.0942000
2750.21, 0.0938780
2751.67, 0.0936020
2753.14, 0.0932340
2754.6, 0.0930960
2756.06, 0.0931420
2757.53, 0.0924520
2759.0, 0.0917150
2760.46, 0.0911630
2761.94, 0.0909790
2763.41, 0.0906570
2764.88, 0.0900130
2766.36, 0.0895530
2767.83, 0.0891840
2769.31, 0.0885860
2770.79, 0.0881260
2772.27, 0.0875280
2773.76, 0.0868830
2775.24, 0.0864230
2776.73, 0.0861010
2778.22, 0.0856870
2779.71, 0.0850890
2781.2, 0.0845830
2782.69, 0.0840760
2784.18, 0.0835700
2785.68, 0.0831560
2787.18, 0.0828800
2788.68, 0.0824200
2790.18, 0.0817750
2791.68, 0.0811770
2793.19, 0.0805790
2794.69, 0.0801650
2796.2, 0.0798430
2797.71, 0.0793820
2799.22, 0.0788760
2800.73, 0.0784620
2802.24, 0.0780020
2803.76, 0.0776800
2805.28, 0.0772200
2806.8, 0.0768050
2808.32, 0.0764830
2809.84, 0.0759310
2811.36, 0.0753790
2812.89, 0.0750570
2814.42, 0.0747350
2815.94, 0.0744120
2817.48, 0.0739520
2819.01, 0.0736300
2820.54, 0.0734000
2822.08, 0.0730780
2823.61, 0.0725720
2825.15, 0.0721570
2826.69, 0.0718350
2828.23, 0.0714670
2829.78, 0.0710530
2831.32, 0.0707310
2832.87, 0.0704090
2834.42, 0.0700410
2835.97, 0.0695340
2837.52, 0.0692120
2839.08, 0.0690280
2840.63, 0.0687520
2842.19, 0.0683380
2843.75, 0.0681080
2845.31, 0.0679700
2846.87, 0.0676480
2848.44, 0.0672790
2850.0, 0.0670030
2851.57, 0.0666350
2853.14, 0.0663590
2854.71, 0.0661750
2856.28, 0.0658990
2857.86, 0.0655770
2859.43, 0.0653010
2861.01, 0.0651630
2862.59, 0.0649330
2864.17, 0.0645640
2865.76, 0.0643340
2867.34, 0.0641500
2868.93, 0.0637820
2870.52, 0.0635060
2872.11, 0.0634600
2873.7, 0.0632760
2875.29, 0.0629080
2876.89, 0.0627700
2878.49, 0.0625400
2880.08, 0.0622630
2881.69, 0.0620330
2883.29, 0.0618490
2884.89, 0.0617110
2886.5, 0.0614350
2888.11, 0.0612970
2889.72, 0.0612050
2891.33, 0.0609750
2892.94, 0.0608370
2894.56, 0.0607450
2896.17, 0.0604230
2897.79, 0.0601010
2899.42, 0.0601010
2901.04, 0.0600550
2902.66, 0.0598700
2904.29, 0.0596400
2905.92, 0.0595020
2907.55, 0.0594100
2909.18, 0.0593640
2910.81, 0.0591800
2912.45, 0.0590420
2914.08, 0.0589500
2915.72, 0.0588580
2917.36, 0.0587200
2919.01, 0.0585360
2920.65, 0.0584900
2922.3, 0.0583980
2923.94, 0.0582140
2925.59, 0.0580760
2927.25, 0.0580300
2928.9, 0.0579840
2930.56, 0.0579380
2932.21, 0.0577080
2933.87, 0.0574310
2935.53, 0.0574310
2937.2, 0.0574770
2938.86, 0.0573390
2940.53, 0.0571090
2942.2, 0.0570630
2943.87, 0.0571090
2945.54, 0.0570630
2947.22, 0.0570170
2948.89, 0.0568790
2950.57, 0.0567870
2952.25, 0.0566950
2953.93, 0.0565570
2955.62, 0.0564190
2957.3, 0.0564190
2958.99, 0.0564650
2960.68, 0.0565110
2962.37, 0.0563270
2964.07, 0.0561430
2965.76, 0.0559590
2967.46, 0.0558210
2969.16, 0.0558210
2970.86, 0.0558670
2972.56, 0.0557750
2974.27, 0.0556830
2975.98, 0.0556830
2977.69, 0.0555910
2979.4, 0.0554990
2981.11, 0.0554070
2982.83, 0.0553150
2984.54, 0.0552690
2986.26, 0.0552690
2987.98, 0.0550840
2989.71, 0.0548080
2991.43, 0.0549000
2993.16, 0.0550380
2994.89, 0.0550380
2996.62, 0.0549000
2998.35, 0.0548080
3000.09, 0.0546700
3001.83, 0.0546240
3003.57, 0.0547160
3005.31, 0.0545780
3007.05, 0.0544400
3008.79, 0.0545320
3010.54, 0.0545320
3012.29, 0.0543020
3014.04, 0.0541640
3015.8, 0.0542100
3017.55, 0.0540260
3019.31, 0.0539340
3021.07, 0.0540260
3022.83, 0.0539340
3024.59, 0.0538880
3026.36, 0.0538420
3028.13, 0.0537500
3029.9, 0.0537040
3031.67, 0.0536580
3033.44, 0.0536120
3035.22, 0.0534740
3037.0, 0.0533820
3038.78, 0.0533820
3040.56, 0.0534740
3042.34, 0.0533360
3044.13, 0.0531060
3045.92, 0.0530140
3047.71, 0.0529220
3049.5, 0.0529220
3051.3, 0.0529220
3053.09, 0.0528760
3054.89, 0.0528300
3056.69, 0.0527380
3058.5, 0.0525990
3060.3, 0.0524610
3062.11, 0.0524610
3063.92, 0.0523230
3065.73, 0.0522770
3067.55, 0.0523230
3069.36, 0.0522310
3071.18, 0.0521850
3073.0, 0.0522770
3074.82, 0.0522310
3076.65, 0.0521390
3078.48, 0.0520470
3080.31, 0.0520470
3082.14, 0.0520930
3083.97, 0.0520010
3085.8, 0.0521390
3087.64, 0.0521850
3089.48, 0.0520470
3091.33, 0.0519550
3093.17, 0.0519550
3095.02, 0.0520010
3096.87, 0.0520470
3098.72, 0.0520470
3100.57, 0.0520930
3102.43, 0.0521390
3104.28, 0.0521390
3106.14, 0.0521390
3108.01, 0.0522770
3109.87, 0.0523690
3111.74, 0.0524610
3113.61, 0.0525530
3115.48, 0.0525070
3117.35, 0.0525070
3119.23, 0.0525530
3121.1, 0.0525530
3122.98, 0.0526450
3124.87, 0.0528300
3126.75, 0.0529220
3128.64, 0.0529220
3130.53, 0.0530600
3132.42, 0.0531520
3134.31, 0.0530600
3136.21, 0.0531060
3138.11, 0.0532900
3140.01, 0.0533820
3141.91, 0.0534740
3143.82, 0.0536580
3145.73, 0.0538420
3147.64, 0.0539340
3149.55, 0.0539800
3151.46, 0.0539800
3153.38, 0.0540720
3155.3, 0.0542560
3157.22, 0.0544400
3159.14, 0.0546700
3161.07, 0.0548540
3163.0, 0.0549000
3164.93, 0.0549920
3166.86, 0.0552230
3168.8, 0.0554070
3170.74, 0.0555450
3172.68, 0.0556830
3174.62, 0.0559130
3176.56, 0.0561430
3178.51, 0.0562810
3180.46, 0.0563730
3182.42, 0.0566030
3184.37, 0.0568790
3186.33, 0.0571090
3188.29, 0.0573390
3190.25, 0.0575230
3192.21, 0.0578460
3194.18, 0.0581220
3196.15, 0.0583060
3198.12, 0.0584440
3200.09, 0.0586280
3202.07, 0.0589500
3204.05, 0.0591800
3206.03, 0.0594560
3208.02, 0.0597320
3210.0, 0.0599620
3211.99, 0.0602850
3213.98, 0.0606070
3215.98, 0.0608370
3217.97, 0.0611590
3219.97, 0.0615270
3221.97, 0.0617110
3223.98, 0.0619410
3225.98, 0.0621250
3227.99, 0.0624470
3230.0, 0.0628620
3232.02, 0.0630460
3234.03, 0.0631380
3236.05, 0.0634140
3238.07, 0.0638280
3240.1, 0.0641040
3242.12, 0.0644260
3244.15, 0.0647480
3246.18, 0.0650710
3248.22, 0.0653010
3250.25, 0.0655770
3252.29, 0.0657610
3254.33, 0.0660370
3256.38, 0.0664510
3258.43, 0.0668190
3260.47, 0.0670490
3262.53, 0.0673250
3264.58, 0.0676480
3266.64, 0.0677860
3268.7, 0.0679240
3270.76, 0.0682460
3272.82, 0.0685220
3274.89, 0.0687980
3276.96, 0.0689820
3279.04, 0.0691660
3281.11, 0.0694880
3283.19, 0.0697640
3285.27, 0.0699490
3287.35, 0.0703170
3289.44, 0.0706390
3291.53, 0.0708230
3293.62, 0.0710530
3295.71, 0.0713750
3297.81, 0.0715130
3299.91, 0.0716970
3302.01, 0.0719730
3304.11, 0.0723420
3306.22, 0.0726180
3308.33, 0.0728480
3310.44, 0.0731240
3312.56, 0.0732620
3314.68, 0.0734460
3316.8, 0.0736300
3318.92, 0.0738600
3321.05, 0.0739980
3323.18, 0.0742280
3325.31, 0.0744580
3327.44, 0.0747350
3329.58, 0.0750110
3331.72, 0.0753330
3333.86, 0.0755170
3336.01, 0.0757930
3338.16, 0.0759770
3340.31, 0.0762070
3342.46, 0.0764830
3344.61, 0.0767130
3346.77, 0.0769430
3348.94, 0.0769890
3351.1, 0.0770810
3353.27, 0.0773580
3355.44, 0.0776340
3357.61, 0.0778640
3359.79, 0.0781400
3361.97, 0.0782780
3364.15, 0.0783700
3366.33, 0.0786000
3368.52, 0.0788760
3370.71, 0.0790600
3372.9, 0.0792900
3375.1, 0.0794280
3377.3, 0.0795660
3379.5, 0.0797970
3381.71, 0.0799810
3383.91, 0.0802110
3386.12, 0.0803490
3388.34, 0.0803950
3390.55, 0.0806710
3392.77, 0.0809470
3394.99, 0.0811310
3397.22, 0.0813610
3399.45, 0.0815450
3401.68, 0.0816830
3403.91, 0.0818210
3406.15, 0.0820510
3408.39, 0.0822360
3410.63, 0.0823740
3412.87, 0.0825580
3415.12, 0.0827420
3417.37, 0.0829720
3419.63, 0.0832940
3421.88, 0.0834320
3424.14, 0.0836160
3426.41, 0.0838920
3428.67, 0.0841220
3430.94, 0.0842140
3433.21, 0.0842600
3435.49, 0.0844440
3437.77, 0.0846290
3440.05, 0.0847670
3442.33, 0.0849970
3444.62, 0.0852270
3446.91, 0.0855030
3449.2, 0.0856410
3451.5, 0.0857330
3453.8, 0.0858710
3456.1, 0.0860550
3458.41, 0.0862390
3460.72, 0.0863770
3463.03, 0.0866070
3465.34, 0.0868830
3467.66, 0.0869760
3469.98, 0.0870220
3472.31, 0.0872060
3474.63, 0.0874360
3476.96, 0.0875740
3479.3, 0.0875280
3481.64, 0.0876660
3483.97, 0.0878040
3486.32, 0.0878960
3488.66, 0.0880800
3491.01, 0.0883560
3493.36, 0.0885860
3495.72, 0.0886320
3498.08, 0.0886780
3500.44, 0.0888620
3502.81, 0.0890460
3505.18, 0.0891840
3507.55, 0.0892760
3509.92, 0.0893680
3512.3, 0.0895530
3514.68, 0.0896450
3517.06, 0.0897370
3519.45, 0.0899210
3521.84, 0.0901050
3524.24, 0.0901970
3526.64, 0.0903350
3529.04, 0.0905190
3531.44, 0.0905650
3533.85, 0.0906570
3536.26, 0.0907950
3538.67, 0.0909790
3541.09, 0.0910710
3543.51, 0.0912550
3545.93, 0.0914390
3548.36, 0.0915770
3550.79, 0.0917150
3553.22, 0.0919460
3555.66, 0.0919920
3558.1, 0.0919920
3560.54, 0.0920840
3562.99, 0.0923140
3565.44, 0.0924060
3567.9, 0.0925440
3570.35, 0.0927280
3572.81, 0.0928200
3575.28, 0.0929120
3577.75, 0.0930500
3580.22, 0.0931420
3582.69, 0.0933260
3585.17, 0.0935100
3587.65, 0.0935560
3590.14, 0.0936480
3592.62, 0.0938780
3595.11, 0.0940620
3597.61, 0.0942460
3600.11, 0.0944770
3602.61, 0.0945690
3605.11, 0.0945690
3607.62, 0.0946610
3610.14, 0.0947990
3612.65, 0.0949830
3615.17, 0.0951210
3617.69, 0.0952590
3620.22, 0.0953510
3622.75, 0.0954890
3625.28, 0.0955810
3627.82, 0.0957190
3630.36, 0.0959490
3632.9, 0.0961330
3635.45, 0.0962710
3638.0, 0.0963630
3640.56, 0.0964550
3643.12, 0.0965930
3645.68, 0.0965930
3648.24, 0.0966850
3650.81, 0.0968700
3653.39, 0.0970080
3655.96, 0.0971920
3658.54, 0.0973760
3661.13, 0.0974680
3663.71, 0.0976060
3666.3, 0.0977900
3668.9, 0.0978360
3671.5, 0.0979740
3674.1, 0.0980660
3676.7, 0.0982500
3679.31, 0.0984340
3681.93, 0.0984800
3684.54, 0.0986180
3687.17, 0.0988480
3689.79, 0.0990320
3692.42, 0.0991700
3695.05, 0.0993090
3697.69, 0.0994470
3700.32, 0.0995850
3702.97, 0.0996310
3705.61, 0.0997690
3708.27, 0.0999990
3710.92, 0.100091
3713.58, 0.100183
3716.24, 0.100367
3718.91, 0.100551
3721.58, 0.100643
3724.25, 0.100689
3726.93, 0.100873
3729.61, 0.101103
3732.29, 0.101241
3734.98, 0.101379
3737.67, 0.101517
3740.37, 0.101609
3743.07, 0.101702
3745.78, 0.101748
3748.49, 0.101840
3751.2, 0.101978
3753.91, 0.102162
3756.63, 0.102300
3759.36, 0.102438
3762.09, 0.102484
3764.82, 0.102530
3767.55, 0.102576
3770.29, 0.102714
3773.04, 0.102852
3775.78, 0.102990
3778.54, 0.103174
3781.29, 0.103312
3784.05, 0.103358
3786.82, 0.103358
3789.59, 0.103496
3792.36, 0.103634
3795.13, 0.103726
3797.92, 0.103772
3800.7, 0.103864
3803.49, 0.104002
3806.28, 0.104002
3809.08, 0.104094
3811.88, 0.104187
3814.68, 0.104279
3817.49, 0.104325
3820.31, 0.104325
3823.12, 0.104509
3825.94, 0.104647
3828.77, 0.104509
3831.6, 0.104509
3834.43, 0.104647
3837.27, 0.104785
3840.11, 0.104923
3842.96, 0.104877
3845.81, 0.104923
3848.67, 0.105015
3851.53, 0.105107
3854.39, 0.105107
3857.26, 0.105107
3860.13, 0.105107
3863.01, 0.105199
3865.89, 0.105291
3868.77, 0.105383
3871.66, 0.105475
3874.55, 0.105475
3877.45, 0.105475
3880.35, 0.105567
3883.26, 0.105613
3886.17, 0.105705
3889.09, 0.105751
3892.01, 0.105797
3894.93, 0.105889
3897.86, 0.105981
3900.79, 0.106027
3903.73, 0.106027
3906.67, 0.106073
3909.62, 0.106211
3912.57, 0.106211
3915.52, 0.106257
3918.48, 0.106349
3921.45, 0.106395
3924.42, 0.106441
3927.39, 0.106441
3930.37, 0.106487
3933.35, 0.106580
3936.34, 0.106626
3939.33, 0.106672
3942.32, 0.106764
3945.32, 0.106810
3948.33, 0.106856
3951.34, 0.106948
3954.35, 0.106994
3957.37, 0.107040
3960.39, 0.107132
3963.42, 0.107224
3966.45, 0.107270
3969.49, 0.107316
3972.53, 0.107408
3975.58, 0.107546
3978.63, 0.107638
3981.68, 0.107592
3984.75, 0.107684
3987.81, 0.107776
3990.88, 0.107776
3993.95, 0.107868
3997.03, 0.107960
4000.12, 0.108006
4003.21, 0.108052
4006.3, 0.108098
4009.4, 0.108190
4012.5, 0.108236
4015.61, 0.108282
4018.72, 0.108420
4021.84, 0.108466
4024.96, 0.108466
4028.09, 0.108512
4031.22, 0.108512
4034.36, 0.108466
4037.5, 0.108512
4040.65, 0.108650
4043.8, 0.108742
4046.96, 0.108742
4050.12, 0.108696
4053.29, 0.108742
4056.46, 0.108788
4059.64, 0.108788
4062.82, 0.108742
4066.0, 0.108788
4069.19, 0.108788
4072.39, 0.108742
4075.59, 0.108742
4078.8, 0.108788
4082.01, 0.108834
4085.23, 0.108834
4088.45, 0.108880
4091.68, 0.108880
4094.91, 0.108926
4098.15, 0.108926
4101.39, 0.109019
4104.63, 0.109019
4107.89, 0.108926
4111.14, 0.108926
4114.41, 0.108972
4117.67, 0.109019
4120.95, 0.109019
4124.23, 0.109019
4127.51, 0.109065
4130.8, 0.109065
4134.09, 0.109111
4137.39, 0.109157
4140.7, 0.109111
4144.01, 0.109111
4147.32, 0.109157
4150.64, 0.109157
4153.97, 0.109065
4157.3, 0.109111
4160.64, 0.109203
4163.98, 0.109295
4167.33, 0.109249
4170.68, 0.109203
4174.04, 0.109249
4177.4, 0.109341
4180.77, 0.109341
4184.14, 0.109341
4187.52, 0.109341
4190.91, 0.109295
4194.3, 0.109295
4197.69, 0.109295
4201.1, 0.109295
4204.5, 0.109433
4207.92, 0.109525
4211.34, 0.109663
4214.76, 0.109663
4218.19, 0.109617
4221.62, 0.109755
4225.06, 0.109893
4228.51, 0.110031
4231.96, 0.110077
4235.42, 0.110077
4238.88, 0.109985
4242.35, 0.110031
4245.83, 0.110031
4249.31, 0.109985
4252.79, 0.109801
4256.28, 0.109617
4259.78, 0.109663
4263.29, 0.109755
4266.79, 0.109755
4270.31, 0.109801
4273.83, 0.109801
4277.35, 0.109801
4280.89, 0.109847
4284.42, 0.109893
4287.97, 0.109893
4291.52, 0.109801
4295.07, 0.109755
4298.63, 0.109801
4302.2, 0.109801
4305.78, 0.109755
4309.35, 0.109709
4312.94, 0.109709
4316.53, 0.109663
4320.13, 0.109617
4323.73, 0.109571
4327.34, 0.109387
4330.96, 0.109387
4334.58, 0.109525
4338.21, 0.109479
4341.84, 0.109387
4345.48, 0.109433
4349.12, 0.109479
4352.77, 0.109479
4356.43, 0.109525
4360.1, 0.109479
4363.76, 0.109433
4367.44, 0.109479
4371.12, 0.109525
4374.81, 0.109525
4378.51, 0.109525
4382.21, 0.109525
4385.92, 0.109479
4389.63, 0.109525
4393.35, 0.109571
4397.08, 0.109525
4400.81, 0.109525
4404.55, 0.109479
4408.29, 0.109479
4412.04, 0.109479
4415.8, 0.109433
4419.57, 0.109479
4423.34, 0.109479
4427.12, 0.109479
4430.9, 0.109479
4434.69, 0.109433
4438.49, 0.109387
4442.29, 0.109295
4446.1, 0.109295
4449.92, 0.109341
4453.74, 0.109249
4457.57, 0.109295
4461.41, 0.109295
4465.25, 0.109203
4469.1, 0.109157
4472.95, 0.109203
4476.82, 0.109157
4480.69, 0.109111
4484.56, 0.109111
4488.44, 0.109111
4492.33, 0.109111
4496.23, 0.109065
4500.13, 0.109065
4504.04, 0.109065
4507.96, 0.109065
4511.88, 0.109019
4515.81, 0.108926
4519.75, 0.108926
4523.69, 0.108880
4527.65, 0.108834
4531.6, 0.108788
4535.57, 0.108742
4539.54, 0.108788
4543.52, 0.108788
4547.5, 0.108696
4551.5, 0.108696
4555.5, 0.108650
4559.5, 0.108650
4563.52, 0.108604
4567.54, 0.108512
4571.56, 0.108374
4575.6, 0.108374
4579.64, 0.108466
4583.69, 0.108466
4587.75, 0.108374
4591.81, 0.108328
4595.88, 0.108282
4599.96, 0.108282
4604.04, 0.108236
4608.14, 0.108144
4612.24, 0.108190
4616.34, 0.108190
4620.46, 0.108098
4624.58, 0.108144
4628.71, 0.108190
4632.84, 0.108144
4636.99, 0.108098
4641.14, 0.108052
4645.3, 0.108052
4649.47, 0.108052
4653.64, 0.108052
4657.82, 0.108006
4662.01, 0.107868
4666.21, 0.107776
4670.41, 0.107822
4674.62, 0.107822
4678.84, 0.107730
4683.07, 0.107638
4687.3, 0.107638
4691.54, 0.107592
4695.79, 0.107454
4700.05, 0.107500
4704.31, 0.107500
4708.59, 0.107362
4712.87, 0.107270
4717.15, 0.107270
4721.45, 0.107316
4725.76, 0.107224
4730.07, 0.107178
4734.39, 0.107178
4738.72, 0.107132
4743.05, 0.107040
4747.39, 0.106902
4751.75, 0.106948
4756.1, 0.106994
4760.47, 0.106856
4764.85, 0.106718
4769.23, 0.106764
4773.62, 0.106718
4778.02, 0.106580
4782.43, 0.106487
4786.85, 0.106487
4791.27, 0.106349
4795.7, 0.106257
4800.14, 0.106257
4804.59, 0.106165
4809.05, 0.106073
4813.51, 0.105981
4817.99, 0.105935
4822.47, 0.105935
4826.96, 0.105981
4831.46, 0.106027
4835.96, 0.105935
4840.48, 0.105843
4845.0, 0.105889
4849.54, 0.105935
4854.08, 0.105889
4858.63, 0.105843
4863.18, 0.105751
4867.75, 0.105659
4872.33, 0.105613
4876.91, 0.105475
4881.5, 0.105383
4886.1, 0.105383
4890.71, 0.105337
4895.33, 0.105245
4899.96, 0.105245
4904.59, 0.105199
4909.24, 0.105153
4913.89, 0.105153
4918.55, 0.105107
4923.22, 0.105015
4927.9, 0.104923
4932.59, 0.104877
4937.29, 0.104785
4942.0, 0.104739
4946.71, 0.104739
4951.44, 0.104739
4956.17, 0.104647
4960.91, 0.104601
4965.67, 0.104509
4970.43, 0.104463
4975.2, 0.104509
4979.98, 0.104509
4984.76, 0.104463
4989.56, 0.104463
4994.37, 0.104417
4999.18, 0.104417
5004.01, 0.104371
5008.84, 0.104279
5013.69, 0.104233
5018.54, 0.104187
5023.4, 0.104141
5028.28, 0.104141
5033.16, 0.104094
5038.05, 0.104048
5042.95, 0.104002
5047.86, 0.103956
5052.78, 0.103910
5057.71, 0.103910
5062.65, 0.103910
5067.6, 0.103910
5072.56, 0.103864
5077.53, 0.103910
5082.5, 0.103910
5087.49, 0.103910
5092.49, 0.103956
5097.5, 0.103910
5102.51, 0.103910
5107.54, 0.103910
5112.58, 0.103910
5117.62, 0.103956
5122.68, 0.104002
5127.75, 0.104002
5132.82, 0.104048
5137.91, 0.104094
5143.01, 0.104094
5148.12, 0.104187
5153.23, 0.104094
5158.36, 0.103956
5163.5, 0.104048
5168.65, 0.104094
5173.81, 0.104048
5178.98, 0.104048
5184.15, 0.104094
5189.34, 0.104141
5194.54, 0.104233
5199.75, 0.104233
5204.98, 0.104187
5210.21, 0.104233
5215.45, 0.104325
5220.7, 0.104233
5225.96, 0.104233
5231.23, 0.104187
5236.52, 0.104187
5241.81, 0.104094
5247.12, 0.104094
5252.44, 0.104048
5257.76, 0.104094
5263.1, 0.104141
5268.45, 0.104141
5273.81, 0.104141
5279.18, 0.104187
5284.56, 0.104233
5289.95, 0.104279
5295.36, 0.104233
5300.77, 0.104141
5306.2, 0.104141
5311.63, 0.104094
5317.08, 0.104141
5322.54, 0.104187
5328.01, 0.104141
5333.49, 0.104141
5338.98, 0.104094
5344.49, 0.104094
5350.0, 0.104187
5355.53, 0.104187
5361.07, 0.104048
5366.62, 0.103956
5372.18, 0.103864
5377.75, 0.103864
5383.34, 0.103818
5388.93, 0.103818
5394.54, 0.103772
5400.16, 0.103680
5405.79, 0.103680
5411.44, 0.103634
5417.09, 0.103680
5422.76, 0.103864
5428.43, 0.103726
5434.12, 0.103496
5439.83, 0.103450
5445.54, 0.103358
5451.26, 0.103174
5457.0, 0.103174
5462.75, 0.103266
5468.52, 0.103174
5474.29, 0.103082
5480.08, 0.103036
5485.88, 0.102852
5491.69, 0.102622
5497.51, 0.102484
5503.35, 0.102392
5509.2, 0.102254
5515.06, 0.102162
5520.93, 0.102070
5526.82, 0.101978
5532.71, 0.101840
5538.63, 0.101702
5544.55, 0.101609
5550.49, 0.101563
5556.44, 0.101379
5562.4, 0.101241
5568.37, 0.101057
5574.36, 0.101057
5580.36, 0.101149
5586.37, 0.100919
5592.4, 0.100689
5598.44, 0.100597
5604.49, 0.100551
5610.56, 0.100459
5616.63, 0.100367
5622.73, 0.100275
5628.83, 0.100183
5634.95, 0.100183
5641.08, 0.100459
5647.23, 0.100367
5653.39, 0.100183
5659.56, 0.100137
5665.74, 0.0999070
5671.94, 0.0999070
5678.15, 0.0999070
5684.38, 0.0998150
5690.62, 0.0998610
5696.87, 0.0998150
5703.14, 0.0997230
5709.42, 0.0999990
5715.72, 0.0999530
5722.03, 0.0998610
5728.35, 0.0998150
5734.69, 0.0998610
5741.03, 0.0999530
5747.4, 0.100045
5753.78, 0.0998610
5760.17, 0.0999530
5766.58, 0.100459
5773.0, 0.100183
5779.44, 0.0998150
5785.88, 0.0996310
5792.35, 0.0994930
5798.83, 0.0994930
5805.32, 0.0994470
5811.83, 0.0994930
5818.35, 0.0998150
5824.89, 0.0999070
5831.45, 0.0994470
5838.01, 0.0991700
5844.59, 0.0989400
5851.19, 0.0988480
5857.8, 0.0988020
5864.43, 0.0987560
5871.07, 0.0984340
5877.73, 0.0987100
5884.4, 0.0988020
5891.09, 0.0983420
5897.79, 0.0981580
5904.5, 0.0974220
5911.23, 0.0968240
5917.98, 0.0965470
5924.75, 0.0961790
5931.53, 0.0961790
5938.32, 0.0962250
5945.13, 0.0953970
5951.96, 0.0946150
5958.8, 0.0939700
5965.65, 0.0937400
5972.53, 0.0933720
5979.42, 0.0928200
5986.32, 0.0925440
5993.24, 0.0920840
6000.18, 0.0914850
6007.13, 0.0911170
6014.1, 0.0909330
6021.08, 0.0905650
6028.09, 0.0901050
6035.1, 0.0897830
6042.14, 0.0899210
6049.19, 0.0904270
6056.25, 0.0896910
6063.34, 0.0890000
6070.44, 0.0890460
6077.55, 0.0888620
6084.69, 0.0884480
6091.84, 0.0882180
6099.0, 0.0882180
6106.19, 0.0884020
6113.39, 0.0888620
6120.61, 0.0887240
6127.84, 0.0884480
6135.09, 0.0886320
6142.36, 0.0889540
6149.65, 0.0891840
6156.95, 0.0896450
6164.27, 0.0900590
6171.61, 0.0902430
6178.97, 0.0908410
6186.34, 0.0916690
6193.73, 0.0919460
6201.14, 0.0922680
6208.57, 0.0927740
6216.01, 0.0932800
6223.47, 0.0937860
6230.95, 0.0942460
6238.45, 0.0946610
6245.97, 0.0950750
6253.5, 0.0954890
6261.06, 0.0959030
6268.63, 0.0963630
6276.21, 0.0967310
6283.82, 0.0971000
6291.45, 0.0975140
6299.1, 0.0978360
6306.76, 0.0981120
6314.44, 0.0984340
6322.14, 0.0987560
6329.86, 0.0991240
6337.6, 0.0995850
6345.35, 0.100183
6353.13, 0.100137
6360.92, 0.100183
6368.74, 0.100643
6376.57, 0.100827
6384.43, 0.100873
6392.3, 0.101103
6400.19, 0.101287
6408.1, 0.102162
6416.03, 0.102944
6423.98, 0.102438
6431.95, 0.102300
6439.94, 0.102300
6447.95, 0.102208
6455.98, 0.102300
6464.03, 0.102346
6472.1, 0.102576
6480.19, 0.102806
6488.31, 0.103220
6496.44, 0.103404
6504.59, 0.102852
6512.76, 0.102484
6520.95, 0.102714
6529.16, 0.102438
6537.4, 0.102208
6545.65, 0.102208
6553.92, 0.102162
6562.22, 0.102024
6570.54, 0.102162
6578.88, 0.101932
6587.23, 0.101471
6595.61, 0.101333
6604.02, 0.101011
6612.44, 0.100735
6620.89, 0.100505
6629.35, 0.100551
6637.84, 0.100689
6646.35, 0.0999990
6654.88, 0.0993090
6663.44, 0.0990780
6672.01, 0.0990780
6680.61, 0.0990780
6689.23, 0.0989400
6697.88, 0.0987560
6706.54, 0.0990780
6715.23, 0.0994930
6723.94, 0.0997230
6732.67, 0.0999070
6741.42, 0.100229
6750.2, 0.100689
6759.0, 0.100965
6767.82, 0.101425
6776.67, 0.102070
6785.54, 0.102760
6794.44, 0.103312
6803.35, 0.103404
6812.29, 0.103726
6821.26, 0.104371
6830.24, 0.104969
6839.25, 0.105199
6848.29, 0.105705
6857.35, 0.106626
6866.43, 0.107316
6875.54, 0.107086
6884.67, 0.107132
6893.82, 0.107316
6903.0, 0.107638
6912.2, 0.107822
6921.43, 0.107960
6930.69, 0.108190
6939.96, 0.108466
6949.27, 0.108788
6958.59, 0.109433
6967.95, 0.109479
6977.33, 0.109295
6986.73, 0.109433
6996.16, 0.109617
7005.61, 0.109755
7015.09, 0.109939
7024.6, 0.110215
7034.13, 0.110445
7043.69, 0.110997
7053.27, 0.111135
7062.88, 0.111089
7072.52, 0.111273
7082.18, 0.111504
7091.87, 0.111734
7101.58, 0.111918
7111.32, 0.112240
7121.09, 0.112562
7130.88, 0.112654
7140.71, 0.112884
7150.56, 0.113160
7160.43, 0.113436
7170.33, 0.113712
7180.27, 0.113758
7190.23, 0.113804
7200.21, 0.114081
7210.23, 0.114449
7220.27, 0.114495
7230.34, 0.114679
7240.44, 0.114909
7250.56, 0.115047
7260.72, 0.115139
7270.9, 0.115461
7281.12, 0.115783
7291.36, 0.115875
7301.63, 0.115921
7311.93, 0.116105
7322.25, 0.116197
7332.61, 0.116474
7343.0, 0.116704
7353.41, 0.116842
7363.86, 0.116980
7374.33, 0.117118
7384.83, 0.117348
7395.37, 0.117486
7405.93, 0.117624
7416.53, 0.117854
7427.15, 0.118038
7437.81, 0.118176
7448.5, 0.118314
7459.22, 0.118544
7469.96, 0.118821
7480.74, 0.119051
7491.55, 0.119143
7502.39, 0.119235
7513.27, 0.119373
7524.17, 0.119465
7535.11, 0.119511
7546.08, 0.119649
7557.08, 0.119695
7568.11, 0.119787
7579.17, 0.119879
7590.27, 0.120063
7601.4, 0.120247
7612.56, 0.120293
7623.76, 0.120385
7634.98, 0.120523
7646.24, 0.120615
7657.54, 0.120753
7668.87, 0.120799
7680.23, 0.120799
7691.62, 0.120937
7703.05, 0.121075
7714.51, 0.121121
7726.01, 0.121075
7737.54, 0.121075
7749.11, 0.120983
7760.71, 0.120891
7772.35, 0.120845
7784.02, 0.120615
7795.72, 0.120339
7807.46, 0.120155
7819.23, 0.120063
7831.04, 0.119787
7842.89, 0.119373
7854.77, 0.118959
7866.69, 0.118590
7878.65, 0.118176
7890.64, 0.117716
7902.67, 0.117072
7914.74, 0.116428
7926.84, 0.115691
7938.98, 0.115001
7951.16, 0.114311
7963.37, 0.113482
7975.62, 0.112792
7987.91, 0.112240
8000.24, 0.111642
8012.6, 0.110951
8025.01, 0.110215
8037.45, 0.109525
8049.93, 0.108788
8062.45, 0.107960
8075.01, 0.107086
8087.61, 0.106257
8100.24, 0.105337
8112.91, 0.104325
8125.63, 0.103128
8138.39, 0.101978
8151.18, 0.100827
8164.02, 0.0994930
8176.9, 0.0982500
8189.81, 0.0971000
8202.77, 0.0959030
8215.77, 0.0948450
8228.82, 0.0937400
8241.9, 0.0926360
8255.02, 0.0917150
8268.19, 0.0909330
8281.39, 0.0901510
8294.65, 0.0893680
8307.94, 0.0887240
8321.28, 0.0880800
8334.66, 0.0876200
8348.08, 0.0872060
8361.54, 0.0867450
8375.05, 0.0863770
8388.6, 0.0860550
8402.2, 0.0857330
8415.84, 0.0855030
8429.52, 0.0853650
8443.25, 0.0851810
8457.02, 0.0849970
8470.84, 0.0849970
8484.7, 0.0850430
8498.61, 0.0850430
8512.57, 0.0851350
8526.57, 0.0851350
8540.62, 0.0850890
8554.71, 0.0852730
8568.85, 0.0852730
8583.04, 0.0852730
8597.27, 0.0853650
8611.55, 0.0854110
8625.88, 0.0853190
8640.26, 0.0852270
8654.68, 0.0849970
8669.16, 0.0845830
8683.68, 0.0837080
8698.25, 0.0825580
8712.87, 0.0812230
8727.53, 0.0798890
8742.25, 0.0788760
8757.02, 0.0780940
8771.83, 0.0773580
8786.7, 0.0768970
8801.62, 0.0763910
8816.59, 0.0757930
8831.61, 0.0755630
8846.68, 0.0754710
8861.8, 0.0752410
8876.97, 0.0750110
8892.2, 0.0748730
8907.48, 0.0747350
8922.81, 0.0746880
8938.2, 0.0747810
8953.63, 0.0747810
8969.13, 0.0746420
8984.67, 0.0745500
9000.27, 0.0745040
9015.92, 0.0745040
9031.63, 0.0745040
9047.39, 0.0744580
9063.21, 0.0743660
9079.08, 0.0743660
9095.01, 0.0743660
9111.0, 0.0742280
9127.04, 0.0740440
9143.13, 0.0737680
9159.28, 0.0733080
9175.49, 0.0728020
9191.76, 0.0723420
9208.09, 0.0720190
9224.47, 0.0717890
9240.92, 0.0715590
9257.42, 0.0714670
9273.98, 0.0714210
9290.6, 0.0713750
9307.28, 0.0717430
9324.02, 0.0724340
9340.82, 0.0732160
9357.68, 0.0741360
9374.6, 0.0749650
9391.58, 0.0757010
9408.62, 0.0764370
9425.73, 0.0771270
9442.9, 0.0777720
9460.13, 0.0782780
9477.42, 0.0786920
9494.78, 0.0788760
9512.2, 0.0790600
9529.69, 0.0792900
9547.24, 0.0797970
9564.86, 0.0802570
9582.54, 0.0803950
9600.28, 0.0804870
9618.1, 0.0809470
9635.97, 0.0814070
9653.92, 0.0817750
9671.93, 0.0820510
9690.01, 0.0824660
9708.16, 0.0826500
9726.37, 0.0827880
9744.65, 0.0830180
9763.0, 0.0828800
9781.43, 0.0816370
9799.92, 0.0791520
9818.48, 0.0767130
9837.1, 0.0754710
9855.8, 0.0758390
9874.58, 0.0772660
9893.42, 0.0790140
9912.34, 0.0805790
9931.33, 0.0820050
9950.39, 0.0834320
9969.52, 0.0846290
9988.74, 0.0859170
10008.0, 0.0872980
10027.4, 0.0884480
10046.8, 0.0897830
10066.3, 0.0910710
10085.9, 0.0921300
10105.6, 0.0930500
10125.3, 0.0939700
10145.1, 0.0948910
10165.0, 0.0959030
10185.0, 0.0971460
10205.0, 0.0982040
10225.2, 0.0988940
10245.4, 0.0996770
10265.7, 0.100643
10286.0, 0.101425
10306.5, 0.102162
10327.0, 0.102852
10347.6, 0.103634
10368.3, 0.104509
10389.1, 0.105107
10409.9, 0.105797
10430.9, 0.106441
10451.9, 0.107132
10473.0, 0.108006
10494.2, 0.108972
10515.5, 0.109709
10536.9, 0.110353
10558.4, 0.111043
10579.9, 0.111688
10601.5, 0.112240
10623.3, 0.112838
10645.1, 0.113160
10667.0, 0.113390
10689.0, 0.113620
10711.1, 0.113804
10733.2, 0.113896
10755.5, 0.114081
10777.9, 0.114081
10800.3, 0.113620
10822.9, 0.113298
10845.5, 0.113298
10868.2, 0.113022
10891.1, 0.112516
10914.0, 0.111918
10937.0, 0.111043
10960.2, 0.110307
10983.4, 0.109709
11006.7, 0.109157
11030.1, 0.108328
11053.6, 0.107730
11077.3, 0.107040
11101.0, 0.106119
11124.8, 0.105521
11148.7, 0.104969
11172.7, 0.104325
11196.9, 0.103726
11221.1, 0.103082
11245.4, 0.102392
11269.9, 0.102024
11294.4, 0.101563
11319.1, 0.101011
11343.9, 0.100643
11368.8, 0.100505
11393.7, 0.100275
11418.8, 0.100137
11444.0, 0.100137
11469.4, 0.100275
11494.8, 0.100367
11520.3, 0.100459
11546.0, 0.100551
11571.8, 0.100873
11597.7, 0.101287
11623.7, 0.101609
11649.8, 0.101886
11676.0, 0.102300
11702.4, 0.102622
11728.9, 0.102898
11755.5, 0.103082
11782.2, 0.103404
11809.0, 0.103404
11836.0, 0.103266
11863.0, 0.103404
11890.3, 0.103358
11917.6, 0.103082
11945.0, 0.103036
11972.6, 0.103036
12000.4, 0.102806
12028.2, 0.102484
12056.2, 0.102346
12084.3, 0.102116
12112.5, 0.101794
12140.9, 0.101702
12169.4, 0.101425
12198.0, 0.100827
12226.8, 0.100367
12255.7, 0.100045
12284.7, 0.0997230
12313.9, 0.0995850
12343.2, 0.0996770
12372.7, 0.0996310
12402.3, 0.0994470
12432.0, 0.0994930
12461.9, 0.0996310
12491.9, 0.0997230
12522.1, 0.0998610
12552.4, 0.100137
12582.9, 0.100321
12613.5, 0.100367
12644.3, 0.100597
12675.2, 0.101195
12706.3, 0.101748
12737.5, 0.102116
12768.9, 0.102852
12800.4, 0.103864
12832.1, 0.104785
12863.9, 0.105935
12895.9, 0.107316
12928.1, 0.108742
12960.4, 0.110077
12992.9, 0.111319
13025.5, 0.112654
13058.3, 0.114311
13091.3, 0.115691
13124.4, 0.116980
13157.8, 0.118544
13191.2, 0.119925
13224.9, 0.121029
13258.7, 0.122318
13292.7, 0.123422
13326.9, 0.124389
13361.2, 0.125401
13395.7, 0.126322
13430.4, 0.127426
13465.3, 0.128392
13500.4, 0.129497
13535.7, 0.130325
13571.1, 0.130969
13606.7, 0.132074
13642.5, 0.132626
13678.5, 0.132948
13714.7, 0.133685
13751.1, 0.134467
13787.6, 0.135019
13824.4, 0.135663
13861.4, 0.136216
13898.5, 0.136400
13935.9, 0.136722
13973.5, 0.137228
14011.2, 0.137366
14049.2, 0.137458
14087.4, 0.138010
14125.8, 0.138425
14164.3, 0.138609
14203.2, 0.138793
14242.2, 0.139207
14281.4, 0.139529
14320.9, 0.139989
14360.5, 0.140541
14400.4, 0.140817
14440.5, 0.141324
14480.9, 0.141784
14521.4, 0.141968
14562.2, 0.142106
14603.3, 0.142612
14644.5, 0.142888
14686.0, 0.142474
14727.7, 0.142106
14769.7, 0.142152
14811.9, 0.141692
14854.3, 0.140449
14897.0, 0.138379
14939.9, 0.135847
14983.1, 0.133547
15026.5, 0.131982
15070.2, 0.131614
15114.2, 0.132166
15158.3, 0.133316
15202.8, 0.134191
15247.5, 0.134881
15292.5, 0.135709
15337.7, 0.136446
15383.2, 0.137320
15429.0, 0.138010
15475.1, 0.138701
15521.4, 0.139115
15568.0, 0.139483
15614.9, 0.140219
15662.1, 0.140633
15709.6, 0.140587
15757.3, 0.140357
15805.4, 0.140035
15853.7, 0.138931
15902.3, 0.137228
15951.2, 0.135387
16000.5, 0.133685
16050.0, 0.132948
16099.8, 0.133408
16150.0, 0.134651
16200.5, 0.136216
16251.3, 0.137228
16302.4, 0.138194
16353.8, 0.138701
16405.5, 0.138701
16457.6, 0.138240
16510.0, 0.136768
16562.8, 0.135617
16615.9, 0.135755
16669.3, 0.136630
16723.1, 0.137964
16777.2, 0.139299
16831.7, 0.140173
16886.5, 0.141324
16941.7, 0.142796
16997.2, 0.143901
17053.1, 0.144775
17109.4, 0.145834
17166.1, 0.146984
17223.1, 0.147950
17280.5, 0.148273
17338.3, 0.149285
17396.5, 0.149975
17455.1, 0.150297
17514.0, 0.150850
17573.4, 0.151632
17633.2, 0.151816
17693.4, 0.152322
17754.0, 0.152874
17815.0, 0.152368
17876.4, 0.151724
17938.3, 0.152046
18000.5, 0.151632
18063.3, 0.150573
18126.4, 0.150481
18190.0, 0.150343
18254.1, 0.149791
18318.6, 0.149929
18383.5, 0.149883
18449.0, 0.149239
18514.9, 0.148917
18581.2, 0.149193
18648.0, 0.149285
18715.4, 0.149101
18783.2, 0.149009
18851.5, 0.148503
18920.3, 0.148180
18989.6, 0.148503
19059.4, 0.148503
19129.7, 0.147950
19200.6, 0.147904
19272.0, 0.148365
19343.9, 0.148273
19416.3, 0.149101
19489.3, 0.150021
19562.8, 0.150896
19637.0, 0.150896
19711.6, 0.151310
19786.8, 0.152322
19862.6, 0.153058
19939.0, 0.153381
20016.0, 0.154025
20093.6, 0.155037
20171.8, 0.155728
20250.6, 0.156050
20330.0, 0.156142
20410.0, 0.156648
20490.7, 0.157384
20572.0, 0.157706
20654.0, 0.157936
20736.6, 0.158121
20819.9, 0.159087
20903.8, 0.159087
20988.5, 0.158029
21073.8, 0.158535
21159.8, 0.160007
21246.5, 0.159961
21334.0, 0.159823
21422.1, 0.158673
21511.0, 0.157384
21600.7, 0.156188
21691.0, 0.155129
21782.1, 0.155590
21874.0, 0.156786
21966.7, 0.155083
22060.2, 0.152736
22154.5, 0.151540
22249.6, 0.151559
22345.5, 0.151983
22442.2, 0.152048
22539.8, 0.151396
22638.2, 0.150320
22737.5, 0.149831
22837.7, 0.150451
22938.7, 0.150646
23040.7, 0.151396
23143.5, 0.153580
23247.3, 0.154297
23352.1, 0.155926
23457.7, 0.157491
23564.4, 0.159088
23672.0, 0.161206
23780.5, 0.164042
23890.1, 0.165998
24000.7, 0.167986
24112.3, 0.168768
24225.0, 0.168964
24338.7, 0.170593
24453.5, 0.171115
24569.4, 0.171799
24686.4, 0.171636
24804.5, 0.170952
24923.8, 0.169974
25044.2, 0.169029
25165.8, 0.168051
25288.6, 0.167171
25412.5, 0.165704
25537.7, 0.165248
25664.1, 0.166454
25791.8, 0.166226
25920.8, 0.166128
26051.1, 0.166617
26182.6, 0.167497
26315.5, 0.168605
26449.8, 0.170170
26585.4, 0.171995
26722.5, 0.172027
26860.9, 0.172940
27000.8, 0.174146
27142.1, 0.174863
27285.0, 0.174374
27429.4, 0.174668
27575.3, 0.175287
27722.7, 0.175743
27871.8, 0.176297
28022.4, 0.176265
28174.7, 0.177177
28328.7, 0.178155
28484.4, 0.178676
28641.7, 0.180437
28800.9, 0.182197
28961.8, 0.183272
29124.5, 0.184054
29289.0, 0.185423
29455.4, 0.187151
29623.8, 0.188617
29794.0, 0.189791
29966.3, 0.191812
30140.5, 0.194582
30316.7, 0.195853
30495.1, 0.196635
30675.5, 0.198330
30858.1, 0.200416
31042.8, 0.201035
31229.8, 0.201981
31419.1, 0.203415
31610.7, 0.205305
31804.6, 0.205892
32000.9, 0.206120
32199.7, 0.208336
32400.9, 0.209640
32604.8, 0.210618
32811.1, 0.211205
33020.1, 0.211368
33231.8, 0.212280
33446.2, 0.214301
33663.4, 0.214985
33883.4, 0.215311
34106.3, 0.215800
34332.1, 0.217593
34561.0, 0.218375
34792.9, 0.217397
35028.0, 0.217397
35266.3, 0.217300
35507.8, 0.216257
35752.7, 0.214953
36001.0, 0.212965
36252.8, 0.212606
36508.1, 0.214203
36767.0, 0.214301
37029.7, 0.213584
37296.1, 0.213291
37566.3, 0.212704
37840.5, 0.211465
38118.8, 0.212182
38401.2, 0.211954
38687.8, 0.211139
38978.6, 0.212052
39273.9, 0.212965
39573.7, 0.213291
39878.1, 0.215865
40187.3, 0.218310
40501.2, 0.219711
40820.0, 0.221406
41144.0, 0.222677
41473.2, 0.224242
41807.6, 0.226686
42147.5, 0.228251
42493.0, 0.229522
42844.2, 0.231412
43201.2, 0.233433
43564.3, 0.235487
43933.5, 0.237018
44309.0, 0.237833
44691.0, 0.239756
45079.6, 0.241256
45475.0, 0.242266
45877.5, 0.244254
46287.1, 0.246242
46704.2, 0.246405
47128.7, 0.245916
47561.1, 0.246210
48001.5, 0.246796
48450.1, 0.247188
48907.2, 0.248165
49373.0, 0.248002
49847.7, 0.249762
50331.5, 0.251914
50825.0, 0.253054
51328.2, 0.252794
51841.5, 0.251131
52365.1, 0.253478
52899.4, 0.257846
53444.8, 0.260258
54001.5, 0.262343
54570.1, 0.261887
55150.6, 0.265407
55743.6, 0.270394
56349.5, 0.273001
56968.7, 0.267624
57601.7, 0.270948
58248.9, 0.272969
58910.9, 0.272610
59588.1, 0.275087
60281.0, 0.276619
60990.2, 0.275902
61716.3, 0.277304
62459.8, 0.279520
63221.6, 0.285745
64002.1, 0.291808
64802.1, 0.303444
65622.1, 0.294611
66463.4, 0.282584
67326.6, 0.292818
68212.4, 0.297316
69121.9, 0.301064
70056.0, 0.300575
71015.7, 0.300608
72002.0, 0.303835
73016.3, 0.306605
74059.4, 0.306051
75132.7, 0.309082
76237.6, 0.311038
77375.5, 0.308952
78547.9, 0.311527
79756.3, 0.315308
81002.5, 0.318534
82288.5, 0.323391
83615.7, 0.324173
84986.5, 0.326455
86402.9, 0.326715
87867.4, 0.327465
89382.4, 0.331181
90950.5, 0.337145
92574.6, 0.336950
94257.2, 0.337471
96002.7, 0.338156
97814.1, 0.339818
99695.1, 0.340274
101650.0, 0.339133
103683.0, 0.341806
105799.0, 0.347347
108003.0, 0.349498
110301.0, 0.355071
112699.0, 0.361623
115204.0, 0.361427
117822.0, 0.361558
120562.0, 0.370651
123433.0, 0.378636
126443.0, 0.382645
129604.0, 0.388545
132926.0, 0.388219
136424.0, 0.393401
140111.0, 0.406667
144003.0, 0.457121
148118.0, 0.501318
152474.0, 0.434567
157095.0, 0.434664
162004.0, 0.442356
167231.0, 0.458066
172805.0, 0.456567
178764.0, 0.475439
185148.0, 0.480882
192005.0, 0.505261
199390.0, 0.623249
207366.0, 0.796939
216006.0, 0.245949
