Database of Origin, USGS Spectral Database
Sample Description, See USGS database for additional info
Date Added,2016-08-03 21:16:33.173768

Data ID,USGS_chr02          
Sample ID, chromite_hs281.5120
Mineral Name, chromite
Material Class,Oxide

Wavelength
1568.1, 0.0554350
1568.58, 0.0553230
1569.05, 0.0554720
1569.53, 0.0555850
1570.0, 0.0559220
1570.48, 0.0561460
1570.96, 0.0561090
1571.43, 0.0561460
1571.91, 0.0562960
1572.39, 0.0560710
1572.86, 0.0558090
1573.34, 0.0558090
1573.82, 0.0559960
1574.3, 0.0562580
1574.77, 0.0562960
1575.25, 0.0562960
1575.73, 0.0565200
1576.21, 0.0565200
1576.69, 0.0563710
1577.17, 0.0563330
1577.65, 0.0563710
1578.13, 0.0563330
1578.61, 0.0564830
1579.09, 0.0567450
1579.57, 0.0567820
1580.05, 0.0567450
1580.54, 0.0568200
1581.02, 0.0566330
1581.5, 0.0565200
1581.98, 0.0569700
1582.47, 0.0570440
1582.95, 0.0568570
1583.43, 0.0568200
1583.92, 0.0569320
1584.4, 0.0569320
1584.88, 0.0567820
1585.37, 0.0568570
1585.85, 0.0568950
1586.34, 0.0570820
1586.82, 0.0570820
1587.31, 0.0571570
1587.8, 0.0571190
1588.28, 0.0573060
1588.77, 0.0574190
1589.26, 0.0570440
1589.74, 0.0569700
1590.23, 0.0571190
1590.72, 0.0573810
1591.21, 0.0578680
1591.7, 0.0579800
1592.19, 0.0575680
1592.67, 0.0575680
1593.16, 0.0574560
1593.65, 0.0570070
1594.14, 0.0571570
1594.63, 0.0574560
1595.12, 0.0574940
1595.61, 0.0575680
1596.11, 0.0576430
1596.6, 0.0577180
1597.09, 0.0576060
1597.58, 0.0575680
1598.08, 0.0574560
1598.57, 0.0576810
1599.06, 0.0576430
1599.55, 0.0575310
1600.05, 0.0576060
1600.54, 0.0579050
1601.04, 0.0584290
1601.53, 0.0582800
1602.03, 0.0578680
1602.52, 0.0579800
1603.02, 0.0583170
1603.51, 0.0583170
1604.01, 0.0582800
1604.5, 0.0580550
1605.0, 0.0577930
1605.5, 0.0577930
1606.0, 0.0579430
1606.49, 0.0582420
1606.99, 0.0582420
1607.49, 0.0579430
1607.99, 0.0578680
1608.49, 0.0579800
1608.99, 0.0578300
1609.49, 0.0577560
1609.99, 0.0577560
1610.49, 0.0579050
1610.99, 0.0577180
1611.49, 0.0577930
1611.99, 0.0582800
1612.49, 0.0580550
1612.99, 0.0577560
1613.49, 0.0579800
1614.0, 0.0579800
1614.5, 0.0579050
1615.0, 0.0579430
1615.51, 0.0582800
1616.01, 0.0586910
1616.51, 0.0586170
1617.02, 0.0585420
1617.52, 0.0586170
1618.03, 0.0582800
1618.53, 0.0582420
1619.04, 0.0585040
1619.54, 0.0585040
1620.05, 0.0584670
1620.55, 0.0586910
1621.06, 0.0586170
1621.57, 0.0584670
1622.08, 0.0583550
1622.58, 0.0583550
1623.09, 0.0583170
1623.6, 0.0583920
1624.11, 0.0586170
1624.62, 0.0586540
1625.13, 0.0586540
1625.64, 0.0585420
1626.15, 0.0583920
1626.66, 0.0583550
1627.17, 0.0584670
1627.68, 0.0585790
1628.19, 0.0585040
1628.7, 0.0583920
1629.21, 0.0583920
1629.72, 0.0585040
1630.24, 0.0586910
1630.75, 0.0585790
1631.26, 0.0583170
1631.78, 0.0584290
1632.29, 0.0586910
1632.8, 0.0586540
1633.32, 0.0583550
1633.83, 0.0583920
1634.35, 0.0587660
1634.86, 0.0590280
1635.38, 0.0589530
1635.9, 0.0588040
1636.41, 0.0586910
1636.93, 0.0586170
1637.45, 0.0586540
1637.96, 0.0586910
1638.48, 0.0585420
1639.0, 0.0586910
1639.52, 0.0587660
1640.04, 0.0585420
1640.56, 0.0584290
1641.08, 0.0582800
1641.59, 0.0585790
1642.11, 0.0591410
1642.63, 0.0591780
1643.16, 0.0591410
1643.68, 0.0589910
1644.2, 0.0586910
1644.72, 0.0586170
1645.24, 0.0586910
1645.76, 0.0585040
1646.29, 0.0586540
1646.81, 0.0588410
1647.33, 0.0588410
1647.86, 0.0588040
1648.38, 0.0589160
1648.9, 0.0591410
1649.43, 0.0589160
1649.95, 0.0587660
1650.48, 0.0587290
1651.0, 0.0586910
1651.53, 0.0586540
1652.06, 0.0584670
1652.58, 0.0586910
1653.11, 0.0588410
1653.64, 0.0587290
1654.17, 0.0588040
1654.69, 0.0588040
1655.22, 0.0586910
1655.75, 0.0587660
1656.28, 0.0588040
1656.81, 0.0590280
1657.34, 0.0587660
1657.87, 0.0586170
1658.4, 0.0586170
1658.93, 0.0588040
1659.46, 0.0588410
1659.99, 0.0585420
1660.52, 0.0583920
1661.05, 0.0588040
1661.59, 0.0590280
1662.12, 0.0589530
1662.65, 0.0587660
1663.19, 0.0586540
1663.72, 0.0585040
1664.26, 0.0585420
1664.79, 0.0588410
1665.32, 0.0588410
1665.86, 0.0587290
1666.39, 0.0588790
1666.93, 0.0588040
1667.47, 0.0586540
1668.0, 0.0585420
1668.54, 0.0583550
1669.08, 0.0584670
1669.61, 0.0585790
1670.15, 0.0585790
1670.69, 0.0586910
1671.23, 0.0587660
1671.77, 0.0588040
1672.31, 0.0588040
1672.85, 0.0588040
1673.39, 0.0585790
1673.93, 0.0586540
1674.47, 0.0586540
1675.01, 0.0585420
1675.55, 0.0584670
1676.09, 0.0583170
1676.64, 0.0582800
1677.18, 0.0587290
1677.72, 0.0588410
1678.26, 0.0587660
1678.81, 0.0588410
1679.35, 0.0586540
1679.89, 0.0585040
1680.44, 0.0586540
1680.98, 0.0589160
1681.53, 0.0589160
1682.07, 0.0587660
1682.62, 0.0587290
1683.17, 0.0583920
1683.71, 0.0580920
1684.26, 0.0583170
1684.81, 0.0586540
1685.36, 0.0586170
1685.9, 0.0584290
1686.45, 0.0584670
1687.0, 0.0585040
1687.55, 0.0583920
1688.1, 0.0583170
1688.65, 0.0585420
1689.2, 0.0586540
1689.75, 0.0585040
1690.3, 0.0583550
1690.85, 0.0585420
1691.41, 0.0586540
1691.96, 0.0585040
1692.51, 0.0583920
1693.06, 0.0583920
1693.61, 0.0582800
1694.17, 0.0583920
1694.72, 0.0586910
1695.28, 0.0585790
1695.83, 0.0583550
1696.39, 0.0583550
1696.94, 0.0584290
1697.5, 0.0585420
1698.05, 0.0585420
1698.61, 0.0585040
1699.17, 0.0583170
1699.72, 0.0582800
1700.28, 0.0583170
1700.84, 0.0584670
1701.4, 0.0585790
1701.95, 0.0584670
1702.51, 0.0582050
1703.07, 0.0581300
1703.63, 0.0582800
1704.19, 0.0583170
1704.75, 0.0583170
1705.31, 0.0585420
1705.88, 0.0585790
1706.44, 0.0583170
1707.0, 0.0581300
1707.56, 0.0581670
1708.12, 0.0581670
1708.69, 0.0580920
1709.25, 0.0580180
1709.81, 0.0580920
1710.38, 0.0580550
1710.94, 0.0579050
1711.51, 0.0580550
1712.07, 0.0580920
1712.64, 0.0581670
1713.2, 0.0582800
1713.77, 0.0582800
1714.34, 0.0580920
1714.9, 0.0579430
1715.47, 0.0579430
1716.04, 0.0580550
1716.61, 0.0579800
1717.18, 0.0579430
1717.74, 0.0580550
1718.31, 0.0579430
1718.88, 0.0577930
1719.45, 0.0579050
1720.02, 0.0580920
1720.59, 0.0579430
1721.17, 0.0579050
1721.74, 0.0578300
1722.31, 0.0577560
1722.88, 0.0578300
1723.45, 0.0577930
1724.03, 0.0577180
1724.6, 0.0577560
1725.18, 0.0578680
1725.75, 0.0578300
1726.33, 0.0579430
1726.9, 0.0577930
1727.48, 0.0578680
1728.05, 0.0578300
1728.63, 0.0576810
1729.2, 0.0575680
1729.78, 0.0575310
1730.36, 0.0575680
1730.94, 0.0576060
1731.51, 0.0576430
1732.09, 0.0578300
1732.67, 0.0578300
1733.25, 0.0579050
1733.83, 0.0578680
1734.41, 0.0576060
1734.99, 0.0573810
1735.57, 0.0573810
1736.15, 0.0575310
1736.73, 0.0575680
1737.32, 0.0574560
1737.9, 0.0576060
1738.48, 0.0575680
1739.07, 0.0577180
1739.65, 0.0577180
1740.23, 0.0573810
1740.82, 0.0571570
1741.4, 0.0571190
1741.99, 0.0571570
1742.57, 0.0570820
1743.16, 0.0571940
1743.74, 0.0574560
1744.33, 0.0574940
1744.92, 0.0572690
1745.51, 0.0571190
1746.09, 0.0572690
1746.68, 0.0573810
1747.27, 0.0573810
1747.86, 0.0571570
1748.45, 0.0571190
1749.04, 0.0571570
1749.63, 0.0570440
1750.22, 0.0571190
1750.81, 0.0571940
1751.4, 0.0570070
1751.99, 0.0568950
1752.59, 0.0569700
1753.18, 0.0571570
1753.77, 0.0572320
1754.37, 0.0570070
1754.96, 0.0567450
1755.56, 0.0567450
1756.15, 0.0569320
1756.74, 0.0571570
1757.34, 0.0570820
1757.94, 0.0568950
1758.53, 0.0566700
1759.13, 0.0564460
1759.73, 0.0566700
1760.32, 0.0568200
1760.92, 0.0568570
1761.52, 0.0571190
1762.12, 0.0568570
1762.72, 0.0567820
1763.32, 0.0569700
1763.92, 0.0569320
1764.52, 0.0567450
1765.12, 0.0567450
1765.72, 0.0566330
1766.32, 0.0567450
1766.92, 0.0568200
1767.53, 0.0565950
1768.13, 0.0562210
1768.73, 0.0562580
1769.34, 0.0564080
1769.94, 0.0563710
1770.55, 0.0563710
1771.15, 0.0563710
1771.76, 0.0562210
1772.36, 0.0562960
1772.97, 0.0563330
1773.57, 0.0562960
1774.18, 0.0563330
1774.79, 0.0563330
1775.4, 0.0562960
1776.0, 0.0562960
1776.61, 0.0561090
1777.22, 0.0561460
1777.83, 0.0562210
1778.44, 0.0561840
1779.05, 0.0561460
1779.66, 0.0561840
1780.27, 0.0562210
1780.88, 0.0562210
1781.5, 0.0562580
1782.11, 0.0561460
1782.72, 0.0558470
1783.33, 0.0558470
1783.95, 0.0558840
1784.56, 0.0559590
1785.18, 0.0560340
1785.79, 0.0560710
1786.41, 0.0560710
1787.02, 0.0561460
1787.64, 0.0562210
1788.26, 0.0560710
1788.87, 0.0559960
1789.49, 0.0558470
1790.11, 0.0558090
1790.73, 0.0558090
1791.35, 0.0557720
1791.96, 0.0558840
1792.58, 0.0559960
1793.21, 0.0558840
1793.83, 0.0557340
1794.45, 0.0558090
1795.07, 0.0557340
1795.69, 0.0557720
1796.31, 0.0556970
1796.93, 0.0556600
1797.56, 0.0556600
1798.18, 0.0556970
1798.8, 0.0557340
1799.43, 0.0557720
1800.05, 0.0557340
1800.68, 0.0555850
1801.3, 0.0553230
1801.93, 0.0552480
1802.56, 0.0553230
1803.18, 0.0554720
1803.81, 0.0556220
1804.44, 0.0556220
1805.07, 0.0555850
1805.7, 0.0554720
1806.33, 0.0553600
1806.95, 0.0553970
1807.58, 0.0553600
1808.22, 0.0553600
1808.85, 0.0552850
1809.48, 0.0551730
1810.11, 0.0549860
1810.74, 0.0548730
1811.38, 0.0549860
1812.01, 0.0552100
1812.64, 0.0553970
1813.28, 0.0553600
1813.91, 0.0550610
1814.55, 0.0550610
1815.18, 0.0551730
1815.82, 0.0551350
1816.45, 0.0550980
1817.09, 0.0553230
1817.73, 0.0553230
1818.36, 0.0550980
1819.0, 0.0552100
1819.64, 0.0552480
1820.28, 0.0549860
1820.92, 0.0549110
1821.56, 0.0550230
1822.2, 0.0549110
1822.84, 0.0547610
1823.48, 0.0547240
1824.12, 0.0547240
1824.76, 0.0547610
1825.41, 0.0548360
1826.05, 0.0550230
1826.69, 0.0550610
1827.34, 0.0549480
1827.98, 0.0547990
1828.63, 0.0547610
1829.27, 0.0549480
1829.92, 0.0548730
1830.56, 0.0547240
1831.21, 0.0547990
1831.86, 0.0545740
1832.5, 0.0543120
1833.15, 0.0543490
1833.8, 0.0543870
1834.45, 0.0544620
1835.1, 0.0545740
1835.75, 0.0546110
1836.4, 0.0546110
1837.05, 0.0545740
1837.7, 0.0543870
1838.35, 0.0543490
1839.01, 0.0544990
1839.66, 0.0545370
1840.31, 0.0544240
1840.96, 0.0543490
1841.62, 0.0544240
1842.27, 0.0543870
1842.93, 0.0542750
1843.58, 0.0542370
1844.24, 0.0541620
1844.9, 0.0543490
1845.55, 0.0546110
1846.21, 0.0546490
1846.87, 0.0544620
1847.53, 0.0542750
1848.18, 0.0543120
1848.84, 0.0543490
1849.5, 0.0542750
1850.16, 0.0540500
1850.82, 0.0539380
1851.48, 0.0539750
1852.14, 0.0540130
1852.81, 0.0540130
1853.47, 0.0541250
1854.13, 0.0542370
1854.8, 0.0540500
1855.46, 0.0538250
1856.12, 0.0537880
1856.79, 0.0538250
1857.45, 0.0537510
1858.12, 0.0536380
1858.79, 0.0537130
1859.45, 0.0541620
1860.12, 0.0541250
1860.79, 0.0537510
1861.46, 0.0535260
1862.12, 0.0535630
1862.79, 0.0536010
1863.46, 0.0535630
1864.13, 0.0537130
1864.8, 0.0538630
1865.48, 0.0539380
1866.15, 0.0537880
1866.82, 0.0536760
1867.49, 0.0538250
1868.16, 0.0538630
1868.84, 0.0537510
1869.51, 0.0535630
1870.19, 0.0535260
1870.86, 0.0538250
1871.54, 0.0537880
1872.21, 0.0536380
1872.89, 0.0537130
1873.56, 0.0537510
1874.24, 0.0534510
1874.92, 0.0531890
1875.6, 0.0530390
1876.28, 0.0531520
1876.96, 0.0533390
1877.64, 0.0533390
1878.32, 0.0533390
1879.0, 0.0533760
1879.68, 0.0534140
1880.36, 0.0533760
1881.04, 0.0531890
1881.73, 0.0531890
1882.41, 0.0532270
1883.09, 0.0532270
1883.78, 0.0532640
1884.46, 0.0532270
1885.15, 0.0532640
1885.83, 0.0531140
1886.52, 0.0529270
1887.21, 0.0530020
1887.89, 0.0531140
1888.58, 0.0530770
1889.27, 0.0531890
1889.96, 0.0534510
1890.65, 0.0533010
1891.34, 0.0531140
1892.03, 0.0531890
1892.72, 0.0532270
1893.41, 0.0531890
1894.1, 0.0531140
1894.79, 0.0529270
1895.49, 0.0530020
1896.18, 0.0531140
1896.87, 0.0531890
1897.57, 0.0531520
1898.26, 0.0531520
1898.96, 0.0529640
1899.65, 0.0529270
1900.35, 0.0530020
1901.05, 0.0529270
1901.74, 0.0528520
1902.44, 0.0531520
1903.14, 0.0532270
1903.84, 0.0530390
1904.54, 0.0530390
1905.24, 0.0531140
1905.94, 0.0529640
1906.64, 0.0530020
1907.34, 0.0529640
1908.04, 0.0528150
1908.75, 0.0527770
1909.45, 0.0529270
1910.15, 0.0528900
1910.86, 0.0527770
1911.56, 0.0528520
1912.27, 0.0530020
1912.97, 0.0528900
1913.68, 0.0527400
1914.39, 0.0527400
1915.09, 0.0527020
1915.8, 0.0527400
1916.51, 0.0527020
1917.22, 0.0526650
1917.93, 0.0526650
1918.64, 0.0527400
1919.35, 0.0528150
1920.06, 0.0528520
1920.77, 0.0529270
1921.48, 0.0528900
1922.19, 0.0527770
1922.91, 0.0527770
1923.62, 0.0528520
1924.33, 0.0528520
1925.05, 0.0529270
1925.76, 0.0528520
1926.48, 0.0526650
1927.19, 0.0526280
1927.91, 0.0526650
1928.63, 0.0525530
1929.35, 0.0525530
1930.07, 0.0525900
1930.78, 0.0525900
1931.5, 0.0525530
1932.22, 0.0524780
1932.94, 0.0524030
1933.66, 0.0522910
1934.39, 0.0523280
1935.11, 0.0524780
1935.83, 0.0524780
1936.55, 0.0525530
1937.28, 0.0525150
1938.0, 0.0525150
1938.73, 0.0525150
1939.45, 0.0524400
1940.18, 0.0524780
1940.9, 0.0524780
1941.63, 0.0524400
1942.36, 0.0524780
1943.09, 0.0524780
1943.81, 0.0523660
1944.54, 0.0523660
1945.27, 0.0523280
1946.0, 0.0523280
1946.73, 0.0523660
1947.47, 0.0522530
1948.2, 0.0521780
1948.93, 0.0521410
1949.66, 0.0521410
1950.4, 0.0521410
1951.13, 0.0522160
1951.86, 0.0522910
1952.6, 0.0522160
1953.34, 0.0521780
1954.07, 0.0520660
1954.81, 0.0521040
1955.55, 0.0521780
1956.29, 0.0521780
1957.02, 0.0522530
1957.76, 0.0521780
1958.5, 0.0520660
1959.24, 0.0521040
1959.98, 0.0522530
1960.72, 0.0521780
1961.47, 0.0520660
1962.21, 0.0519910
1962.95, 0.0520290
1963.7, 0.0521040
1964.44, 0.0520660
1965.18, 0.0520660
1965.93, 0.0521410
1966.67, 0.0521780
1967.42, 0.0521040
1968.17, 0.0519540
1968.92, 0.0520660
1969.66, 0.0520290
1970.41, 0.0518420
1971.16, 0.0519160
1971.91, 0.0521410
1972.66, 0.0521040
1973.41, 0.0521040
1974.16, 0.0521040
1974.92, 0.0520660
1975.67, 0.0519910
1976.42, 0.0519910
1977.18, 0.0521040
1977.93, 0.0520660
1978.69, 0.0518790
1979.44, 0.0518790
1980.2, 0.0518790
1980.95, 0.0519540
1981.71, 0.0520660
1982.47, 0.0519540
1983.23, 0.0519910
1983.99, 0.0522160
1984.74, 0.0521040
1985.51, 0.0518420
1986.27, 0.0517290
1987.03, 0.0518790
1987.79, 0.0518420
1988.55, 0.0518790
1989.32, 0.0518790
1990.08, 0.0518040
1990.84, 0.0516920
1991.61, 0.0517670
1992.37, 0.0519910
1993.14, 0.0519160
1993.9, 0.0519160
1994.67, 0.0519540
1995.44, 0.0518790
1996.21, 0.0518790
1996.98, 0.0518790
1997.75, 0.0519910
1998.52, 0.0519540
1999.29, 0.0517670
2000.06, 0.0517670
2000.83, 0.0519160
2001.6, 0.0520290
2002.38, 0.0519910
2003.15, 0.0519160
2003.93, 0.0519160
2004.7, 0.0519540
2005.48, 0.0519910
2006.25, 0.0519540
2007.03, 0.0519160
2007.81, 0.0519160
2008.58, 0.0519160
2009.36, 0.0518420
2010.14, 0.0519160
2010.92, 0.0520660
2011.7, 0.0521780
2012.48, 0.0522160
2013.26, 0.0521040
2014.05, 0.0519540
2014.83, 0.0520660
2015.61, 0.0521040
2016.4, 0.0520290
2017.18, 0.0520660
2017.97, 0.0520660
2018.75, 0.0521040
2019.54, 0.0520290
2020.32, 0.0519910
2021.11, 0.0520290
2021.9, 0.0520290
2022.69, 0.0520290
2023.48, 0.0519910
2024.27, 0.0518790
2025.06, 0.0519540
2025.85, 0.0519910
2026.64, 0.0520290
2027.44, 0.0521780
2028.23, 0.0523280
2029.02, 0.0522160
2029.82, 0.0519910
2030.61, 0.0519910
2031.41, 0.0520660
2032.2, 0.0521410
2033.0, 0.0522530
2033.8, 0.0522910
2034.6, 0.0522160
2035.4, 0.0523280
2036.2, 0.0523280
2037.0, 0.0521780
2037.8, 0.0521040
2038.6, 0.0520660
2039.4, 0.0521410
2040.2, 0.0522530
2041.01, 0.0523660
2041.81, 0.0523660
2042.61, 0.0522160
2043.42, 0.0521780
2044.22, 0.0520660
2045.03, 0.0521040
2045.84, 0.0521040
2046.65, 0.0521410
2047.46, 0.0521780
2048.26, 0.0521410
2049.07, 0.0522910
2049.88, 0.0524780
2050.69, 0.0524030
2051.51, 0.0521780
2052.32, 0.0520660
2053.13, 0.0523660
2053.94, 0.0524030
2054.76, 0.0521040
2055.57, 0.0521410
2056.39, 0.0522910
2057.2, 0.0522910
2058.02, 0.0523280
2058.84, 0.0521780
2059.66, 0.0521410
2060.48, 0.0522530
2061.29, 0.0522910
2062.11, 0.0521780
2062.94, 0.0522530
2063.76, 0.0522160
2064.58, 0.0523280
2065.4, 0.0524030
2066.22, 0.0522910
2067.05, 0.0522910
2067.87, 0.0522530
2068.7, 0.0521410
2069.52, 0.0522530
2070.35, 0.0522530
2071.18, 0.0523280
2072.0, 0.0523660
2072.83, 0.0522530
2073.66, 0.0522910
2074.49, 0.0523280
2075.32, 0.0522530
2076.15, 0.0521780
2076.98, 0.0521780
2077.82, 0.0522160
2078.65, 0.0523280
2079.48, 0.0524780
2080.32, 0.0524030
2081.15, 0.0524400
2081.99, 0.0523280
2082.83, 0.0523660
2083.66, 0.0524030
2084.5, 0.0523280
2085.34, 0.0522910
2086.18, 0.0523280
2087.02, 0.0524780
2087.86, 0.0524780
2088.7, 0.0524030
2089.54, 0.0524030
2090.39, 0.0524780
2091.23, 0.0524780
2092.07, 0.0523660
2092.92, 0.0523280
2093.76, 0.0524030
2094.61, 0.0523660
2095.45, 0.0522910
2096.3, 0.0524030
2097.15, 0.0525150
2098.0, 0.0525150
2098.85, 0.0522910
2099.7, 0.0521780
2100.55, 0.0522530
2101.4, 0.0523280
2102.25, 0.0522530
2103.1, 0.0523280
2103.96, 0.0522530
2104.81, 0.0523280
2105.67, 0.0524030
2106.52, 0.0522530
2107.38, 0.0521780
2108.24, 0.0523660
2109.09, 0.0522910
2109.95, 0.0522530
2110.81, 0.0522530
2111.67, 0.0522910
2112.53, 0.0522910
2113.39, 0.0522160
2114.25, 0.0522160
2115.12, 0.0523660
2115.98, 0.0524030
2116.84, 0.0524400
2117.71, 0.0524030
2118.58, 0.0524400
2119.44, 0.0524400
2120.31, 0.0523660
2121.18, 0.0522530
2122.04, 0.0522530
2122.91, 0.0522530
2123.78, 0.0524400
2124.65, 0.0522910
2125.52, 0.0521410
2126.4, 0.0523280
2127.27, 0.0524780
2128.14, 0.0524400
2129.02, 0.0523280
2129.89, 0.0522910
2130.77, 0.0522910
2131.64, 0.0522910
2132.52, 0.0522910
2133.4, 0.0523280
2134.27, 0.0523660
2135.15, 0.0523280
2136.03, 0.0523280
2136.91, 0.0523280
2137.79, 0.0524030
2138.68, 0.0524400
2139.56, 0.0524400
2140.44, 0.0523280
2141.33, 0.0523660
2142.21, 0.0524030
2143.1, 0.0522910
2143.99, 0.0522910
2144.87, 0.0525150
2145.76, 0.0524400
2146.65, 0.0523280
2147.54, 0.0522910
2148.43, 0.0522530
2149.32, 0.0523660
2150.21, 0.0525150
2151.1, 0.0524030
2151.99, 0.0522160
2152.89, 0.0521780
2153.78, 0.0523280
2154.68, 0.0523280
2155.57, 0.0522910
2156.47, 0.0523660
2157.37, 0.0524030
2158.27, 0.0523280
2159.16, 0.0524030
2160.06, 0.0526280
2160.96, 0.0525530
2161.86, 0.0523660
2162.77, 0.0524400
2163.67, 0.0524780
2164.57, 0.0524780
2165.48, 0.0524400
2166.38, 0.0523660
2167.29, 0.0521780
2168.2, 0.0521780
2169.1, 0.0522910
2170.01, 0.0522530
2170.92, 0.0522160
2171.83, 0.0523280
2172.74, 0.0524030
2173.65, 0.0523660
2174.56, 0.0522530
2175.47, 0.0522910
2176.39, 0.0524030
2177.3, 0.0524400
2178.22, 0.0524030
2179.13, 0.0522910
2180.05, 0.0522910
2180.96, 0.0524780
2181.88, 0.0524780
2182.8, 0.0524030
2183.72, 0.0522530
2184.64, 0.0521780
2185.56, 0.0521780
2186.48, 0.0522160
2187.41, 0.0522530
2188.33, 0.0522530
2189.25, 0.0522530
2190.18, 0.0522530
2191.1, 0.0522910
2192.03, 0.0523280
2192.96, 0.0522160
2193.89, 0.0523660
2194.82, 0.0524030
2195.74, 0.0522910
2196.68, 0.0522910
2197.61, 0.0522530
2198.54, 0.0522530
2199.47, 0.0522910
2200.4, 0.0522160
2201.34, 0.0522160
2202.28, 0.0521780
2203.21, 0.0521410
2204.15, 0.0521410
2205.08, 0.0521410
2206.02, 0.0521040
2206.96, 0.0519910
2207.9, 0.0519910
2208.84, 0.0521040
2209.78, 0.0520660
2210.73, 0.0520290
2211.67, 0.0520660
2212.61, 0.0520290
2213.56, 0.0520290
2214.5, 0.0521780
2215.45, 0.0522910
2216.4, 0.0522910
2217.35, 0.0522160
2218.3, 0.0522910
2219.24, 0.0523280
2220.2, 0.0521410
2221.15, 0.0518790
2222.1, 0.0518040
2223.05, 0.0518790
2224.0, 0.0520290
2224.96, 0.0520290
2225.91, 0.0519540
2226.87, 0.0519160
2227.83, 0.0519160
2228.79, 0.0518040
2229.74, 0.0517670
2230.7, 0.0518040
2231.66, 0.0517290
2232.63, 0.0515420
2233.59, 0.0514300
2234.55, 0.0515050
2235.51, 0.0515420
2236.48, 0.0516170
2237.44, 0.0515420
2238.41, 0.0513550
2239.38, 0.0513180
2240.34, 0.0513180
2241.31, 0.0512800
2242.28, 0.0511680
2243.25, 0.0510560
2244.22, 0.0511300
2245.19, 0.0512430
2246.17, 0.0512050
2247.14, 0.0511300
2248.12, 0.0510930
2249.09, 0.0510560
2250.07, 0.0510180
2251.04, 0.0511680
2252.02, 0.0512050
2253.0, 0.0510930
2253.98, 0.0510930
2254.96, 0.0510930
2255.94, 0.0511680
2256.92, 0.0512050
2257.91, 0.0511680
2258.89, 0.0510560
2259.88, 0.0510180
2260.86, 0.0511300
2261.85, 0.0511300
2262.83, 0.0510560
2263.82, 0.0510560
2264.81, 0.0511680
2265.8, 0.0512050
2266.79, 0.0510560
2267.78, 0.0509060
2268.78, 0.0509430
2269.77, 0.0510180
2270.76, 0.0511680
2271.76, 0.0512430
2272.75, 0.0512430
2273.75, 0.0512050
2274.75, 0.0512050
2275.75, 0.0512800
2276.75, 0.0512430
2277.75, 0.0512050
2278.75, 0.0512430
2279.75, 0.0511680
2280.75, 0.0510560
2281.76, 0.0510930
2282.76, 0.0511680
2283.77, 0.0512800
2284.77, 0.0512430
2285.78, 0.0509430
2286.79, 0.0507940
2287.8, 0.0509060
2288.81, 0.0508680
2289.82, 0.0507560
2290.83, 0.0507190
2291.84, 0.0506440
2292.86, 0.0505690
2293.87, 0.0506060
2294.89, 0.0506440
2295.91, 0.0506060
2296.92, 0.0505690
2297.94, 0.0505690
2298.96, 0.0506060
2299.98, 0.0505690
2301.0, 0.0505690
2302.02, 0.0506440
2303.04, 0.0506810
2304.07, 0.0507560
2305.09, 0.0507560
2306.12, 0.0506810
2307.15, 0.0506810
2308.17, 0.0508310
2309.2, 0.0507940
2310.23, 0.0506440
2311.26, 0.0506060
2312.29, 0.0505310
2313.32, 0.0504570
2314.35, 0.0504570
2315.39, 0.0503440
2316.42, 0.0503440
2317.46, 0.0503820
2318.5, 0.0503440
2319.53, 0.0503070
2320.57, 0.0503440
2321.61, 0.0503440
2322.65, 0.0503440
2323.69, 0.0503440
2324.73, 0.0503070
2325.78, 0.0502320
2326.82, 0.0500820
2327.86, 0.0501200
2328.91, 0.0502690
2329.96, 0.0502320
2331.01, 0.0502320
2332.05, 0.0502690
2333.1, 0.0503820
2334.15, 0.0505690
2335.21, 0.0504940
2336.26, 0.0504570
2337.31, 0.0505310
2338.36, 0.0506060
2339.42, 0.0506060
2340.48, 0.0507190
2341.53, 0.0507560
2342.59, 0.0507560
2343.65, 0.0508310
2344.71, 0.0509430
2345.77, 0.0509060
2346.83, 0.0509430
2347.9, 0.0509430
2348.96, 0.0509810
2350.02, 0.0510180
2351.09, 0.0510930
2352.16, 0.0511680
2353.23, 0.0512050
2354.29, 0.0510560
2355.36, 0.0510560
2356.43, 0.0512430
2357.51, 0.0513550
2358.58, 0.0514300
2359.65, 0.0513920
2360.73, 0.0513180
2361.8, 0.0514300
2362.88, 0.0515420
2363.96, 0.0514670
2365.03, 0.0515420
2366.11, 0.0518040
2367.19, 0.0519910
2368.27, 0.0519910
2369.36, 0.0518980
2370.44, 0.0519450
2371.53, 0.0521770
2372.61, 0.0522700
2373.7, 0.0523630
2374.78, 0.0523170
2375.87, 0.0523630
2376.96, 0.0523170
2378.05, 0.0523170
2379.14, 0.0525490
2380.24, 0.0525020
2381.33, 0.0521310
2382.42, 0.0520840
2383.52, 0.0522240
2384.61, 0.0525020
2385.71, 0.0524560
2386.81, 0.0520840
2387.91, 0.0519450
2389.01, 0.0522700
2390.11, 0.0526420
2391.22, 0.0525950
2392.32, 0.0524090
2393.42, 0.0523170
2394.53, 0.0524090
2395.64, 0.0526420
2396.74, 0.0527350
2397.85, 0.0527810
2398.96, 0.0527810
2400.07, 0.0527810
2401.18, 0.0529210
2402.3, 0.0530130
2403.41, 0.0530600
2404.52, 0.0530600
2405.64, 0.0530600
2406.76, 0.0532460
2407.88, 0.0534780
2408.99, 0.0531990
2410.11, 0.0531060
2411.23, 0.0532460
2412.36, 0.0534320
2413.48, 0.0536170
2414.6, 0.0535250
2415.73, 0.0534320
2416.85, 0.0534780
2417.98, 0.0533850
2419.11, 0.0532920
2420.24, 0.0532920
2421.37, 0.0533850
2422.5, 0.0532920
2423.64, 0.0531990
2424.77, 0.0532920
2425.9, 0.0533850
2427.04, 0.0531530
2428.18, 0.0533390
2429.31, 0.0536170
2430.45, 0.0533390
2431.59, 0.0530130
2432.73, 0.0531060
2433.88, 0.0532920
2435.02, 0.0532460
2436.16, 0.0532460
2437.31, 0.0532460
2438.45, 0.0532920
2439.6, 0.0535250
2440.75, 0.0535710
2441.9, 0.0532460
2443.05, 0.0531530
2444.2, 0.0531990
2445.35, 0.0531060
2446.51, 0.0531060
2447.67, 0.0531530
2448.82, 0.0529670
2449.98, 0.0529210
2451.14, 0.0534320
2452.3, 0.0534780
2453.46, 0.0530130
2454.62, 0.0529670
2455.78, 0.0531530
2456.94, 0.0530600
2458.11, 0.0529210
2459.28, 0.0530600
2460.44, 0.0530600
2461.61, 0.0530130
2462.78, 0.0531060
2463.95, 0.0531990
2465.12, 0.0531060
2466.3, 0.0530600
2467.47, 0.0530130
2468.65, 0.0528740
2469.82, 0.0530600
2471.0, 0.0530600
2472.18, 0.0528740
2473.36, 0.0531990
2474.54, 0.0534320
2475.72, 0.0532460
2476.9, 0.0532920
2478.08, 0.0532920
2479.27, 0.0533390
2480.46, 0.0534320
2481.64, 0.0531530
2482.83, 0.0532920
2484.02, 0.0536170
2485.21, 0.0535250
2486.4, 0.0532460
2487.6, 0.0532920
2488.79, 0.0533850
2489.99, 0.0535710
2491.18, 0.0536170
2492.38, 0.0534320
2493.58, 0.0532920
2494.78, 0.0532460
2495.98, 0.0532920
2497.18, 0.0533850
2498.39, 0.0536170
2499.59, 0.0537100
2500.8, 0.0538500
2502.01, 0.0538030
2503.21, 0.0535250
2504.42, 0.0534780
2505.63, 0.0536170
2506.84, 0.0538030
2508.06, 0.0536640
2509.27, 0.0535710
2510.49, 0.0536640
2511.7, 0.0538030
2512.92, 0.0536640
2514.14, 0.0535710
2515.36, 0.0535710
2516.58, 0.0536170
2517.8, 0.0535710
2519.03, 0.0535710
2520.25, 0.0537100
2521.48, 0.0535710
2522.7, 0.0536170
2523.93, 0.0537100
2525.16, 0.0536640
2526.39, 0.0535710
2527.62, 0.0536170
2528.86, 0.0535710
2530.09, 0.0536640
2531.33, 0.0538500
2532.56, 0.0537570
2533.8, 0.0535710
2535.04, 0.0535710
2536.28, 0.0537570
2537.52, 0.0536640
2538.76, 0.0536640
2540.01, 0.0538030
2541.25, 0.0539890
2542.5, 0.0541750
2543.75, 0.0541750
2544.99, 0.0540360
2546.24, 0.0539430
2547.49, 0.0539890
2548.75, 0.0538960
2550.0, 0.0538960
2551.26, 0.0539890
2552.51, 0.0541750
2553.77, 0.0540820
2555.03, 0.0538960
2556.29, 0.0541290
2557.55, 0.0540360
2558.81, 0.0537570
2560.08, 0.0543140
2561.34, 0.0548250
2562.61, 0.0547790
2563.88, 0.0549180
2565.14, 0.0546400
2566.41, 0.0539890
2567.68, 0.0538960
2568.96, 0.0542210
2570.23, 0.0542680
2571.51, 0.0539890
2572.78, 0.0545470
2574.06, 0.0547790
2575.34, 0.0544070
2576.62, 0.0545930
2577.9, 0.0544540
2579.18, 0.0542210
2580.47, 0.0545000
2581.75, 0.0546400
2583.04, 0.0551970
2584.32, 0.0554760
2585.61, 0.0547330
2586.9, 0.0546860
2588.2, 0.0547790
2589.49, 0.0547330
2590.78, 0.0546400
2592.08, 0.0545930
2593.37, 0.0555690
2594.67, 0.0568230
2595.97, 0.0558940
2597.27, 0.0546860
2598.57, 0.0544540
2599.88, 0.0545470
2601.18, 0.0547330
2602.49, 0.0549650
2603.79, 0.0551510
2605.1, 0.0556620
2606.41, 0.0555690
2607.72, 0.0551040
2609.03, 0.0549180
2610.35, 0.0547790
2611.66, 0.0546860
2612.98, 0.0551040
2614.3, 0.0550580
2615.62, 0.0553830
2616.94, 0.0561260
2618.26, 0.0556150
2619.58, 0.0556620
2620.91, 0.0558480
2622.23, 0.0548720
2623.56, 0.0546400
2624.89, 0.0549650
2626.22, 0.0556620
2627.55, 0.0555220
2628.88, 0.0556620
2630.21, 0.0564050
2631.55, 0.0557080
2632.89, 0.0551040
2634.22, 0.0552900
2635.56, 0.0549650
2636.9, 0.0547330
2638.25, 0.0546400
2639.59, 0.0547330
2640.93, 0.0549180
2642.28, 0.0551970
2643.63, 0.0551040
2644.98, 0.0552440
2646.33, 0.0552440
2647.68, 0.0550110
2649.03, 0.0548720
2650.39, 0.0548250
2651.74, 0.0550580
2653.1, 0.0552900
2654.46, 0.0552440
2655.82, 0.0552440
2657.18, 0.0549180
2658.54, 0.0549650
2659.9, 0.0551510
2661.27, 0.0551510
2662.64, 0.0552900
2664.01, 0.0558480
2665.38, 0.0564050
2666.74, 0.0564050
2668.12, 0.0556620
2669.49, 0.0563120
2670.87, 0.0567300
2672.24, 0.0552440
2673.62, 0.0549180
2675.0, 0.0551510
2676.38, 0.0555690
2677.76, 0.0555220
2679.15, 0.0553370
2680.54, 0.0546400
2681.92, 0.0543610
2683.31, 0.0545470
2684.7, 0.0543140
2686.09, 0.0540820
2687.48, 0.0539890
2688.88, 0.0536170
2690.27, 0.0531990
2691.67, 0.0531060
2693.07, 0.0537570
2694.47, 0.0538960
2695.87, 0.0533850
2697.27, 0.0526880
2698.67, 0.0521310
2700.08, 0.0519450
2701.49, 0.0516200
2702.9, 0.0510160
2704.31, 0.0501790
2705.72, 0.0490180
2707.13, 0.0477630
2708.54, 0.0465550
2709.96, 0.0455790
2711.38, 0.0443710
2712.8, 0.0428850
2714.22, 0.0422810
2715.64, 0.0419550
2717.06, 0.0417230
2718.49, 0.0417700
2719.91, 0.0425590
2721.34, 0.0426520
2722.77, 0.0423270
2724.2, 0.0426060
2725.63, 0.0423740
2727.07, 0.0418160
2728.5, 0.0417700
2729.94, 0.0419550
2731.38, 0.0421880
2732.82, 0.0422810
2734.26, 0.0423270
2735.7, 0.0420950
2737.15, 0.0419090
2738.59, 0.0423740
2740.04, 0.0426060
2741.49, 0.0423270
2742.94, 0.0416770
2744.39, 0.0412590
2745.84, 0.0412120
2747.3, 0.0409330
2748.76, 0.0407470
2750.21, 0.0407470
2751.67, 0.0407010
2753.14, 0.0407940
2754.6, 0.0412590
2756.06, 0.0411660
2757.53, 0.0403760
2759.0, 0.0400040
2760.46, 0.0399580
2761.94, 0.0401430
2763.41, 0.0398650
2764.88, 0.0394000
2766.36, 0.0394460
2767.83, 0.0393540
2769.31, 0.0390280
2770.79, 0.0387960
2772.27, 0.0384240
2773.76, 0.0380530
2775.24, 0.0378200
2776.73, 0.0378200
2778.22, 0.0376810
2779.71, 0.0374020
2781.2, 0.0373560
2782.69, 0.0372160
2784.18, 0.0369840
2785.68, 0.0371230
2787.18, 0.0372630
2788.68, 0.0369380
2790.18, 0.0365190
2791.68, 0.0363800
2793.19, 0.0363800
2794.69, 0.0363800
2796.2, 0.0363800
2797.71, 0.0364260
2799.22, 0.0362870
2800.73, 0.0361940
2802.24, 0.0364730
2803.76, 0.0366590
2805.28, 0.0366120
2806.8, 0.0364730
2808.32, 0.0361940
2809.84, 0.0361480
2811.36, 0.0363340
2812.89, 0.0362870
2814.42, 0.0363340
2815.94, 0.0364260
2817.48, 0.0364260
2819.01, 0.0364260
2820.54, 0.0365190
2822.08, 0.0366120
2823.61, 0.0364730
2825.15, 0.0364730
2826.69, 0.0366590
2828.23, 0.0366590
2829.78, 0.0364730
2831.32, 0.0365660
2832.87, 0.0368450
2834.42, 0.0370300
2835.97, 0.0368450
2837.52, 0.0368910
2839.08, 0.0370300
2840.63, 0.0370300
2842.19, 0.0370300
2843.75, 0.0369840
2845.31, 0.0370300
2846.87, 0.0372630
2848.44, 0.0373090
2850.0, 0.0372630
2851.57, 0.0372630
2853.14, 0.0374950
2854.71, 0.0375880
2856.28, 0.0374020
2857.86, 0.0373090
2859.43, 0.0374020
2861.01, 0.0374020
2862.59, 0.0373560
2864.17, 0.0374020
2865.76, 0.0373560
2867.34, 0.0372160
2868.93, 0.0372160
2870.52, 0.0372630
2872.11, 0.0371700
2873.7, 0.0371700
2875.29, 0.0371700
2876.89, 0.0370770
2878.49, 0.0370300
2880.08, 0.0370300
2881.69, 0.0370770
2883.29, 0.0368910
2884.89, 0.0368910
2886.5, 0.0367980
2888.11, 0.0365660
2889.72, 0.0364730
2891.33, 0.0365660
2892.94, 0.0366120
2894.56, 0.0366120
2896.17, 0.0366120
2897.79, 0.0366120
2899.42, 0.0365190
2901.04, 0.0366120
2902.66, 0.0365190
2904.29, 0.0364260
2905.92, 0.0364730
2907.55, 0.0364730
2909.18, 0.0363800
2910.81, 0.0363800
2912.45, 0.0364260
2914.08, 0.0363340
2915.72, 0.0362410
2917.36, 0.0362410
2919.01, 0.0362870
2920.65, 0.0363340
2922.3, 0.0362870
2923.94, 0.0361940
2925.59, 0.0361940
2927.25, 0.0362870
2928.9, 0.0364260
2930.56, 0.0364260
2932.21, 0.0361940
2933.87, 0.0361480
2935.53, 0.0363800
2937.2, 0.0365190
2938.86, 0.0363800
2940.53, 0.0362870
2942.2, 0.0363340
2943.87, 0.0363800
2945.54, 0.0364260
2947.22, 0.0366120
2948.89, 0.0367050
2950.57, 0.0367520
2952.25, 0.0368450
2953.93, 0.0368450
2955.62, 0.0368450
2957.3, 0.0370300
2958.99, 0.0369840
2960.68, 0.0368910
2962.37, 0.0369380
2964.07, 0.0369840
2965.76, 0.0369840
2967.46, 0.0369840
2969.16, 0.0370300
2970.86, 0.0370770
2972.56, 0.0371700
2974.27, 0.0373560
2975.98, 0.0373560
2977.69, 0.0373090
2979.4, 0.0374020
2981.11, 0.0374950
2982.83, 0.0374950
2984.54, 0.0376340
2986.26, 0.0378200
2987.98, 0.0378670
2989.71, 0.0379130
2991.43, 0.0380060
2993.16, 0.0380060
2994.89, 0.0380530
2996.62, 0.0381460
2998.35, 0.0381920
3000.09, 0.0381920
3001.83, 0.0381920
3003.57, 0.0383310
3005.31, 0.0384240
3007.05, 0.0384240
3008.79, 0.0386100
3010.54, 0.0387030
3012.29, 0.0387500
3014.04, 0.0387500
3015.8, 0.0388420
3017.55, 0.0389350
3019.31, 0.0389350
3021.07, 0.0390750
3022.83, 0.0391680
3024.59, 0.0391680
3026.36, 0.0393540
3028.13, 0.0395860
3029.9, 0.0395860
3031.67, 0.0395860
3033.44, 0.0397250
3035.22, 0.0398180
3037.0, 0.0400040
3038.78, 0.0400500
3040.56, 0.0400970
3042.34, 0.0400970
3044.13, 0.0402830
3045.92, 0.0403760
3047.71, 0.0403290
3049.5, 0.0404220
3051.3, 0.0405150
3053.09, 0.0405620
3054.89, 0.0407010
3056.69, 0.0407940
3058.5, 0.0407940
3060.3, 0.0408400
3062.11, 0.0409330
3063.92, 0.0411190
3065.73, 0.0412590
3067.55, 0.0412590
3069.36, 0.0413050
3071.18, 0.0413980
3073.0, 0.0413980
3074.82, 0.0415840
3076.65, 0.0417700
3078.48, 0.0418160
3080.31, 0.0419090
3082.14, 0.0419090
3083.97, 0.0420480
3085.8, 0.0421880
3087.64, 0.0422340
3089.48, 0.0423740
3091.33, 0.0423740
3093.17, 0.0424670
3095.02, 0.0425130
3096.87, 0.0426520
3098.72, 0.0426520
3100.57, 0.0426520
3102.43, 0.0429310
3104.28, 0.0429780
3106.14, 0.0430240
3108.01, 0.0433030
3109.87, 0.0434890
3111.74, 0.0433960
3113.61, 0.0433960
3115.48, 0.0435350
3117.35, 0.0436750
3119.23, 0.0437670
3121.1, 0.0438140
3122.98, 0.0438600
3124.87, 0.0438600
3126.75, 0.0439530
3128.64, 0.0442320
3130.53, 0.0443250
3132.42, 0.0443710
3134.31, 0.0444180
3136.21, 0.0444180
3138.11, 0.0445570
3140.01, 0.0446040
3141.91, 0.0446040
3143.82, 0.0447430
3145.73, 0.0448830
3147.64, 0.0448360
3149.55, 0.0449290
3151.46, 0.0450680
3153.38, 0.0450680
3155.3, 0.0450220
3157.22, 0.0451610
3159.14, 0.0453470
3161.07, 0.0453940
3163.0, 0.0455330
3164.93, 0.0456720
3166.86, 0.0457190
3168.8, 0.0458120
3170.74, 0.0459050
3172.68, 0.0459980
3174.62, 0.0460910
3176.56, 0.0463230
3178.51, 0.0464160
3180.46, 0.0464620
3182.42, 0.0465550
3184.37, 0.0465550
3186.33, 0.0466480
3188.29, 0.0467880
3190.25, 0.0468800
3192.21, 0.0469730
3194.18, 0.0469730
3196.15, 0.0470200
3198.12, 0.0471130
3200.09, 0.0472520
3202.07, 0.0474380
3204.05, 0.0475770
3206.03, 0.0476700
3208.02, 0.0477170
3210.0, 0.0477170
3211.99, 0.0477630
3213.98, 0.0478560
3215.98, 0.0480420
3217.97, 0.0481350
3219.97, 0.0481810
3221.97, 0.0483210
3223.98, 0.0484140
3225.98, 0.0484600
3227.99, 0.0486000
3230.0, 0.0487390
3232.02, 0.0488780
3234.03, 0.0488780
3236.05, 0.0490180
3238.07, 0.0492040
3240.1, 0.0492500
3242.12, 0.0492040
3244.15, 0.0492500
3246.18, 0.0493430
3248.22, 0.0493430
3250.25, 0.0495750
3252.29, 0.0497150
3254.33, 0.0498080
3256.38, 0.0498080
3258.43, 0.0499000
3260.47, 0.0499930
3262.53, 0.0500400
3264.58, 0.0501330
3266.64, 0.0502260
3268.7, 0.0503190
3270.76, 0.0505040
3272.82, 0.0505510
3274.89, 0.0506440
3276.96, 0.0507830
3279.04, 0.0509230
3281.11, 0.0510160
3283.19, 0.0510620
3285.27, 0.0512010
3287.35, 0.0513410
3289.44, 0.0513870
3291.53, 0.0514340
3293.62, 0.0514800
3295.71, 0.0516660
3297.81, 0.0518520
3299.91, 0.0519450
3302.01, 0.0519450
3304.11, 0.0520380
3306.22, 0.0521770
3308.33, 0.0522240
3310.44, 0.0522700
3312.56, 0.0523170
3314.68, 0.0524560
3316.8, 0.0526420
3318.92, 0.0527350
3321.05, 0.0528280
3323.18, 0.0527810
3325.31, 0.0528280
3327.44, 0.0530600
3329.58, 0.0531990
3331.72, 0.0532920
3333.86, 0.0533390
3336.01, 0.0534320
3338.16, 0.0535250
3340.31, 0.0536170
3342.46, 0.0536640
3344.61, 0.0538030
3346.77, 0.0540820
3348.94, 0.0541290
3351.1, 0.0541290
3353.27, 0.0542210
3355.44, 0.0543140
3357.61, 0.0544540
3359.79, 0.0545470
3361.97, 0.0546860
3364.15, 0.0548720
3366.33, 0.0550110
3368.52, 0.0549650
3370.71, 0.0550580
3372.9, 0.0551510
3375.1, 0.0552900
3377.3, 0.0553830
3379.5, 0.0553830
3381.71, 0.0556150
3383.91, 0.0558480
3386.12, 0.0558940
3388.34, 0.0558940
3390.55, 0.0559870
3392.77, 0.0560800
3394.99, 0.0561260
3397.22, 0.0563120
3399.45, 0.0565450
3401.68, 0.0565450
3403.91, 0.0565450
3406.15, 0.0566840
3408.39, 0.0568230
3410.63, 0.0569160
3412.87, 0.0571020
3415.12, 0.0571490
3417.37, 0.0572420
3419.63, 0.0574270
3421.88, 0.0575200
3424.14, 0.0576600
3426.41, 0.0577990
3428.67, 0.0578920
3430.94, 0.0580310
3433.21, 0.0581710
3435.49, 0.0582640
3437.77, 0.0584500
3440.05, 0.0584960
3442.33, 0.0585890
3444.62, 0.0587280
3446.91, 0.0588680
3449.2, 0.0589610
3451.5, 0.0590540
3453.8, 0.0591930
3456.1, 0.0593790
3458.41, 0.0595180
3460.72, 0.0595650
3463.03, 0.0596580
3465.34, 0.0597500
3467.66, 0.0598900
3469.98, 0.0599830
3472.31, 0.0600760
3474.63, 0.0602150
3476.96, 0.0603080
3479.3, 0.0604940
3481.64, 0.0606330
3483.97, 0.0607730
3486.32, 0.0609590
3488.66, 0.0609590
3491.01, 0.0610050
3493.36, 0.0612370
3495.72, 0.0614230
3498.08, 0.0615160
3500.44, 0.0617020
3502.81, 0.0619340
3505.18, 0.0620270
3507.55, 0.0621670
3509.92, 0.0623060
3512.3, 0.0624920
3514.68, 0.0626780
3517.06, 0.0627710
3519.45, 0.0629100
3521.84, 0.0630030
3524.24, 0.0631420
3526.64, 0.0633750
3529.04, 0.0635140
3531.44, 0.0635600
3533.85, 0.0637930
3536.26, 0.0640710
3538.67, 0.0641640
3541.09, 0.0642110
3543.51, 0.0644900
3545.93, 0.0646750
3548.36, 0.0648610
3550.79, 0.0650470
3553.22, 0.0650940
3555.66, 0.0651400
3558.1, 0.0653260
3560.54, 0.0655120
3562.99, 0.0657440
3565.44, 0.0658840
3567.9, 0.0660230
3570.35, 0.0662090
3572.81, 0.0663950
3575.28, 0.0665800
3577.75, 0.0666730
3580.22, 0.0668590
3582.69, 0.0670450
3585.17, 0.0672310
3587.65, 0.0674170
3590.14, 0.0676490
3592.62, 0.0677880
3595.11, 0.0678810
3597.61, 0.0680210
3600.11, 0.0682530
3602.61, 0.0684850
3605.11, 0.0687180
3607.62, 0.0688570
3610.14, 0.0691360
3612.65, 0.0693680
3615.17, 0.0694610
3617.69, 0.0696000
3620.22, 0.0697400
3622.75, 0.0698790
3625.28, 0.0701120
3627.82, 0.0702510
3630.36, 0.0704370
3632.9, 0.0707160
3635.45, 0.0709480
3638.0, 0.0711340
3640.56, 0.0713200
3643.12, 0.0715520
3645.68, 0.0716910
3648.24, 0.0719240
3650.81, 0.0721090
3653.39, 0.0723880
3655.96, 0.0725740
3658.54, 0.0727600
3661.13, 0.0729460
3663.71, 0.0731320
3666.3, 0.0734100
3668.9, 0.0736890
3671.5, 0.0738750
3674.1, 0.0740610
3676.7, 0.0742470
3679.31, 0.0743860
3681.93, 0.0745250
3684.54, 0.0748510
3687.17, 0.0751300
3689.79, 0.0752690
3692.42, 0.0754080
3695.05, 0.0758260
3697.69, 0.0761520
3700.32, 0.0763380
3702.97, 0.0765230
3705.61, 0.0768490
3708.27, 0.0770810
3710.92, 0.0772670
3713.58, 0.0774530
3716.24, 0.0777310
3718.91, 0.0780100
3721.58, 0.0783350
3724.25, 0.0785680
3726.93, 0.0788930
3729.61, 0.0791250
3732.29, 0.0793110
3734.98, 0.0795430
3737.67, 0.0798690
3740.37, 0.0801940
3743.07, 0.0804260
3745.78, 0.0807050
3748.49, 0.0809370
3751.2, 0.0812630
3753.91, 0.0815410
3756.63, 0.0818200
3759.36, 0.0820990
3762.09, 0.0823780
3764.82, 0.0827030
3767.55, 0.0830280
3770.29, 0.0832140
3773.04, 0.0834460
3775.78, 0.0838180
3778.54, 0.0840970
3781.29, 0.0843290
3784.05, 0.0846080
3786.82, 0.0850260
3789.59, 0.0853980
3792.36, 0.0856300
3795.13, 0.0857690
3797.92, 0.0860950
3800.7, 0.0865130
3803.49, 0.0868840
3806.28, 0.0871630
3809.08, 0.0874420
3811.88, 0.0877670
3814.68, 0.0880460
3817.49, 0.0884640
3820.31, 0.0888360
3823.12, 0.0891150
3825.94, 0.0893930
3828.77, 0.0897650
3831.6, 0.0901370
3834.43, 0.0905550
3837.27, 0.0908800
3840.11, 0.0912050
3842.96, 0.0915310
3845.81, 0.0917630
3848.67, 0.0921350
3851.53, 0.0926460
3854.39, 0.0930640
3857.26, 0.0933430
3860.13, 0.0937140
3863.01, 0.0940860
3865.89, 0.0944110
3868.77, 0.0947830
3871.66, 0.0952480
3874.55, 0.0956190
3877.45, 0.0959450
3880.35, 0.0963160
3883.26, 0.0966880
3886.17, 0.0971060
3889.09, 0.0975710
3892.01, 0.0979890
3894.93, 0.0983140
3897.86, 0.0987320
3900.79, 0.0991510
3903.73, 0.0995220
3906.67, 0.0998940
3909.62, 0.100266
3912.57, 0.100684
3915.52, 0.101148
3918.48, 0.101567
3921.45, 0.101985
3924.42, 0.102356
3927.39, 0.102728
3930.37, 0.103100
3933.35, 0.103611
3936.34, 0.103983
3939.33, 0.104401
3942.32, 0.104819
3945.32, 0.105237
3948.33, 0.105702
3951.34, 0.106166
3954.35, 0.106584
3957.37, 0.106956
3960.39, 0.107467
3963.42, 0.107932
3966.45, 0.108396
3969.49, 0.108861
3972.53, 0.109279
3975.58, 0.109697
3978.63, 0.110162
3981.68, 0.110673
3984.75, 0.111138
3987.81, 0.111649
3990.88, 0.112113
3993.95, 0.112532
3997.03, 0.112996
4000.12, 0.113507
4003.21, 0.113972
4006.3, 0.114437
4009.4, 0.114855
4012.5, 0.115366
4015.61, 0.115784
4018.72, 0.116249
4021.84, 0.116713
4024.96, 0.117317
4028.09, 0.117921
4031.22, 0.118432
4034.36, 0.118851
4037.5, 0.119315
4040.65, 0.119873
4043.8, 0.120477
4046.96, 0.120941
4050.12, 0.121452
4053.29, 0.122010
4056.46, 0.122521
4059.64, 0.122939
4062.82, 0.123497
4066.0, 0.124054
4069.19, 0.124519
4072.39, 0.125030
4075.59, 0.125680
4078.8, 0.126238
4082.01, 0.126749
4085.23, 0.127260
4088.45, 0.127725
4091.68, 0.128282
4094.91, 0.128886
4098.15, 0.129490
4101.39, 0.130001
4104.63, 0.130466
4107.89, 0.130977
4111.14, 0.131535
4114.41, 0.132092
4117.67, 0.132743
4120.95, 0.133254
4124.23, 0.133811
4127.51, 0.134322
4130.8, 0.134787
4134.09, 0.135345
4137.39, 0.135902
4140.7, 0.136553
4144.01, 0.137157
4147.32, 0.137668
4150.64, 0.138225
4153.97, 0.138829
4157.3, 0.139480
4160.64, 0.140084
4163.98, 0.140595
4167.33, 0.141059
4170.68, 0.141617
4174.04, 0.142175
4177.4, 0.142686
4180.77, 0.143290
4184.14, 0.143987
4187.52, 0.144544
4190.91, 0.145055
4194.3, 0.145566
4197.69, 0.146124
4201.1, 0.146821
4204.5, 0.147518
4207.92, 0.148168
4211.34, 0.148865
4214.76, 0.149655
4218.19, 0.150398
4221.62, 0.151235
4225.06, 0.152025
4228.51, 0.152675
4231.96, 0.153326
4235.42, 0.153976
4238.88, 0.154441
4242.35, 0.154812
4245.83, 0.155230
4249.31, 0.155509
4252.79, 0.155602
4256.28, 0.155881
4259.78, 0.156531
4263.29, 0.157368
4266.79, 0.158158
4270.31, 0.158947
4273.83, 0.159551
4277.35, 0.160155
4280.89, 0.160667
4284.42, 0.161178
4287.97, 0.161735
4291.52, 0.162200
4295.07, 0.162664
4298.63, 0.163129
4302.2, 0.163501
4305.78, 0.163872
4309.35, 0.164337
4312.94, 0.164848
4316.53, 0.165313
4320.13, 0.165777
4323.73, 0.166242
4327.34, 0.166660
4330.96, 0.167125
4334.58, 0.167682
4338.21, 0.168101
4341.84, 0.168612
4345.48, 0.169216
4349.12, 0.169680
4352.77, 0.170191
4356.43, 0.170749
4360.1, 0.171260
4363.76, 0.171817
4367.44, 0.172282
4371.12, 0.172793
4374.81, 0.173258
4378.51, 0.173722
4382.21, 0.174187
4385.92, 0.174698
4389.63, 0.175163
4393.35, 0.175627
4397.08, 0.176185
4400.81, 0.176650
4404.55, 0.177068
4408.29, 0.177625
4412.04, 0.178136
4415.8, 0.178601
4419.57, 0.178926
4423.34, 0.179298
4427.12, 0.179763
4430.9, 0.180227
4434.69, 0.180692
4438.49, 0.181110
4442.29, 0.181528
4446.1, 0.181946
4449.92, 0.182318
4453.74, 0.182736
4457.57, 0.183108
4461.41, 0.183480
4465.25, 0.183898
4469.1, 0.184269
4472.95, 0.184595
4476.82, 0.184920
4480.69, 0.185199
4484.56, 0.185477
4488.44, 0.185803
4492.33, 0.186128
4496.23, 0.186453
4500.13, 0.186778
4504.04, 0.187150
4507.96, 0.187429
4511.88, 0.187708
4515.81, 0.188079
4519.75, 0.188265
4523.69, 0.188451
4527.65, 0.188637
4531.6, 0.188916
4535.57, 0.189101
4539.54, 0.189287
4543.52, 0.189520
4547.5, 0.189752
4551.5, 0.189798
4555.5, 0.189845
4559.5, 0.189984
4563.52, 0.190031
4567.54, 0.189891
4571.56, 0.189845
4575.6, 0.189845
4579.64, 0.189891
4583.69, 0.189705
4587.75, 0.189473
4591.81, 0.189334
4595.88, 0.189334
4599.96, 0.189287
4604.04, 0.189241
4608.14, 0.189287
4612.24, 0.189241
4616.34, 0.189287
4620.46, 0.189380
4624.58, 0.189473
4628.71, 0.189613
4632.84, 0.189659
4636.99, 0.189613
4641.14, 0.189613
4645.3, 0.189613
4649.47, 0.189520
4653.64, 0.189473
4657.82, 0.189334
4662.01, 0.189148
4666.21, 0.188916
4670.41, 0.188637
4674.62, 0.188358
4678.84, 0.188126
4683.07, 0.187847
4687.3, 0.187522
4691.54, 0.187243
4695.79, 0.186871
4700.05, 0.186453
4704.31, 0.186174
4708.59, 0.185849
4712.87, 0.185524
4717.15, 0.185199
4721.45, 0.184827
4725.76, 0.184455
4730.07, 0.183944
4734.39, 0.183480
4738.72, 0.183108
4743.05, 0.182736
4747.39, 0.182411
4751.75, 0.181993
4756.1, 0.181714
4760.47, 0.181435
4764.85, 0.181203
4769.23, 0.180971
4773.62, 0.180738
4778.02, 0.180506
4782.43, 0.180320
4786.85, 0.180041
4791.27, 0.179809
4795.7, 0.179577
4800.14, 0.179344
4804.59, 0.179112
4809.05, 0.178787
4813.51, 0.178462
4817.99, 0.178183
4822.47, 0.177951
4826.96, 0.177718
4831.46, 0.177393
4835.96, 0.176975
4840.48, 0.176557
4845.0, 0.176185
4849.54, 0.175813
4854.08, 0.175302
4858.63, 0.174930
4863.18, 0.174512
4867.75, 0.174001
4872.33, 0.173490
4876.91, 0.173026
4881.5, 0.172561
4886.1, 0.172003
4890.71, 0.171446
4895.33, 0.170935
4899.96, 0.170377
4904.59, 0.169773
4909.24, 0.169262
4913.89, 0.168751
4918.55, 0.168147
4923.22, 0.167543
4927.9, 0.167078
4932.59, 0.166660
4937.29, 0.166196
4942.0, 0.165684
4946.71, 0.165220
4951.44, 0.164802
4956.17, 0.164569
4960.91, 0.164198
4965.67, 0.163872
4970.43, 0.163501
4975.2, 0.163176
4979.98, 0.162897
4984.76, 0.162664
4989.56, 0.162571
4994.37, 0.162479
4999.18, 0.162339
5004.01, 0.162246
5008.84, 0.162153
5013.69, 0.162200
5018.54, 0.162339
5023.4, 0.162246
5028.28, 0.162107
5033.16, 0.162107
5038.05, 0.162153
5042.95, 0.162153
5047.86, 0.162107
5052.78, 0.162107
5057.71, 0.162107
5062.65, 0.162107
5067.6, 0.162107
5072.56, 0.162153
5077.53, 0.162293
5082.5, 0.162479
5087.49, 0.162386
5092.49, 0.162293
5097.5, 0.162339
5102.51, 0.162386
5107.54, 0.162246
5112.58, 0.162200
5117.62, 0.162200
5122.68, 0.162200
5127.75, 0.162060
5132.82, 0.162107
5137.91, 0.162107
5143.01, 0.162200
5148.12, 0.162293
5153.23, 0.161875
5158.36, 0.161549
5163.5, 0.161456
5168.65, 0.161363
5173.81, 0.161178
5178.98, 0.160992
5184.15, 0.160806
5189.34, 0.160620
5194.54, 0.160574
5199.75, 0.160527
5204.98, 0.160109
5210.21, 0.160155
5215.45, 0.160016
5220.7, 0.159226
5225.96, 0.158762
5231.23, 0.158529
5236.52, 0.158390
5241.81, 0.158018
5247.12, 0.157600
5252.44, 0.157275
5257.76, 0.156950
5263.1, 0.156531
5268.45, 0.156253
5273.81, 0.156113
5279.18, 0.155881
5284.56, 0.155509
5289.95, 0.155602
5295.36, 0.155230
5300.77, 0.154719
5306.2, 0.154534
5311.63, 0.154301
5317.08, 0.153976
5322.54, 0.153744
5328.01, 0.153418
5333.49, 0.153233
5338.98, 0.153047
5344.49, 0.153372
5350.0, 0.153790
5355.53, 0.153047
5361.07, 0.152164
5366.62, 0.151653
5372.18, 0.151467
5377.75, 0.151235
5383.34, 0.150863
5388.93, 0.150491
5394.54, 0.150213
5400.16, 0.149980
5405.79, 0.149794
5411.44, 0.149655
5417.09, 0.150305
5422.76, 0.150724
5428.43, 0.149097
5434.12, 0.148122
5439.83, 0.147843
5445.54, 0.147471
5451.26, 0.146960
5457.0, 0.147007
5462.75, 0.147564
5468.52, 0.147007
5474.29, 0.146263
5480.08, 0.146077
5485.88, 0.145195
5491.69, 0.144730
5497.51, 0.144405
5503.35, 0.144219
5509.2, 0.143894
5515.06, 0.143847
5520.93, 0.143987
5526.82, 0.143708
5532.71, 0.143197
5538.63, 0.143011
5544.55, 0.143011
5550.49, 0.143383
5556.44, 0.143243
5562.4, 0.142639
5568.37, 0.142360
5574.36, 0.143383
5580.36, 0.143801
5586.37, 0.142500
5592.4, 0.141710
5598.44, 0.141989
5604.49, 0.142035
5610.56, 0.141896
5616.63, 0.142082
5622.73, 0.141803
5628.83, 0.141803
5634.95, 0.142779
5641.08, 0.144405
5647.23, 0.143429
5653.39, 0.142360
5659.56, 0.141803
5665.74, 0.141245
5671.94, 0.141942
5678.15, 0.141989
5684.38, 0.141292
5690.62, 0.141385
5696.87, 0.140920
5703.14, 0.141013
5709.42, 0.142128
5715.72, 0.141710
5722.03, 0.140827
5728.35, 0.140037
5734.69, 0.139759
5741.03, 0.139851
5747.4, 0.140223
5753.78, 0.139062
5760.17, 0.140177
5766.58, 0.141942
5773.0, 0.139340
5779.44, 0.137435
5785.88, 0.136553
5792.35, 0.135809
5798.83, 0.135530
5805.32, 0.135112
5811.83, 0.135438
5818.35, 0.137342
5824.89, 0.137342
5831.45, 0.135298
5838.01, 0.133672
5844.59, 0.132696
5851.19, 0.132464
5857.8, 0.132696
5864.43, 0.132603
5871.07, 0.132092
5877.73, 0.134880
5884.4, 0.134183
5891.09, 0.132185
5897.79, 0.131860
5904.5, 0.128701
5911.23, 0.127353
5917.98, 0.127028
5924.75, 0.126888
5931.53, 0.128933
5938.32, 0.129676
5945.13, 0.126192
5951.96, 0.124380
5958.8, 0.123822
5965.65, 0.124751
5972.53, 0.124008
5979.42, 0.122707
5986.32, 0.123171
5993.24, 0.122149
6000.18, 0.120105
6007.13, 0.119826
6014.1, 0.119966
6021.08, 0.118618
6028.09, 0.117550
6035.1, 0.117410
6042.14, 0.120244
6049.19, 0.123032
6056.25, 0.118711
6063.34, 0.116667
6070.44, 0.117782
6077.55, 0.116667
6084.69, 0.114576
6091.84, 0.114018
6099.0, 0.114111
6106.19, 0.115412
6113.39, 0.116946
6120.61, 0.114948
6127.84, 0.113368
6135.09, 0.113693
6142.36, 0.114158
6149.65, 0.114297
6156.95, 0.115134
6164.27, 0.114948
6171.61, 0.114390
6178.97, 0.116016
6186.34, 0.117317
6193.73, 0.115738
6201.14, 0.115226
6208.57, 0.115598
6216.01, 0.115970
6223.47, 0.116016
6230.95, 0.116109
6238.45, 0.116295
6245.97, 0.116481
6253.5, 0.116620
6261.06, 0.116713
6268.63, 0.116899
6276.21, 0.117038
6283.82, 0.117085
6291.45, 0.117131
6299.1, 0.117178
6306.76, 0.117271
6314.44, 0.117410
6322.14, 0.117550
6329.86, 0.117828
6337.6, 0.119594
6345.35, 0.120848
6353.13, 0.118943
6360.92, 0.118711
6368.74, 0.120151
6376.57, 0.119687
6384.43, 0.119036
6392.3, 0.119176
6400.19, 0.119826
6408.1, 0.123822
6416.03, 0.125773
6423.98, 0.122289
6431.95, 0.120848
6439.94, 0.119966
6447.95, 0.119594
6455.98, 0.119408
6464.03, 0.119408
6472.1, 0.120570
6480.19, 0.121963
6488.31, 0.124194
6496.44, 0.123915
6504.59, 0.120430
6512.76, 0.119594
6520.95, 0.120291
6529.16, 0.118990
6537.4, 0.118572
6545.65, 0.118943
6553.92, 0.119362
6562.22, 0.119687
6570.54, 0.120802
6578.88, 0.119501
6587.23, 0.118339
6595.61, 0.117596
6604.02, 0.116342
6612.44, 0.115970
6620.89, 0.115970
6629.35, 0.117828
6637.84, 0.119083
6646.35, 0.115830
6654.88, 0.113414
6663.44, 0.113321
6672.01, 0.113786
6680.61, 0.113972
6689.23, 0.112578
6697.88, 0.111556
6706.54, 0.112113
6715.23, 0.112067
6723.94, 0.111091
6732.67, 0.110023
6741.42, 0.109279
6750.2, 0.109140
6759.0, 0.108861
6767.82, 0.109000
6776.67, 0.109372
6785.54, 0.110209
6794.44, 0.109697
6803.35, 0.107746
6812.29, 0.107049
6821.26, 0.107607
6830.24, 0.107421
6839.25, 0.106399
6848.29, 0.106863
6857.35, 0.108768
6866.43, 0.108815
6875.54, 0.106213
6884.67, 0.105144
6893.82, 0.104912
6903.0, 0.105144
6912.2, 0.104772
6921.43, 0.104215
6930.69, 0.103983
6939.96, 0.103843
6949.27, 0.104308
6958.59, 0.105423
6967.95, 0.104308
6977.33, 0.103193
6986.73, 0.103193
6996.16, 0.103007
7005.61, 0.102356
7015.09, 0.102124
7024.6, 0.101799
7034.13, 0.101752
7043.69, 0.102589
7053.27, 0.101613
7062.88, 0.100219
7072.52, 0.0996150
7082.18, 0.0991970
7091.87, 0.0987790
7101.58, 0.0984540
7111.32, 0.0982680
7121.09, 0.0978960
7130.88, 0.0972460
7140.71, 0.0971990
7150.56, 0.0969200
7160.43, 0.0964560
7170.33, 0.0961300
7180.27, 0.0951080
7190.23, 0.0943180
7200.21, 0.0942260
7210.23, 0.0938540
7220.27, 0.0927850
7230.34, 0.0920880
7240.44, 0.0915310
7250.56, 0.0910200
7260.72, 0.0906010
7270.9, 0.0903690
7281.12, 0.0898120
7291.36, 0.0889290
7301.63, 0.0882320
7311.93, 0.0875810
7322.25, 0.0870240
7332.61, 0.0868380
7343.0, 0.0862340
7353.41, 0.0853050
7363.86, 0.0846080
7374.33, 0.0840040
7384.83, 0.0833530
7395.37, 0.0827030
7405.93, 0.0821450
7416.53, 0.0815410
7427.15, 0.0809370
7437.81, 0.0804260
7448.5, 0.0799620
7459.22, 0.0795430
7469.96, 0.0789860
7480.74, 0.0783350
7491.55, 0.0778240
7502.39, 0.0772670
7513.27, 0.0768020
7524.17, 0.0761980
7535.11, 0.0757340
7546.08, 0.0753150
7557.08, 0.0749440
7568.11, 0.0745250
7579.17, 0.0741070
7590.27, 0.0736890
7601.4, 0.0733640
7612.56, 0.0730850
7623.76, 0.0726210
7634.98, 0.0721560
7646.24, 0.0718310
7657.54, 0.0715520
7668.87, 0.0711340
7680.23, 0.0708090
7691.62, 0.0705760
7703.05, 0.0703440
7714.51, 0.0701120
7726.01, 0.0699720
7737.54, 0.0698790
7749.11, 0.0696470
7760.71, 0.0694610
7772.35, 0.0693680
7784.02, 0.0692750
7795.72, 0.0690430
7807.46, 0.0688570
7819.23, 0.0687640
7831.04, 0.0686710
7842.89, 0.0685320
7854.77, 0.0685320
7866.69, 0.0684390
7878.65, 0.0683920
7890.64, 0.0682530
7902.67, 0.0681140
7914.74, 0.0679740
7926.84, 0.0678350
7938.98, 0.0677420
7951.16, 0.0677420
7963.37, 0.0675560
7975.62, 0.0673240
7987.91, 0.0670920
8000.24, 0.0668590
8012.6, 0.0666730
8025.01, 0.0663950
8037.45, 0.0660230
8049.93, 0.0656050
8062.45, 0.0650470
8075.01, 0.0645360
8087.61, 0.0639320
8100.24, 0.0633750
8112.91, 0.0628170
8125.63, 0.0621670
8138.39, 0.0615160
8151.18, 0.0607260
8164.02, 0.0599830
8176.9, 0.0591930
8189.81, 0.0584030
8202.77, 0.0576600
8215.77, 0.0568700
8228.82, 0.0560800
8241.9, 0.0553830
8255.02, 0.0545930
8268.19, 0.0538030
8281.39, 0.0530600
8294.65, 0.0522700
8307.94, 0.0515270
8321.28, 0.0508300
8334.66, 0.0501790
8348.08, 0.0495290
8361.54, 0.0490180
8375.05, 0.0483670
8388.6, 0.0477170
8402.2, 0.0471130
8415.84, 0.0466480
8429.52, 0.0461840
8443.25, 0.0457650
8457.02, 0.0453010
8470.84, 0.0449290
8484.7, 0.0445110
8498.61, 0.0440460
8512.57, 0.0437210
8526.57, 0.0434890
8540.62, 0.0432100
8554.71, 0.0428380
8568.85, 0.0426060
8583.04, 0.0423740
8597.27, 0.0420020
8611.55, 0.0417230
8625.88, 0.0414440
8640.26, 0.0412590
8654.68, 0.0410730
8669.16, 0.0408400
8683.68, 0.0407470
8698.25, 0.0405620
8712.87, 0.0402360
8727.53, 0.0400500
8742.25, 0.0397720
8757.02, 0.0395860
8771.83, 0.0394930
8786.7, 0.0393540
8801.62, 0.0392140
8816.59, 0.0390280
8831.61, 0.0386570
8846.68, 0.0383310
8861.8, 0.0380990
8876.97, 0.0380060
8892.2, 0.0378670
8907.48, 0.0377270
8922.81, 0.0374950
8938.2, 0.0373560
8953.63, 0.0373090
8969.13, 0.0372160
8984.67, 0.0372160
9000.27, 0.0372630
9015.92, 0.0372160
9031.63, 0.0373560
9047.39, 0.0374490
9063.21, 0.0374950
9079.08, 0.0375420
9095.01, 0.0376810
9111.0, 0.0378670
9127.04, 0.0380060
9143.13, 0.0380990
9159.28, 0.0382850
9175.49, 0.0383780
9191.76, 0.0387030
9208.09, 0.0392140
9224.47, 0.0398180
9240.92, 0.0403290
9257.42, 0.0409330
9273.98, 0.0415370
9290.6, 0.0420020
9307.28, 0.0422810
9324.02, 0.0423740
9340.82, 0.0423270
9357.68, 0.0421410
9374.6, 0.0417700
9391.58, 0.0413510
9408.62, 0.0410260
9425.73, 0.0408870
9442.9, 0.0407010
9460.13, 0.0406080
9477.42, 0.0407470
9494.78, 0.0411190
9512.2, 0.0416300
9529.69, 0.0422340
9547.24, 0.0428850
9564.86, 0.0437670
9582.54, 0.0445110
9600.28, 0.0453470
9618.1, 0.0462760
9635.97, 0.0472990
9653.92, 0.0482280
9671.93, 0.0489710
9690.01, 0.0495750
9708.16, 0.0498540
9726.37, 0.0498540
9744.65, 0.0498080
9763.0, 0.0494360
9781.43, 0.0490640
9799.92, 0.0486920
9818.48, 0.0480880
9837.1, 0.0473450
9855.8, 0.0465550
9874.58, 0.0456260
9893.42, 0.0448360
9912.34, 0.0440000
9931.33, 0.0430710
9950.39, 0.0420020
9969.52, 0.0411190
9988.74, 0.0402830
10008.0, 0.0394930
10027.4, 0.0388420
10046.8, 0.0382380
10066.3, 0.0377270
10085.9, 0.0372160
10105.6, 0.0366120
10125.3, 0.0358690
10145.1, 0.0351720
10165.0, 0.0346610
10185.0, 0.0339170
10205.0, 0.0332670
10225.2, 0.0328950
10245.4, 0.0324770
10265.7, 0.0320130
10286.0, 0.0315480
10306.5, 0.0313160
10327.0, 0.0311300
10347.6, 0.0309440
10368.3, 0.0307120
10389.1, 0.0303400
10409.9, 0.0300610
10430.9, 0.0296890
10451.9, 0.0294570
10473.0, 0.0289920
10494.2, 0.0283880
10515.5, 0.0279240
10536.9, 0.0274130
10558.4, 0.0265760
10579.9, 0.0258790
10601.5, 0.0253220
10623.3, 0.0248110
10645.1, 0.0240210
10667.0, 0.0233240
10689.0, 0.0227200
10711.1, 0.0222090
10733.2, 0.0216510
10755.5, 0.0211400
10777.9, 0.0205360
10800.3, 0.0200720
10822.9, 0.0196070
10845.5, 0.0192350
10868.2, 0.0187710
10891.1, 0.0184460
10914.0, 0.0180270
10937.0, 0.0176090
10960.2, 0.0172840
10983.4, 0.0168660
11006.7, 0.0165410
11030.1, 0.0163080
11053.6, 0.0160290
11077.3, 0.0157040
11101.0, 0.0154720
11124.8, 0.0151000
11148.7, 0.0146360
11172.7, 0.0144960
11196.9, 0.0142170
11221.1, 0.0138920
11245.4, 0.0137060
11269.9, 0.0134740
11294.4, 0.0131020
11319.1, 0.0128240
11343.9, 0.0125450
11368.8, 0.0122660
11393.7, 0.0120340
11418.8, 0.0116620
11444.0, 0.0112900
11469.4, 0.0111510
11494.8, 0.0109190
11520.3, 0.0105930
11546.0, 0.0103150
11571.8, 0.0100820
11597.7, 0.00985000
11623.7, 0.00966400
11649.8, 0.00933900
11676.0, 0.00896700
11702.4, 0.00864200
11728.9, 0.00836300
11755.5, 0.00808400
11782.2, 0.00775900
11809.0, 0.00738800
11836.0, 0.00701600
11863.0, 0.00655100
11890.3, 0.00631900
11917.6, 0.00613300
11945.0, 0.00594700
11972.6, 0.00576100
12000.4, 0.00552900
12028.2, 0.00520400
12056.2, 0.00506400
12084.3, 0.00520400
12112.5, 0.00520400
12140.9, 0.00506400
12169.4, 0.00511100
12198.0, 0.00497100
12226.8, 0.00492500
12255.7, 0.00487900
12284.7, 0.00492500
12313.9, 0.00515700
12343.2, 0.00534300
12372.7, 0.00562200
12402.3, 0.00599400
12432.0, 0.00627200
12461.9, 0.00673700
12491.9, 0.00734100
12522.1, 0.00827000
12552.4, 0.00920000
12582.9, 0.0102680
12613.5, 0.0115690
12644.3, 0.0131950
12675.2, 0.0150070
12706.3, 0.0170050
12737.5, 0.0195140
12768.9, 0.0224880
12800.4, 0.0258330
12832.1, 0.0296890
12863.9, 0.0338250
12895.9, 0.0381920
12928.1, 0.0429310
12960.4, 0.0481350
12992.9, 0.0535250
13025.5, 0.0589140
13058.3, 0.0642110
13091.3, 0.0695540
13124.4, 0.0746180
13157.8, 0.0793110
13191.2, 0.0837250
13224.9, 0.0880460
13258.7, 0.0921810
13292.7, 0.0962700
13326.9, 0.100266
13361.2, 0.104168
13395.7, 0.107700
13430.4, 0.110998
13465.3, 0.114437
13500.4, 0.117782
13535.7, 0.121034
13571.1, 0.124147
13606.7, 0.127121
13642.5, 0.129909
13678.5, 0.132603
13714.7, 0.135159
13751.1, 0.137528
13787.6, 0.139851
13824.4, 0.142128
13861.4, 0.144126
13898.5, 0.146449
13935.9, 0.148726
13973.5, 0.151002
14011.2, 0.153186
14049.2, 0.155695
14087.4, 0.157972
14125.8, 0.159877
14164.3, 0.161828
14203.2, 0.163919
14242.2, 0.165917
14281.4, 0.167729
14320.9, 0.169494
14360.5, 0.171260
14400.4, 0.172933
14440.5, 0.174559
14480.9, 0.175906
14521.4, 0.177393
14562.2, 0.178880
14603.3, 0.180227
14644.5, 0.181435
14686.0, 0.182550
14727.7, 0.183526
14769.7, 0.184734
14811.9, 0.185849
14854.3, 0.186918
14897.0, 0.187754
14939.9, 0.189241
14983.1, 0.190309
15026.5, 0.190217
15070.2, 0.190588
15114.2, 0.191192
15158.3, 0.191378
15202.8, 0.191843
15247.5, 0.192307
15292.5, 0.192772
15337.7, 0.192818
15383.2, 0.192679
15429.0, 0.192307
15475.1, 0.191378
15521.4, 0.189705
15568.0, 0.187289
15614.9, 0.183619
15662.1, 0.178787
15709.6, 0.172329
15757.3, 0.164384
15805.4, 0.155788
15853.7, 0.146542
15902.3, 0.137110
15951.2, 0.128097
16000.5, 0.119640
16050.0, 0.111835
16099.8, 0.104865
16150.0, 0.0988720
16200.5, 0.0933890
16251.3, 0.0881850
16302.4, 0.0833070
16353.8, 0.0788000
16405.5, 0.0746180
16457.6, 0.0707620
16510.0, 0.0669060
16562.8, 0.0633280
16615.9, 0.0598430
16669.3, 0.0562660
16723.1, 0.0532460
16777.2, 0.0505970
16831.7, 0.0475310
16886.5, 0.0446970
16941.7, 0.0422340
16997.2, 0.0400500
17053.1, 0.0382380
17109.4, 0.0369840
17166.1, 0.0367520
17223.1, 0.0376810
17280.5, 0.0397720
17338.3, 0.0439530
17396.5, 0.0507830
17455.1, 0.0595650
17514.0, 0.0704370
17573.4, 0.0833530
17633.2, 0.0966420
17693.4, 0.109790
17754.0, 0.122428
17815.0, 0.134090
17876.4, 0.144312
17938.3, 0.153372
18000.5, 0.161782
18063.3, 0.169169
18126.4, 0.175488
18190.0, 0.181296
18254.1, 0.186778
18318.6, 0.191378
18383.5, 0.195327
18449.0, 0.197196
18514.9, 0.199445
18648.0, 0.204516
18715.4, 0.207147
18783.2, 0.207889
18851.5, 0.207482
18920.3, 0.208654
18989.6, 0.212984
19059.4, 0.217959
19200.6, 0.225733
19272.0, 0.228580
19343.9, 0.231498
19416.3, 0.233890
19489.3, 0.237478
19562.8, 0.240109
19637.0, 0.238411
19786.8, 0.234966
19862.6, 0.231546
19939.0, 0.229512
20016.0, 0.228077
20093.6, 0.226427
20171.8, 0.224465
20250.6, 0.222552
20410.0, 0.222169
20490.7, 0.219992
20572.0, 0.219610
20654.0, 0.216954
20736.6, 0.212768
20819.9, 0.209467
20903.8, 0.206525
21073.8, 0.198488
21159.8, 0.197149
21246.5, 0.194781
21334.0, 0.190092
21422.1, 0.185571
21511.0, 0.181696
21600.7, 0.177821
21782.1, 0.167416
21874.0, 0.162823
21966.7, 0.159570
22060.2, 0.157417
22154.5, 0.154093
22249.6, 0.149596
22345.5, 0.147204
22539.8, 0.147084
22638.2, 0.146654
22737.5, 0.146701
22837.7, 0.143711
22938.7, 0.139549
23040.7, 0.137851
23143.5, 0.135148
23352.1, 0.129216
23457.7, 0.125963
23564.4, 0.123308
23672.0, 0.120700
23780.5, 0.117375
23890.1, 0.114481
24000.7, 0.113333
24225.0, 0.110989
24338.7, 0.108334
24453.5, 0.106253
24569.4, 0.105392
24686.4, 0.104770
24804.5, 0.102784
24923.8, 0.101421
25165.8, 0.103358
25288.6, 0.103095
25412.5, 0.102617
25537.7, 0.102354
25664.1, 0.103885
25791.8, 0.106157
25920.8, 0.108382
26182.6, 0.109482
26315.5, 0.108812
26449.8, 0.107592
26585.4, 0.105822
26722.5, 0.103908
26860.9, 0.104148
27000.8, 0.103167
27285.0, 0.0977610
27429.4, 0.0978570
27575.3, 0.0976410
27722.7, 0.0967090
27871.8, 0.0958710
28022.4, 0.0939820
28174.7, 0.0920680
28484.4, 0.0900110
28641.7, 0.0912550
28800.9, 0.0918290
28961.8, 0.0893650
29124.5, 0.0868770
29289.0, 0.0864710
29455.4, 0.0875470
29794.0, 0.0870690
29966.3, 0.0869490
30140.5, 0.0867580
30316.7, 0.0871640
30495.1, 0.0857290
30675.5, 0.0849880
30858.1, 0.0861840
31229.8, 0.0828590
31419.1, 0.0829780
31610.7, 0.0825960
31804.6, 0.0825720
32000.9, 0.0827150
32199.7, 0.0831220
32400.9, 0.0830980
32811.1, 0.0814720
33020.1, 0.0802520
33231.8, 0.0803230
33446.2, 0.0787450
33663.4, 0.0776440
33883.4, 0.0779790
34106.3, 0.0792470
34561.0, 0.0793430
34792.9, 0.0797010
35028.0, 0.0797490
35266.3, 0.0785770
35507.8, 0.0778120
35752.7, 0.0762810
36001.0, 0.0745590
36508.1, 0.0765680
36767.0, 0.0775010
37029.7, 0.0766160
37296.1, 0.0761850
37566.3, 0.0765680
37840.5, 0.0781230
38118.8, 0.0785770
38687.8, 0.0768070
38978.6, 0.0774050
39273.9, 0.0761370
39573.7, 0.0767110
39878.1, 0.0778840
40187.3, 0.0774290
40501.2, 0.0770700
41144.0, 0.0756830
41473.2, 0.0781470
41807.6, 0.0776680
42147.5, 0.0752760
42493.0, 0.0749170
42844.2, 0.0753240
43201.2, 0.0781470
43933.5, 0.0760660
44309.0, 0.0753960
44691.0, 0.0758740
45079.6, 0.0778360
45475.0, 0.0811840
45877.5, 0.0826680
46287.1, 0.0811610
47128.7, 0.0770700
47561.1, 0.0778120
48001.5, 0.0799880
48450.1, 0.0812320
48907.2, 0.0780030
49373.0, 0.0783140
49847.7, 0.0817590
50825.0, 0.0845330
51328.2, 0.0855380
51841.5, 0.0838870
52365.1, 0.0824280
52899.4, 0.0842460
53444.8, 0.0842700
54001.5, 0.0814720
55150.6, 0.0780270
55743.6, 0.0799880
56349.5, 0.0827630
56968.7, 0.0810650
57601.7, 0.0782900
58248.9, 0.0768790
58910.9, 0.0791990
60281.0, 0.0833850
60990.2, 0.0801560
61716.3, 0.0802520
62459.8, 0.0786490
63221.6, 0.0794860
64002.1, 0.0778360
64802.1, 0.0722140
66463.4, 0.0770700
67326.6, 0.0785290
68212.4, 0.0806580
69121.9, 0.0807540
70056.0, 0.0766880
71015.7, 0.0764960
72002.0, 0.0756830
74059.4, 0.0772380
75132.7, 0.0749170
76237.6, 0.0746540
77375.5, 0.0763050
78547.9, 0.0768790
79756.3, 0.0811130
81002.5, 0.0804430
83615.7, 0.0807780
84986.5, 0.0871170
86402.9, 0.0856340
87867.4, 0.0795340
89382.4, 0.0775250
90950.5, 0.0828830
92574.6, 0.0904180
96002.7, 0.0927620
97814.1, 0.0981440
99695.1, 0.100201
101650.0, 0.0982870
103683.0, 0.0936230
105799.0, 0.0932880
108003.0, 0.100057
112699.0, 0.117447
115204.0, 0.130747
117822.0, 0.130747
120562.0, 0.121035
123433.0, 0.114864
126443.0, 0.116825
129604.0, 0.128139
136424.0, 0.146869
140111.0, 0.140793
144003.0, 0.135579
148118.0, 0.142300
152474.0, 0.160479
157095.0, 0.161675
162004.0, 0.144525
172805.0, 0.145936
178764.0, 0.151461
185148.0, 0.148926
192005.0, 0.181744
199390.0, 0.214467
207366.0, 0.176386
216006.0, 0.163134
