Database of Origin, USGS Spectral Database
Sample Description, See USGS database for additional info
Date Added,2016-08-10 02:55:34.421283

Data ID,USGS_hem10          
Sample ID, hematite_gds69.9495
Mineral Name, hematite
Material Class,Oxide

Wavelength
1414.5, 0.163479
1414.89, 0.163087
1415.28, 0.162913
1415.66, 0.162913
1416.05, 0.163087
1416.44, 0.163261
1416.82, 0.163043
1417.21, 0.163000
1417.6, 0.163131
1417.98, 0.163218
1418.37, 0.163131
1418.76, 0.163261
1419.15, 0.163305
1419.54, 0.163261
1419.93, 0.163174
1420.32, 0.163435
1420.71, 0.163435
1421.09, 0.163131
1421.48, 0.163218
1421.88, 0.163261
1422.27, 0.163218
1422.66, 0.163261
1423.05, 0.163131
1423.44, 0.163305
1423.83, 0.163479
1424.22, 0.163218
1424.61, 0.162956
1425.0, 0.163174
1425.39, 0.163653
1425.78, 0.163479
1426.18, 0.163305
1426.57, 0.163261
1426.96, 0.163566
1427.36, 0.163740
1427.75, 0.163696
1428.14, 0.163479
1428.54, 0.163261
1428.93, 0.163305
1429.32, 0.163479
1429.72, 0.163435
1430.11, 0.163522
1430.51, 0.163827
1430.9, 0.163827
1431.3, 0.163696
1431.69, 0.163653
1432.09, 0.163740
1432.48, 0.163827
1432.88, 0.163827
1433.28, 0.163783
1433.67, 0.163870
1434.07, 0.163783
1434.46, 0.163696
1434.86, 0.163479
1435.26, 0.163479
1435.66, 0.163566
1436.05, 0.163870
1436.45, 0.164132
1436.85, 0.164045
1437.25, 0.164045
1437.65, 0.164219
1438.05, 0.163740
1438.44, 0.163479
1438.84, 0.163696
1439.24, 0.163609
1439.64, 0.163392
1440.04, 0.163522
1440.44, 0.163653
1440.84, 0.163914
1441.24, 0.163957
1441.65, 0.163696
1442.05, 0.163609
1442.45, 0.163609
1442.85, 0.163740
1443.25, 0.163740
1443.65, 0.163566
1444.05, 0.163696
1444.46, 0.163827
1444.86, 0.164088
1445.26, 0.164219
1445.67, 0.163957
1446.07, 0.163827
1446.47, 0.163827
1446.88, 0.163914
1447.28, 0.163740
1447.68, 0.163653
1448.09, 0.163783
1448.49, 0.163870
1448.9, 0.163870
1449.3, 0.163522
1449.71, 0.163653
1450.11, 0.164001
1450.52, 0.163870
1450.93, 0.163522
1451.33, 0.163609
1451.74, 0.163609
1452.14, 0.163696
1452.55, 0.163609
1452.96, 0.163696
1453.36, 0.163914
1453.77, 0.164001
1454.18, 0.163827
1454.59, 0.164088
1455.0, 0.164132
1455.41, 0.163870
1455.81, 0.163783
1456.22, 0.163696
1456.63, 0.163870
1457.04, 0.164132
1457.45, 0.163914
1457.86, 0.163783
1458.27, 0.163914
1458.68, 0.163870
1459.09, 0.163870
1459.5, 0.163783
1459.91, 0.163827
1460.32, 0.163870
1460.74, 0.163827
1461.15, 0.163827
1461.56, 0.163696
1461.97, 0.163740
1462.39, 0.163827
1462.8, 0.164045
1463.21, 0.164045
1463.62, 0.164045
1464.04, 0.164001
1464.45, 0.164132
1464.86, 0.164088
1465.28, 0.163827
1465.69, 0.163696
1466.11, 0.163870
1466.52, 0.163957
1466.94, 0.163914
1467.35, 0.163696
1467.77, 0.163783
1468.18, 0.164132
1468.6, 0.164088
1469.02, 0.164001
1469.43, 0.164045
1469.85, 0.163870
1470.27, 0.163696
1470.68, 0.163609
1471.1, 0.163783
1471.52, 0.163914
1471.94, 0.163914
1472.35, 0.163914
1472.77, 0.163783
1473.19, 0.163696
1473.61, 0.163914
1474.03, 0.164175
1474.45, 0.164219
1474.87, 0.163914
1475.29, 0.163914
1475.71, 0.164088
1476.13, 0.164045
1476.55, 0.164175
1476.97, 0.164175
1477.39, 0.164306
1477.81, 0.164262
1478.23, 0.164306
1478.65, 0.164654
1479.07, 0.164915
1479.5, 0.164959
1479.92, 0.164872
1480.34, 0.164523
1480.76, 0.164436
1481.19, 0.164480
1481.61, 0.164436
1482.03, 0.164436
1482.46, 0.164567
1482.88, 0.164697
1483.31, 0.164959
1483.73, 0.165133
1484.16, 0.165133
1484.58, 0.165133
1485.01, 0.164784
1485.43, 0.164959
1485.86, 0.165307
1486.28, 0.165220
1486.71, 0.165263
1487.14, 0.165394
1487.56, 0.165568
1487.99, 0.165481
1488.42, 0.165481
1488.84, 0.165481
1489.27, 0.165263
1489.7, 0.165263
1490.13, 0.165263
1490.56, 0.165089
1490.98, 0.165394
1491.41, 0.165611
1491.84, 0.165481
1492.27, 0.165350
1492.7, 0.165568
1493.13, 0.165916
1493.56, 0.165916
1493.99, 0.165786
1494.42, 0.165873
1494.85, 0.165829
1495.29, 0.165655
1495.72, 0.166003
1496.15, 0.165960
1496.58, 0.165655
1497.01, 0.165611
1497.44, 0.165960
1497.88, 0.165960
1498.31, 0.165916
1498.74, 0.165960
1499.18, 0.166003
1499.61, 0.166047
1500.04, 0.166264
1500.48, 0.166264
1500.91, 0.166134
1501.35, 0.166264
1501.78, 0.166264
1502.22, 0.166264
1502.65, 0.166134
1503.09, 0.166134
1503.53, 0.166395
1503.96, 0.166351
1504.4, 0.166221
1504.83, 0.166569
1505.27, 0.166656
1505.71, 0.166351
1506.15, 0.166264
1506.58, 0.166656
1507.02, 0.166743
1507.46, 0.166656
1507.9, 0.166700
1508.34, 0.166700
1508.78, 0.166917
1509.21, 0.166700
1509.66, 0.166569
1510.09, 0.166700
1510.53, 0.166656
1510.97, 0.166525
1511.42, 0.166525
1511.86, 0.166830
1512.3, 0.166656
1512.74, 0.166438
1513.18, 0.166917
1513.62, 0.167309
1514.06, 0.167265
1514.51, 0.167048
1514.95, 0.166917
1515.39, 0.166830
1515.83, 0.166830
1516.28, 0.167004
1516.72, 0.167091
1517.16, 0.166917
1517.61, 0.167048
1518.05, 0.167048
1518.5, 0.167048
1518.94, 0.167135
1519.39, 0.167352
1519.83, 0.167396
1520.28, 0.167309
1520.73, 0.167309
1521.17, 0.167178
1521.62, 0.167265
1522.07, 0.167309
1522.51, 0.167483
1522.96, 0.167657
1523.41, 0.167701
1523.85, 0.167744
1524.3, 0.167614
1524.75, 0.167352
1525.2, 0.167483
1525.65, 0.167831
1526.1, 0.168049
1526.55, 0.168005
1527.0, 0.167831
1527.45, 0.167701
1527.9, 0.167701
1528.35, 0.167614
1528.8, 0.167614
1529.25, 0.167614
1529.7, 0.167744
1530.15, 0.167918
1530.6, 0.168092
1531.05, 0.168223
1531.51, 0.168223
1531.96, 0.168092
1532.41, 0.168136
1532.87, 0.168179
1533.32, 0.168136
1533.77, 0.168441
1534.23, 0.168832
1534.68, 0.168919
1535.14, 0.168789
1535.59, 0.168702
1536.05, 0.168658
1536.5, 0.169006
1536.96, 0.169224
1537.41, 0.168919
1537.87, 0.169006
1538.32, 0.169311
1538.78, 0.169137
1539.24, 0.169137
1539.7, 0.169137
1540.15, 0.169180
1540.61, 0.169442
1541.07, 0.169529
1541.53, 0.169529
1541.98, 0.169485
1542.44, 0.169572
1542.9, 0.169703
1543.36, 0.169529
1543.82, 0.169572
1544.28, 0.169659
1544.74, 0.169572
1545.2, 0.169659
1545.66, 0.169833
1546.12, 0.169833
1546.59, 0.169790
1547.05, 0.169964
1547.51, 0.169964
1547.97, 0.170051
1548.43, 0.170225
1548.9, 0.170486
1549.36, 0.170443
1549.82, 0.170312
1550.29, 0.170356
1550.75, 0.170443
1551.21, 0.170486
1551.68, 0.170704
1552.14, 0.171008
1552.61, 0.170965
1553.07, 0.170834
1553.54, 0.170747
1554.0, 0.170878
1554.47, 0.171096
1554.93, 0.171226
1555.4, 0.171226
1555.87, 0.171531
1556.34, 0.171531
1556.8, 0.171270
1557.27, 0.171270
1557.74, 0.171487
1558.21, 0.171661
1558.68, 0.171531
1559.14, 0.171618
1559.61, 0.171879
1560.08, 0.171835
1560.55, 0.171748
1561.02, 0.171966
1561.49, 0.171879
1561.96, 0.171705
1562.43, 0.171835
1562.9, 0.172053
1563.38, 0.172053
1563.85, 0.172097
1564.32, 0.172010
1564.79, 0.172097
1565.26, 0.172010
1565.74, 0.172271
1566.21, 0.172358
1566.68, 0.172401
1567.16, 0.172488
1567.63, 0.172445
1568.1, 0.172488
1568.58, 0.172619
1569.05, 0.172662
1569.53, 0.172924
1570.0, 0.173054
1570.48, 0.172837
1570.96, 0.172749
1571.43, 0.172749
1571.91, 0.172445
1572.39, 0.172575
1572.86, 0.172924
1573.34, 0.172880
1573.82, 0.173098
1574.3, 0.173054
1574.77, 0.173011
1575.25, 0.173011
1575.73, 0.173228
1576.21, 0.173228
1576.69, 0.173098
1577.17, 0.173228
1577.65, 0.173446
1578.13, 0.173489
1578.61, 0.173402
1579.09, 0.173402
1579.57, 0.173446
1580.05, 0.173707
1580.54, 0.173751
1581.02, 0.173663
1581.5, 0.173663
1581.98, 0.173707
1582.47, 0.173925
1582.95, 0.173925
1583.43, 0.173794
1583.92, 0.173881
1584.4, 0.173968
1584.88, 0.173794
1585.37, 0.174012
1585.85, 0.174447
1586.34, 0.174490
1586.82, 0.174142
1587.31, 0.174012
1587.8, 0.174360
1588.28, 0.174316
1588.77, 0.174403
1589.26, 0.174490
1589.74, 0.174403
1590.23, 0.174490
1590.72, 0.174621
1591.21, 0.174752
1591.7, 0.174882
1592.19, 0.174752
1592.67, 0.174708
1593.16, 0.175056
1593.65, 0.175317
1594.14, 0.175143
1594.63, 0.174839
1595.12, 0.174795
1595.61, 0.175013
1596.11, 0.175317
1596.6, 0.175404
1597.09, 0.175404
1597.58, 0.175404
1598.08, 0.175448
1598.57, 0.175535
1599.06, 0.175927
1599.55, 0.175883
1600.05, 0.175970
1600.54, 0.175970
1601.04, 0.175970
1601.53, 0.175883
1602.03, 0.176101
1602.52, 0.176318
1603.02, 0.176275
1603.51, 0.176144
1604.01, 0.176231
1604.5, 0.176362
1605.0, 0.176580
1605.5, 0.176623
1606.0, 0.176667
1606.49, 0.176928
1606.99, 0.176971
1607.49, 0.176841
1607.99, 0.177102
1608.49, 0.177363
1608.99, 0.177363
1609.49, 0.177145
1609.99, 0.177102
1610.49, 0.177320
1610.99, 0.177624
1611.49, 0.177755
1611.99, 0.177929
1612.49, 0.177798
1612.99, 0.177972
1613.49, 0.178190
1614.0, 0.177972
1614.5, 0.177972
1615.0, 0.178147
1615.51, 0.178059
1616.01, 0.178147
1616.51, 0.178190
1617.02, 0.178190
1617.52, 0.178408
1618.03, 0.178669
1618.53, 0.178756
1619.04, 0.178712
1619.54, 0.178756
1620.05, 0.178799
1620.55, 0.178886
1621.06, 0.179061
1621.57, 0.178974
1622.08, 0.178886
1622.58, 0.179017
1623.09, 0.179148
1623.6, 0.179278
1624.11, 0.179626
1624.62, 0.179757
1625.13, 0.179670
1625.64, 0.179539
1626.15, 0.179583
1626.66, 0.179888
1627.17, 0.179888
1627.68, 0.179844
1628.19, 0.180062
1628.7, 0.180062
1629.21, 0.179975
1629.72, 0.180018
1630.24, 0.180236
1630.75, 0.180366
1631.26, 0.180453
1631.78, 0.180671
1632.29, 0.180627
1632.8, 0.180453
1633.32, 0.180497
1633.83, 0.180410
1634.35, 0.180497
1634.86, 0.180540
1635.38, 0.180584
1635.9, 0.180845
1636.41, 0.180932
1636.93, 0.180758
1637.45, 0.180802
1637.96, 0.180802
1638.48, 0.180540
1639.0, 0.180497
1639.52, 0.180584
1640.04, 0.180802
1640.56, 0.181019
1641.08, 0.181063
1641.59, 0.181106
1642.11, 0.181280
1642.63, 0.181367
1643.16, 0.181237
1643.68, 0.181150
1644.2, 0.181193
1644.72, 0.181280
1645.24, 0.181454
1645.76, 0.181541
1646.29, 0.181454
1646.81, 0.181585
1647.33, 0.181933
1647.86, 0.182064
1648.38, 0.181803
1648.9, 0.181716
1649.43, 0.181846
1649.95, 0.181933
1650.48, 0.182151
1651.0, 0.182238
1651.53, 0.182281
1652.06, 0.182281
1652.58, 0.182281
1653.11, 0.182194
1653.64, 0.182194
1654.17, 0.182325
1654.69, 0.182499
1655.22, 0.182717
1655.75, 0.182760
1656.28, 0.182586
1656.81, 0.182630
1657.34, 0.182673
1657.87, 0.182717
1658.4, 0.182847
1658.93, 0.182978
1659.46, 0.182978
1659.99, 0.182891
1660.52, 0.182978
1661.05, 0.183239
1661.59, 0.183500
1662.12, 0.183500
1662.65, 0.183500
1663.19, 0.183544
1663.72, 0.183761
1664.26, 0.183848
1664.79, 0.183761
1665.32, 0.183674
1665.86, 0.183848
1666.39, 0.183979
1666.93, 0.183979
1667.47, 0.183935
1668.0, 0.184196
1668.54, 0.184458
1669.08, 0.184458
1669.61, 0.184327
1670.15, 0.184327
1670.69, 0.184588
1671.23, 0.184675
1671.77, 0.184501
1672.31, 0.184588
1672.85, 0.184719
1673.39, 0.184936
1673.93, 0.185154
1674.47, 0.185285
1675.01, 0.185241
1675.55, 0.185241
1676.09, 0.185546
1676.64, 0.185415
1677.18, 0.185372
1677.72, 0.185589
1678.26, 0.185676
1678.81, 0.185720
1679.35, 0.185807
1679.89, 0.185850
1680.44, 0.186025
1680.98, 0.186286
1681.53, 0.186329
1682.07, 0.186286
1682.62, 0.186503
1683.17, 0.186547
1683.71, 0.186634
1684.26, 0.186808
1684.81, 0.186982
1685.36, 0.187026
1685.9, 0.187069
1686.45, 0.187200
1687.0, 0.187113
1687.55, 0.187156
1688.1, 0.187243
1688.65, 0.187417
1689.2, 0.187504
1689.75, 0.187635
1690.3, 0.187635
1690.85, 0.187417
1691.41, 0.187504
1691.96, 0.187809
1692.51, 0.187940
1693.06, 0.187983
1693.61, 0.188114
1694.17, 0.188244
1694.72, 0.188201
1695.28, 0.188331
1695.83, 0.188418
1696.39, 0.188375
1696.94, 0.188331
1697.5, 0.188418
1698.05, 0.188462
1698.61, 0.188505
1699.17, 0.188680
1699.72, 0.188723
1700.28, 0.188897
1700.84, 0.189071
1701.4, 0.188897
1701.95, 0.188810
1702.51, 0.188897
1703.07, 0.188941
1703.63, 0.189028
1704.19, 0.189071
1704.75, 0.188810
1705.31, 0.188897
1705.88, 0.189289
1706.44, 0.189550
1707.0, 0.189463
1707.56, 0.189202
1708.12, 0.189115
1708.69, 0.189332
1709.25, 0.189506
1709.81, 0.189550
1710.38, 0.189724
1710.94, 0.189898
1711.51, 0.189942
1712.07, 0.189811
1712.64, 0.189811
1713.2, 0.189942
1713.77, 0.189985
1714.34, 0.190116
1714.9, 0.190333
1715.47, 0.190333
1716.04, 0.190203
1716.61, 0.189985
1717.18, 0.190159
1717.74, 0.190377
1718.31, 0.190421
1718.88, 0.190464
1719.45, 0.190638
1720.02, 0.190769
1720.59, 0.190682
1721.17, 0.190595
1721.74, 0.190551
1722.31, 0.190638
1722.88, 0.190769
1723.45, 0.190986
1724.03, 0.191030
1724.6, 0.191204
1725.18, 0.191422
1725.75, 0.191247
1726.33, 0.191117
1726.9, 0.191073
1727.48, 0.191291
1728.05, 0.191596
1728.63, 0.191683
1729.2, 0.191639
1729.78, 0.191509
1730.36, 0.191596
1730.94, 0.191857
1731.51, 0.191944
1732.09, 0.191857
1732.67, 0.191813
1733.25, 0.191770
1733.83, 0.192031
1734.41, 0.192249
1734.99, 0.192118
1735.57, 0.192379
1736.15, 0.192640
1736.73, 0.192423
1737.32, 0.192466
1737.9, 0.192553
1738.48, 0.192771
1739.07, 0.192771
1739.65, 0.192727
1740.23, 0.192901
1740.82, 0.192988
1741.4, 0.192988
1741.99, 0.193380
1742.57, 0.193424
1743.16, 0.193206
1743.74, 0.193337
1744.33, 0.193598
1744.92, 0.193728
1745.51, 0.193728
1746.09, 0.193902
1746.68, 0.193946
1747.27, 0.193946
1747.86, 0.194120
1748.45, 0.194207
1749.04, 0.194164
1749.63, 0.194120
1750.22, 0.194251
1750.81, 0.194512
1751.4, 0.194729
1751.99, 0.194773
1752.59, 0.194642
1753.18, 0.194729
1753.77, 0.194904
1754.37, 0.195034
1754.96, 0.195208
1755.56, 0.195469
1756.15, 0.195643
1756.74, 0.195687
1757.34, 0.195687
1757.94, 0.195731
1758.53, 0.195774
1759.13, 0.195948
1759.73, 0.196079
1760.32, 0.196035
1760.92, 0.196166
1761.52, 0.196253
1762.12, 0.196209
1762.72, 0.196253
1763.32, 0.196514
1763.92, 0.196645
1764.52, 0.196557
1765.12, 0.196514
1765.72, 0.196645
1766.32, 0.196862
1766.92, 0.196949
1767.53, 0.196949
1768.13, 0.197036
1768.73, 0.197254
1769.34, 0.197341
1769.94, 0.197384
1770.55, 0.197384
1771.15, 0.197384
1771.76, 0.197384
1772.36, 0.197341
1772.97, 0.197428
1773.57, 0.197559
1774.18, 0.197428
1774.79, 0.197428
1775.4, 0.197733
1776.0, 0.197950
1776.61, 0.197820
1777.22, 0.197689
1777.83, 0.197820
1778.44, 0.198168
1779.05, 0.198386
1779.66, 0.198386
1780.27, 0.198342
1780.88, 0.198386
1781.5, 0.198386
1782.11, 0.198429
1782.72, 0.198298
1783.33, 0.198298
1783.95, 0.198734
1784.56, 0.198951
1785.18, 0.198951
1785.79, 0.198951
1786.41, 0.198995
1787.02, 0.199169
1787.64, 0.199169
1788.26, 0.198995
1788.87, 0.199038
1789.49, 0.199038
1790.11, 0.199212
1790.73, 0.199343
1791.35, 0.199212
1791.96, 0.199082
1792.58, 0.199256
1793.21, 0.199300
1793.83, 0.199256
1794.45, 0.199517
1795.07, 0.199604
1795.69, 0.199648
1796.31, 0.199822
1796.93, 0.199822
1797.56, 0.200039
1798.18, 0.199952
1798.8, 0.199909
1799.43, 0.200083
1800.05, 0.200301
1800.68, 0.200344
1801.3, 0.200301
1801.93, 0.200518
1802.56, 0.200649
1803.18, 0.200431
1803.81, 0.200344
1804.44, 0.200605
1805.07, 0.200910
1805.7, 0.201084
1806.33, 0.201041
1806.95, 0.200866
1807.58, 0.200910
1808.22, 0.200997
1808.85, 0.200953
1809.48, 0.200866
1810.11, 0.201041
1810.74, 0.201302
1811.38, 0.201302
1812.01, 0.201389
1812.64, 0.201519
1813.28, 0.201476
1813.91, 0.201519
1814.55, 0.201780
1815.18, 0.202303
1815.82, 0.202172
1816.45, 0.202085
1817.09, 0.202129
1817.73, 0.202129
1818.36, 0.202172
1819.0, 0.202346
1819.64, 0.203173
1820.28, 0.203783
1820.92, 0.203478
1821.56, 0.203478
1822.2, 0.203086
1822.84, 0.202738
1823.48, 0.202738
1824.12, 0.202825
1824.76, 0.202956
1825.41, 0.204044
1826.05, 0.205045
1826.69, 0.204044
1827.34, 0.203217
1827.98, 0.203739
1828.63, 0.204087
1829.27, 0.204174
1829.92, 0.204479
1830.56, 0.205132
1831.21, 0.204958
1831.86, 0.204392
1832.5, 0.204435
1833.15, 0.204261
1833.8, 0.204435
1834.45, 0.205262
1835.1, 0.205741
1835.75, 0.206394
1836.4, 0.206307
1837.05, 0.206525
1837.7, 0.206829
1838.35, 0.205654
1839.01, 0.206220
1839.66, 0.207308
1840.31, 0.206438
1840.96, 0.206655
1841.62, 0.208048
1842.27, 0.207003
1842.93, 0.206046
1843.58, 0.206046
1844.24, 0.205915
1844.9, 0.205828
1845.55, 0.206176
1846.21, 0.207874
1846.87, 0.209223
1847.53, 0.208614
1848.18, 0.208048
1848.84, 0.206873
1849.5, 0.206568
1850.16, 0.206786
1850.82, 0.207003
1851.48, 0.206829
1852.14, 0.207134
1852.81, 0.208004
1853.47, 0.209310
1854.13, 0.208527
1854.8, 0.207308
1855.46, 0.207482
1856.12, 0.208701
1856.79, 0.208701
1857.45, 0.207700
1858.12, 0.207526
1858.79, 0.208527
1859.45, 0.209963
1860.12, 0.209223
1860.79, 0.208179
1861.46, 0.207743
1862.12, 0.207743
1862.79, 0.207743
1863.46, 0.208135
1864.13, 0.208483
1864.8, 0.208222
1865.48, 0.208004
1866.15, 0.208179
1866.82, 0.209310
1867.49, 0.210703
1868.16, 0.209963
1868.84, 0.209093
1869.51, 0.209223
1870.19, 0.210703
1870.86, 0.211617
1871.54, 0.209920
1872.21, 0.210311
1872.89, 0.211617
1873.56, 0.210442
1874.24, 0.209267
1874.92, 0.209354
1875.6, 0.209223
1876.28, 0.209833
1876.96, 0.210268
1877.64, 0.209441
1878.32, 0.209223
1879.0, 0.209136
1879.68, 0.209136
1880.36, 0.209267
1881.04, 0.209267
1881.73, 0.209267
1882.41, 0.209484
1883.09, 0.210094
1883.78, 0.210703
1884.46, 0.210007
1885.15, 0.209571
1885.83, 0.209745
1886.52, 0.209789
1887.21, 0.209571
1887.89, 0.209528
1888.58, 0.209702
1889.27, 0.210529
1889.96, 0.211269
1890.65, 0.210398
1891.34, 0.210355
1892.03, 0.210616
1892.72, 0.210311
1893.41, 0.210355
1894.1, 0.209963
1894.79, 0.209833
1895.49, 0.210094
1896.18, 0.210224
1896.87, 0.210398
1897.57, 0.210747
1898.26, 0.210921
1898.96, 0.212183
1899.65, 0.212662
1900.35, 0.211530
1901.05, 0.210616
1901.74, 0.210877
1902.44, 0.212052
1903.14, 0.211704
1903.84, 0.210921
1904.54, 0.212139
1905.24, 0.212966
1905.94, 0.212575
1906.64, 0.212400
1907.34, 0.211573
1908.04, 0.211312
1908.75, 0.211269
1909.45, 0.211312
1910.15, 0.211617
1910.86, 0.211922
1911.56, 0.211878
1912.27, 0.211835
1912.97, 0.212836
1913.68, 0.213053
1914.39, 0.212270
1915.09, 0.212226
1915.8, 0.212488
1916.51, 0.212357
1917.22, 0.212226
1917.93, 0.212400
1918.64, 0.212836
1919.35, 0.214054
1920.06, 0.215055
1920.77, 0.214577
1921.48, 0.213227
1922.19, 0.212966
1922.91, 0.213314
1923.62, 0.214141
1924.33, 0.213924
1925.05, 0.213576
1925.76, 0.213793
1926.48, 0.214141
1927.19, 0.214272
1927.91, 0.214533
1928.63, 0.214577
1929.35, 0.214229
1930.07, 0.214359
1930.78, 0.214620
1931.5, 0.214620
1932.22, 0.214403
1932.94, 0.214664
1933.66, 0.215055
1934.39, 0.214968
1935.11, 0.214968
1935.83, 0.215317
1936.55, 0.215404
1937.28, 0.215317
1938.0, 0.215360
1938.73, 0.215578
1939.45, 0.215621
1940.18, 0.215491
1940.9, 0.215578
1941.63, 0.215708
1942.36, 0.215926
1943.09, 0.216013
1943.81, 0.216231
1944.54, 0.216318
1945.27, 0.216318
1946.0, 0.216231
1946.73, 0.216318
1947.47, 0.216622
1948.2, 0.216796
1948.93, 0.216709
1949.66, 0.216405
1950.4, 0.216405
1951.13, 0.216796
1951.86, 0.216840
1952.6, 0.216927
1953.34, 0.216971
1954.07, 0.216883
1954.81, 0.216971
1955.55, 0.216927
1956.29, 0.216971
1957.02, 0.217275
1957.76, 0.217449
1958.5, 0.217493
1959.24, 0.217493
1959.98, 0.217536
1960.72, 0.217536
1961.47, 0.217580
1962.21, 0.217623
1962.95, 0.217667
1963.7, 0.217972
1964.44, 0.217928
1965.18, 0.217841
1965.93, 0.218015
1966.67, 0.218059
1967.42, 0.218189
1968.17, 0.218363
1968.92, 0.218233
1969.66, 0.218276
1970.41, 0.218363
1971.16, 0.218450
1971.91, 0.218581
1972.66, 0.218668
1973.41, 0.218799
1974.16, 0.218973
1974.92, 0.219103
1975.67, 0.219016
1976.42, 0.219060
1977.18, 0.219147
1977.93, 0.219147
1978.69, 0.219234
1979.44, 0.219364
1980.2, 0.219408
1980.95, 0.219495
1981.71, 0.219539
1982.47, 0.219669
1983.23, 0.219756
1983.99, 0.219756
1984.74, 0.219887
1985.51, 0.220017
1986.27, 0.220235
1987.03, 0.220235
1987.79, 0.220061
1988.55, 0.220278
1989.32, 0.220322
1990.08, 0.220453
1990.84, 0.220714
1991.61, 0.220888
1992.37, 0.220714
1993.14, 0.220844
1993.9, 0.221018
1994.67, 0.221192
1995.44, 0.221192
1996.21, 0.221149
1996.98, 0.221323
1997.75, 0.221628
1998.52, 0.221584
1999.29, 0.221671
2000.06, 0.221802
2000.83, 0.221715
2001.6, 0.221628
2002.38, 0.221845
2003.15, 0.221976
2003.93, 0.222194
2004.7, 0.222455
2005.48, 0.222672
2006.25, 0.222803
2007.03, 0.222890
2007.81, 0.223064
2008.58, 0.223238
2009.36, 0.223151
2010.14, 0.223108
2010.92, 0.223238
2011.7, 0.223412
2012.48, 0.223630
2013.26, 0.223586
2014.05, 0.223586
2014.83, 0.223847
2015.61, 0.223978
2016.4, 0.224022
2017.18, 0.223978
2017.97, 0.224239
2018.75, 0.224413
2019.54, 0.224413
2020.32, 0.224326
2021.11, 0.224544
2021.9, 0.224849
2022.69, 0.225066
2023.48, 0.225110
2024.27, 0.225197
2025.06, 0.225327
2025.85, 0.225458
2026.64, 0.225458
2027.44, 0.225588
2028.23, 0.225893
2029.02, 0.225893
2029.82, 0.225893
2030.61, 0.225980
2031.41, 0.226241
2032.2, 0.226372
2033.0, 0.226415
2033.8, 0.226372
2034.6, 0.226415
2035.4, 0.226633
2036.2, 0.226677
2037.0, 0.226677
2037.8, 0.226894
2038.6, 0.227025
2039.4, 0.227025
2040.2, 0.227025
2041.01, 0.227199
2041.81, 0.227199
2042.61, 0.227155
2043.42, 0.227286
2044.22, 0.227460
2045.03, 0.227678
2045.84, 0.227852
2046.65, 0.228069
2047.46, 0.228026
2048.26, 0.227852
2049.07, 0.227765
2049.88, 0.227895
2050.69, 0.227982
2051.51, 0.227982
2052.32, 0.228113
2053.13, 0.228287
2053.94, 0.228243
2054.76, 0.228243
2055.57, 0.228331
2056.39, 0.228374
2057.2, 0.228505
2058.02, 0.228505
2058.84, 0.228461
2059.66, 0.228548
2060.48, 0.228766
2061.29, 0.228853
2062.11, 0.228722
2062.94, 0.228809
2063.76, 0.228896
2064.58, 0.228940
2065.4, 0.228940
2066.22, 0.228940
2067.05, 0.229027
2067.87, 0.229157
2068.7, 0.229114
2069.52, 0.229157
2070.35, 0.229332
2071.18, 0.229375
2072.0, 0.229462
2072.83, 0.229680
2073.66, 0.229810
2074.49, 0.229767
2075.32, 0.229723
2076.15, 0.229767
2076.98, 0.229984
2077.82, 0.229984
2078.65, 0.229941
2079.48, 0.230202
2080.32, 0.230333
2081.15, 0.230463
2081.99, 0.230420
2082.83, 0.230637
2083.66, 0.230681
2084.5, 0.230724
2085.34, 0.230768
2086.18, 0.230855
2087.02, 0.231029
2087.86, 0.231203
2088.7, 0.231203
2089.54, 0.231116
2090.39, 0.231247
2091.23, 0.231551
2092.07, 0.231595
2092.92, 0.231682
2093.76, 0.231812
2094.61, 0.231812
2095.45, 0.231725
2096.3, 0.231856
2097.15, 0.232030
2098.0, 0.232117
2098.85, 0.232161
2099.7, 0.232335
2100.55, 0.232335
2101.4, 0.232291
2102.25, 0.232422
2103.1, 0.232639
2103.96, 0.232770
2104.81, 0.232901
2105.67, 0.232988
2106.52, 0.233075
2107.38, 0.233379
2108.24, 0.233466
2109.09, 0.233423
2109.95, 0.233423
2110.81, 0.233597
2111.67, 0.233771
2112.53, 0.233902
2113.39, 0.234163
2114.25, 0.234206
2115.12, 0.234293
2115.98, 0.234424
2116.84, 0.234642
2117.71, 0.234598
2118.58, 0.234511
2119.44, 0.234859
2120.31, 0.235033
2121.18, 0.235120
2122.04, 0.235077
2122.91, 0.235077
2123.78, 0.235294
2124.65, 0.235469
2125.52, 0.235643
2126.4, 0.235860
2127.27, 0.235904
2128.14, 0.236034
2129.02, 0.236252
2129.89, 0.236252
2130.77, 0.236339
2131.64, 0.236383
2132.52, 0.236426
2133.4, 0.236470
2134.27, 0.236687
2135.15, 0.236861
2136.03, 0.236861
2136.91, 0.236905
2137.79, 0.237122
2138.68, 0.237253
2139.56, 0.237297
2140.44, 0.237340
2141.33, 0.237427
2142.21, 0.237514
2143.1, 0.237427
2143.99, 0.237688
2144.87, 0.237775
2145.76, 0.237775
2146.65, 0.237993
2147.54, 0.238124
2148.43, 0.238254
2149.32, 0.238254
2150.21, 0.238298
2151.1, 0.238341
2151.99, 0.238298
2152.89, 0.238385
2153.78, 0.238646
2154.68, 0.238646
2155.57, 0.238515
2156.47, 0.238602
2157.37, 0.238689
2158.27, 0.238863
2159.16, 0.238907
2160.06, 0.238863
2160.96, 0.238951
2161.86, 0.238994
2162.77, 0.238907
2163.67, 0.238863
2164.57, 0.238994
2165.48, 0.239168
2166.38, 0.239212
2167.29, 0.239255
2168.2, 0.239255
2169.1, 0.239255
2170.01, 0.239342
2170.92, 0.239386
2171.83, 0.239429
2172.74, 0.239429
2173.65, 0.239560
2174.56, 0.239603
2175.47, 0.239690
2176.39, 0.239777
2177.3, 0.239821
2178.22, 0.239865
2179.13, 0.239865
2180.05, 0.239908
2180.96, 0.240039
2181.88, 0.240039
2182.8, 0.239995
2183.72, 0.239995
2184.64, 0.240039
2185.56, 0.240213
2186.48, 0.240474
2187.41, 0.240430
2188.33, 0.240387
2189.25, 0.240474
2190.18, 0.240561
2191.1, 0.240735
2192.03, 0.240822
2192.96, 0.240909
2193.89, 0.240866
2194.82, 0.240866
2195.74, 0.240953
2196.68, 0.240953
2197.61, 0.241040
2198.54, 0.241127
2199.47, 0.241170
2200.4, 0.241257
2201.34, 0.241257
2202.28, 0.241388
2203.21, 0.241606
2204.15, 0.241518
2205.08, 0.241562
2206.02, 0.241780
2206.96, 0.241997
2207.9, 0.241997
2208.84, 0.242128
2209.78, 0.242171
2210.73, 0.242345
2211.67, 0.242345
2212.61, 0.242389
2213.56, 0.242476
2214.5, 0.242650
2215.45, 0.242781
2216.4, 0.242868
2217.35, 0.242955
2218.3, 0.242955
2219.24, 0.243129
2220.2, 0.243347
2221.15, 0.243608
2222.1, 0.243651
2223.05, 0.243695
2224.0, 0.243782
2224.96, 0.243956
2225.91, 0.244173
2226.87, 0.244173
2227.83, 0.244348
2228.79, 0.244391
2229.74, 0.244478
2230.7, 0.244565
2231.66, 0.244696
2232.63, 0.244739
2233.59, 0.244913
2234.55, 0.245044
2235.51, 0.245131
2236.48, 0.245262
2237.44, 0.245392
2238.41, 0.245653
2239.38, 0.245871
2240.34, 0.245827
2241.31, 0.245827
2242.28, 0.245958
2243.25, 0.246045
2244.22, 0.246089
2245.19, 0.246393
2246.17, 0.246567
2247.14, 0.246567
2248.12, 0.246480
2249.09, 0.246567
2250.07, 0.246741
2251.04, 0.246959
2252.02, 0.247177
2253.0, 0.247220
2253.98, 0.247264
2254.96, 0.247351
2255.94, 0.247307
2256.92, 0.247351
2257.91, 0.247525
2258.89, 0.247612
2259.88, 0.247568
2260.86, 0.247699
2261.85, 0.247960
2262.83, 0.248047
2263.82, 0.248091
2264.81, 0.248178
2265.8, 0.248178
2266.79, 0.248265
2267.78, 0.248439
2268.78, 0.248569
2269.77, 0.248613
2270.76, 0.248700
2271.76, 0.248700
2272.75, 0.248744
2273.75, 0.248744
2274.75, 0.248700
2275.75, 0.248787
2276.75, 0.248874
2277.75, 0.248918
2278.75, 0.249092
2279.75, 0.249266
2280.75, 0.249222
2281.76, 0.249179
2282.76, 0.249266
2283.77, 0.249222
2284.77, 0.249396
2285.78, 0.249527
2286.79, 0.249396
2287.8, 0.248937
2288.81, 0.248436
2289.82, 0.248395
2290.83, 0.248812
2291.84, 0.249104
2292.86, 0.249063
2293.87, 0.249230
2294.89, 0.249271
2295.91, 0.248979
2296.92, 0.249104
2297.94, 0.249438
2298.96, 0.249730
2299.98, 0.249563
2301.0, 0.249438
2302.02, 0.249772
2303.04, 0.250064
2304.07, 0.249730
2305.09, 0.249605
2306.12, 0.249772
2307.15, 0.250023
2308.17, 0.249981
2309.2, 0.249814
2310.23, 0.249939
2311.26, 0.250106
2312.29, 0.250106
2313.32, 0.250023
2314.35, 0.250148
2315.39, 0.250273
2316.42, 0.250482
2317.46, 0.250649
2318.5, 0.250482
2319.53, 0.250690
2320.57, 0.250774
2321.61, 0.251024
2322.65, 0.251108
2323.69, 0.250899
2324.73, 0.251233
2325.78, 0.251275
2326.82, 0.251275
2327.86, 0.251233
2328.91, 0.251066
2329.96, 0.251567
2331.01, 0.252068
2332.05, 0.252360
2333.1, 0.252610
2334.15, 0.252235
2335.21, 0.251943
2336.26, 0.252026
2337.31, 0.252151
2338.36, 0.252360
2339.42, 0.252736
2340.48, 0.252986
2341.53, 0.252819
2342.59, 0.252610
2343.65, 0.252694
2344.71, 0.252694
2345.77, 0.252903
2346.83, 0.252986
2347.9, 0.252944
2348.96, 0.253529
2350.02, 0.254030
2351.09, 0.254030
2352.16, 0.254071
2353.23, 0.254238
2354.29, 0.254155
2355.36, 0.254364
2356.43, 0.254614
2357.51, 0.254656
2358.58, 0.254447
2359.65, 0.254614
2360.73, 0.255031
2361.8, 0.254781
2362.88, 0.254864
2363.96, 0.255198
2365.03, 0.255324
2366.11, 0.255407
2367.19, 0.255449
2368.27, 0.255282
2369.36, 0.255908
2370.44, 0.256200
2371.53, 0.256284
2372.61, 0.256284
2373.7, 0.255991
2374.78, 0.256158
2375.87, 0.256576
2376.96, 0.256325
2378.05, 0.256451
2379.14, 0.256826
2380.24, 0.256826
2381.33, 0.256910
2382.42, 0.257160
2383.52, 0.257536
2384.61, 0.257494
2385.71, 0.257578
2386.81, 0.257828
2387.91, 0.257786
2389.01, 0.257828
2390.11, 0.257911
2391.22, 0.257911
2392.32, 0.258204
2393.42, 0.258204
2394.53, 0.258371
2395.64, 0.258412
2396.74, 0.258329
2397.85, 0.258496
2398.96, 0.258454
2400.07, 0.258329
2401.18, 0.258245
2402.3, 0.258371
2403.41, 0.258704
2404.52, 0.258746
2405.64, 0.258871
2406.76, 0.258871
2407.88, 0.258704
2408.99, 0.258830
2410.11, 0.258830
2411.23, 0.258746
2412.36, 0.258746
2413.48, 0.258955
2414.6, 0.259038
2415.73, 0.259372
2416.85, 0.259498
2417.98, 0.259539
2419.11, 0.259498
2420.24, 0.259748
2421.37, 0.259915
2422.5, 0.259790
2423.64, 0.259706
2424.77, 0.259790
2425.9, 0.259831
2427.04, 0.259915
2428.18, 0.259957
2429.31, 0.259873
2430.45, 0.259790
2431.59, 0.259998
2432.73, 0.260165
2433.88, 0.260082
2435.02, 0.260249
2436.16, 0.260291
2437.31, 0.260207
2438.45, 0.260249
2439.6, 0.260332
2440.75, 0.260249
2441.9, 0.260583
2443.05, 0.260458
2444.2, 0.260499
2445.35, 0.260833
2446.51, 0.260792
2447.67, 0.260750
2448.82, 0.260750
2449.98, 0.260833
2451.14, 0.260875
2452.3, 0.260833
2453.46, 0.260833
2454.62, 0.260792
2455.78, 0.260917
2456.94, 0.261125
2458.11, 0.261000
2459.28, 0.261084
2460.44, 0.261167
2461.61, 0.261167
2462.78, 0.261251
2463.95, 0.261459
2465.12, 0.261251
2466.3, 0.261125
2467.47, 0.261251
2468.65, 0.261334
2469.82, 0.261459
2471.0, 0.261543
2472.18, 0.261710
2473.36, 0.261918
2474.54, 0.262044
2475.72, 0.262419
2476.9, 0.262712
2478.08, 0.262461
2479.27, 0.262336
2480.46, 0.262545
2481.64, 0.262503
2482.83, 0.262545
2484.02, 0.262920
2485.21, 0.262920
2486.4, 0.262837
2487.6, 0.262878
2488.79, 0.262920
2489.99, 0.262837
2491.18, 0.263004
2492.38, 0.263212
2493.58, 0.263546
2494.78, 0.263463
2495.98, 0.263421
2497.18, 0.263672
2498.39, 0.263672
2499.59, 0.263588
2500.8, 0.263672
2502.01, 0.263880
2503.21, 0.264172
2504.42, 0.264381
2505.63, 0.264506
2506.84, 0.264548
2508.06, 0.264715
2509.27, 0.264882
2510.49, 0.264924
2511.7, 0.264966
2512.92, 0.265174
2514.14, 0.265299
2515.36, 0.265425
2516.58, 0.265466
2517.8, 0.265759
2519.03, 0.266134
2520.25, 0.266259
2521.48, 0.266176
2522.7, 0.266301
2523.93, 0.266301
2525.16, 0.266510
2526.39, 0.266719
2527.62, 0.266969
2528.86, 0.267136
2530.09, 0.267345
2531.33, 0.267553
2532.56, 0.267804
2533.8, 0.267553
2535.04, 0.267929
2536.28, 0.268263
2537.52, 0.267846
2538.76, 0.267679
2540.01, 0.267762
2541.25, 0.268722
2542.5, 0.270016
2543.75, 0.269557
2544.99, 0.268931
2546.24, 0.269432
2547.49, 0.270016
2548.75, 0.269014
2550.0, 0.269432
2551.26, 0.270767
2552.51, 0.271101
2553.77, 0.269473
2555.03, 0.268513
2556.29, 0.268847
2557.55, 0.269098
2558.81, 0.270100
2560.08, 0.273439
2561.34, 0.275526
2562.61, 0.275108
2563.88, 0.274274
2565.14, 0.271268
2566.41, 0.269473
2567.68, 0.270976
2568.96, 0.273898
2570.23, 0.272228
2571.51, 0.271143
2572.78, 0.275317
2574.06, 0.273188
2575.34, 0.272562
2576.62, 0.274065
2577.9, 0.271393
2579.18, 0.270726
2580.47, 0.273063
2581.75, 0.273397
2583.04, 0.277195
2584.32, 0.275442
2585.61, 0.273063
2586.9, 0.275067
2588.2, 0.273480
2589.49, 0.271811
2590.78, 0.270809
2592.08, 0.273105
2593.37, 0.283122
2594.67, 0.288632
2595.97, 0.277738
2597.27, 0.271226
2598.57, 0.269974
2599.88, 0.271185
2601.18, 0.273021
2602.49, 0.274065
2603.79, 0.276903
2605.1, 0.279366
2606.41, 0.275693
2607.72, 0.273606
2609.03, 0.273689
2610.35, 0.272103
2611.66, 0.271560
2612.98, 0.272145
2614.3, 0.271519
2615.62, 0.276945
2616.94, 0.278406
2618.26, 0.274315
2619.58, 0.277738
2620.91, 0.274983
2622.23, 0.269891
2623.56, 0.270100
2624.89, 0.272938
2626.22, 0.276653
2627.55, 0.273063
2628.88, 0.275776
2630.21, 0.279324
2631.55, 0.273940
2632.89, 0.273230
2634.22, 0.272771
2635.56, 0.270308
2636.9, 0.270100
2638.25, 0.270141
2639.59, 0.270475
2640.93, 0.271018
2642.28, 0.271101
2643.63, 0.271226
2644.98, 0.273188
2646.33, 0.272228
2647.68, 0.270684
2649.03, 0.270392
2650.39, 0.271811
2651.74, 0.274399
2653.1, 0.273272
2654.46, 0.272270
2655.82, 0.272020
2657.18, 0.270767
2658.54, 0.273397
2659.9, 0.273814
2661.27, 0.272813
2662.64, 0.272980
2664.01, 0.279324
2665.38, 0.283206
2666.74, 0.280994
2668.12, 0.276778
2669.49, 0.284249
2670.87, 0.280868
2672.24, 0.272103
2673.62, 0.272312
2675.0, 0.276152
2676.38, 0.278698
2677.76, 0.277028
2679.15, 0.275317
2680.54, 0.270350
2681.92, 0.270058
2683.31, 0.270726
2684.7, 0.269766
2686.09, 0.269223
2687.48, 0.267512
2688.88, 0.265967
2690.27, 0.264799
2691.67, 0.266009
2693.07, 0.269181
2694.47, 0.266969
2695.87, 0.262336
2697.27, 0.258579
2698.67, 0.256868
2700.08, 0.256910
2701.49, 0.254990
2702.9, 0.251191
2704.31, 0.249689
2705.72, 0.248228
2707.13, 0.248311
2708.54, 0.250440
2709.96, 0.252485
2711.38, 0.248854
2712.8, 0.242969
2714.22, 0.241675
2715.64, 0.241007
2717.06, 0.240464
2718.49, 0.240715
2719.91, 0.244346
2721.34, 0.239713
2722.77, 0.237876
2724.2, 0.239212
2725.63, 0.233744
2727.07, 0.228986
2728.5, 0.226815
2729.94, 0.225062
2731.38, 0.223100
2732.82, 0.222808
2734.26, 0.223852
2735.7, 0.220471
2737.15, 0.218801
2738.59, 0.221932
2740.04, 0.221347
2741.49, 0.215879
2742.94, 0.210203
2744.39, 0.207114
2745.84, 0.205069
2747.3, 0.203399
2748.76, 0.201855
2750.21, 0.200394
2751.67, 0.198933
2753.14, 0.199058
2754.6, 0.202397
2756.06, 0.198724
2757.53, 0.193089
2759.0, 0.191294
2760.46, 0.191253
2761.94, 0.192547
2763.41, 0.191086
2764.88, 0.188957
2766.36, 0.188832
2767.83, 0.188206
2769.31, 0.187663
2770.79, 0.187287
2772.27, 0.184866
2773.76, 0.183197
2775.24, 0.182821
2776.73, 0.182446
2778.22, 0.181444
2779.71, 0.180985
2781.2, 0.180525
2782.69, 0.179440
2784.18, 0.178981
2785.68, 0.180609
2787.18, 0.180859
2788.68, 0.179273
2790.18, 0.178605
2791.68, 0.178522
2793.19, 0.178647
2794.69, 0.178939
2796.2, 0.179190
2797.71, 0.179065
2799.22, 0.179315
2800.73, 0.180651
2802.24, 0.182320
2803.76, 0.181652
2805.28, 0.180233
2806.8, 0.179649
2808.32, 0.179315
2809.84, 0.178856
2811.36, 0.178313
2812.89, 0.178272
2814.42, 0.178438
2815.94, 0.178021
2817.48, 0.178063
2819.01, 0.178522
2820.54, 0.178021
2822.08, 0.177270
2823.61, 0.176602
2825.15, 0.176268
2826.69, 0.176226
2828.23, 0.175767
2829.78, 0.175266
2831.32, 0.175308
2832.87, 0.175475
2834.42, 0.175099
2835.97, 0.174557
2837.52, 0.174139
2839.08, 0.173513
2840.63, 0.173096
2842.19, 0.172637
2843.75, 0.172177
2845.31, 0.171718
2846.87, 0.171259
2848.44, 0.170967
2850.0, 0.170633
2851.57, 0.170257
2853.14, 0.170049
2854.71, 0.169590
2856.28, 0.169005
2857.86, 0.168671
2859.43, 0.168421
2861.01, 0.167920
2862.59, 0.167586
2864.17, 0.167169
2865.76, 0.166751
2867.34, 0.166626
2868.93, 0.166334
2870.52, 0.166000
2872.11, 0.165708
2873.7, 0.165123
2875.29, 0.164748
2876.89, 0.164456
2878.49, 0.164205
2880.08, 0.163996
2881.69, 0.163704
2883.29, 0.163454
2884.89, 0.163287
2886.5, 0.163120
2888.11, 0.162911
2889.72, 0.162786
2891.33, 0.162619
2892.94, 0.162369
2894.56, 0.162327
2896.17, 0.162327
2897.79, 0.162285
2899.42, 0.162160
2901.04, 0.162076
2902.66, 0.161826
2904.29, 0.161659
2905.92, 0.161576
2907.55, 0.161367
2909.18, 0.161325
2910.81, 0.161325
2912.45, 0.161409
2914.08, 0.161492
2915.72, 0.161617
2917.36, 0.161576
2919.01, 0.161576
2920.65, 0.161659
2922.3, 0.161576
2923.94, 0.161409
2925.59, 0.161200
2927.25, 0.161325
2928.9, 0.161576
2930.56, 0.161617
2932.21, 0.161617
2933.87, 0.161701
2935.53, 0.161659
2937.2, 0.161701
2938.86, 0.161659
2940.53, 0.161576
2942.2, 0.161742
2943.87, 0.161909
2945.54, 0.162202
2947.22, 0.162577
2948.89, 0.162619
2950.57, 0.162703
2952.25, 0.162911
2953.93, 0.163078
2955.62, 0.163287
2957.3, 0.163537
2958.99, 0.163579
2960.68, 0.163871
2962.37, 0.164247
2964.07, 0.164330
2965.76, 0.164456
2967.46, 0.164706
2969.16, 0.164873
2970.86, 0.165040
2972.56, 0.165457
2974.27, 0.165666
2975.98, 0.165791
2977.69, 0.166125
2979.4, 0.166334
2981.11, 0.166543
2982.83, 0.166835
2984.54, 0.167210
2986.26, 0.167461
2987.98, 0.167628
2989.71, 0.167795
2991.43, 0.168254
2993.16, 0.168588
2994.89, 0.168838
2996.62, 0.169089
2998.35, 0.169256
3000.09, 0.169506
3001.83, 0.169631
3003.57, 0.169840
3005.31, 0.170174
3007.05, 0.170633
3008.79, 0.170884
3010.54, 0.170925
3012.29, 0.171176
3014.04, 0.171510
3015.8, 0.171760
3017.55, 0.172094
3019.31, 0.172511
3021.07, 0.172804
3022.83, 0.172929
3024.59, 0.173221
3026.36, 0.173597
3028.13, 0.173889
3029.9, 0.174264
3031.67, 0.174473
3033.44, 0.174640
3035.22, 0.174891
3037.0, 0.175183
3038.78, 0.175475
3040.56, 0.175892
3042.34, 0.176185
3044.13, 0.176477
3045.92, 0.176727
3047.71, 0.176894
3049.5, 0.177228
3051.3, 0.177478
3053.09, 0.177687
3054.89, 0.178063
3056.69, 0.178230
3058.5, 0.178438
3060.3, 0.178647
3062.11, 0.178981
3063.92, 0.179190
3065.73, 0.179399
3067.55, 0.179691
3069.36, 0.180025
3071.18, 0.180525
3073.0, 0.180943
3074.82, 0.181068
3076.65, 0.181277
3078.48, 0.181611
3080.31, 0.182028
3082.14, 0.182279
3083.97, 0.182571
3085.8, 0.182905
3087.64, 0.183113
3089.48, 0.183489
3091.33, 0.183990
3093.17, 0.184366
3095.02, 0.184574
3096.87, 0.184825
3098.72, 0.185284
3100.57, 0.185660
3102.43, 0.186244
3104.28, 0.186786
3106.14, 0.186995
3108.01, 0.187287
3109.87, 0.187830
3111.74, 0.188206
3113.61, 0.188581
3115.48, 0.188957
3117.35, 0.189416
3119.23, 0.189917
3121.1, 0.190293
3122.98, 0.190668
3124.87, 0.191253
3126.75, 0.191795
3128.64, 0.192213
3130.53, 0.192505
3132.42, 0.193047
3134.31, 0.193507
3136.21, 0.193882
3138.11, 0.194425
3140.01, 0.194968
3141.91, 0.195468
3143.82, 0.195969
3145.73, 0.196345
3147.64, 0.196804
3149.55, 0.197180
3151.46, 0.197597
3153.38, 0.198056
3155.3, 0.198599
3157.22, 0.199142
3159.14, 0.199559
3161.07, 0.200060
3163.0, 0.200602
3164.93, 0.201103
3166.86, 0.201521
3168.8, 0.201896
3170.74, 0.202314
3172.68, 0.202815
3174.62, 0.203316
3176.56, 0.203733
3178.51, 0.204234
3180.46, 0.204735
3182.42, 0.205277
3184.37, 0.205611
3186.33, 0.206070
3188.29, 0.206613
3190.25, 0.207072
3192.21, 0.207448
3194.18, 0.207990
3196.15, 0.208491
3198.12, 0.208825
3200.09, 0.209368
3202.07, 0.209994
3204.05, 0.210328
3206.03, 0.210662
3208.02, 0.211121
3210.0, 0.211622
3211.99, 0.212039
3213.98, 0.212498
3215.98, 0.212874
3217.97, 0.213417
3219.97, 0.213876
3221.97, 0.214293
3223.98, 0.214752
3225.98, 0.215170
3227.99, 0.215671
3230.0, 0.216213
3232.02, 0.216589
3234.03, 0.216881
3236.05, 0.217424
3238.07, 0.217966
3240.1, 0.218384
3242.12, 0.218718
3244.15, 0.219135
3246.18, 0.219636
3248.22, 0.220053
3250.25, 0.220345
3252.29, 0.220972
3254.33, 0.221681
3256.38, 0.222057
3258.43, 0.222349
3260.47, 0.222766
3262.53, 0.223142
3264.58, 0.223643
3266.64, 0.224144
3268.7, 0.224645
3270.76, 0.225104
3272.82, 0.225563
3274.89, 0.225939
3276.96, 0.226189
3279.04, 0.226690
3281.11, 0.227191
3283.19, 0.227525
3285.27, 0.228026
3287.35, 0.228526
3289.44, 0.228819
3291.53, 0.229153
3293.62, 0.229695
3295.71, 0.230280
3297.81, 0.230864
3299.91, 0.231240
3302.01, 0.231532
3304.11, 0.231949
3306.22, 0.232408
3308.33, 0.232867
3310.44, 0.233327
3312.56, 0.233619
3314.68, 0.233911
3316.8, 0.234370
3318.92, 0.234871
3321.05, 0.235121
3323.18, 0.235497
3325.31, 0.235998
3327.44, 0.236499
3329.58, 0.236958
3331.72, 0.237292
3333.86, 0.237751
3336.01, 0.238210
3338.16, 0.238628
3340.31, 0.239045
3342.46, 0.239504
3344.61, 0.239963
3346.77, 0.240297
3348.94, 0.240506
3351.1, 0.240965
3353.27, 0.241215
3355.44, 0.241382
3357.61, 0.241508
3359.79, 0.241633
3361.97, 0.241800
3364.15, 0.242008
3366.33, 0.242092
3368.52, 0.242134
3370.71, 0.242259
3372.9, 0.242509
3375.1, 0.242802
3377.3, 0.243135
3379.5, 0.243469
3381.71, 0.243970
3383.91, 0.244596
3386.12, 0.245222
3388.34, 0.245723
3390.55, 0.246099
3392.77, 0.246516
3394.99, 0.246767
3397.22, 0.246892
3399.45, 0.247017
3401.68, 0.247143
3403.91, 0.247309
3406.15, 0.247351
3408.39, 0.247560
3410.63, 0.247894
3412.87, 0.248144
3415.12, 0.248520
3417.37, 0.249146
3419.63, 0.249897
3421.88, 0.250774
3424.14, 0.251650
3426.41, 0.252485
3428.67, 0.253111
3430.94, 0.253654
3433.21, 0.254280
3435.49, 0.254948
3437.77, 0.255574
3440.05, 0.256158
3442.33, 0.256617
3444.62, 0.257077
3446.91, 0.257578
3449.2, 0.258037
3451.5, 0.258412
3453.8, 0.258955
3456.1, 0.259414
3458.41, 0.259873
3460.72, 0.260332
3463.03, 0.260625
3465.34, 0.260917
3467.66, 0.261292
3469.98, 0.261626
3472.31, 0.261877
3474.63, 0.262127
3476.96, 0.262419
3479.3, 0.262712
3481.64, 0.263087
3483.97, 0.263338
3486.32, 0.263672
3488.66, 0.263880
3491.01, 0.263922
3493.36, 0.264089
3495.72, 0.264298
3498.08, 0.264548
3500.44, 0.265049
3502.81, 0.265425
3505.18, 0.266051
3507.55, 0.266844
3509.92, 0.267470
3512.3, 0.268054
3514.68, 0.268639
3517.06, 0.269181
3519.45, 0.269766
3521.84, 0.270100
3524.24, 0.270517
3526.64, 0.270934
3529.04, 0.271310
3531.44, 0.271644
3533.85, 0.272145
3536.26, 0.272646
3538.67, 0.273021
3541.09, 0.273314
3543.51, 0.273689
3545.93, 0.274148
3548.36, 0.274524
3550.79, 0.274900
3553.22, 0.275108
3555.66, 0.275275
3558.1, 0.275776
3560.54, 0.276194
3562.99, 0.276611
3565.44, 0.277028
3567.9, 0.277321
3570.35, 0.277654
3572.81, 0.278030
3575.28, 0.278364
3577.75, 0.278698
3580.22, 0.279032
3582.69, 0.279282
3585.17, 0.279616
3587.65, 0.279908
3590.14, 0.280284
3592.62, 0.280660
3595.11, 0.280994
3597.61, 0.281286
3600.11, 0.281620
3602.61, 0.281954
3605.11, 0.282288
3607.62, 0.282663
3610.14, 0.283039
3612.65, 0.283331
3615.17, 0.283498
3617.69, 0.283707
3620.22, 0.284124
3622.75, 0.284625
3625.28, 0.284917
3627.82, 0.285168
3630.36, 0.285418
3632.9, 0.285627
3635.45, 0.285877
3638.0, 0.286211
3640.56, 0.286629
3643.12, 0.286837
3645.68, 0.287171
3648.24, 0.287463
3650.81, 0.287756
3653.39, 0.288089
3655.96, 0.288340
3658.54, 0.288549
3661.13, 0.288924
3663.71, 0.289383
3666.3, 0.289717
3668.9, 0.290093
3671.5, 0.290469
3674.1, 0.290803
3676.7, 0.291136
3679.31, 0.291554
3681.93, 0.291804
3684.54, 0.292138
3687.17, 0.292347
3689.79, 0.292639
3692.42, 0.292973
3695.05, 0.293307
3697.69, 0.293808
3700.32, 0.294183
3702.97, 0.294517
3705.61, 0.294810
3708.27, 0.295144
3710.92, 0.295519
3713.58, 0.295770
3716.24, 0.296145
3718.91, 0.296604
3721.58, 0.296897
3724.25, 0.297147
3726.93, 0.297523
3729.61, 0.297898
3732.29, 0.298191
3734.98, 0.298524
3737.67, 0.298900
3740.37, 0.299192
3743.07, 0.299484
3745.78, 0.299735
3748.49, 0.300027
3751.2, 0.300361
3753.91, 0.300778
3756.63, 0.301029
3759.36, 0.301154
3762.09, 0.301363
3764.82, 0.301655
3767.55, 0.301989
3770.29, 0.302198
3773.04, 0.302365
3775.78, 0.302615
3778.54, 0.302949
3781.29, 0.303241
3784.05, 0.303492
3786.82, 0.303617
3789.59, 0.303784
3792.36, 0.304034
3795.13, 0.304201
3797.92, 0.304368
3800.7, 0.304619
3803.49, 0.304827
3806.28, 0.305036
3809.08, 0.305203
3811.88, 0.305286
3814.68, 0.305328
3817.49, 0.305412
3820.31, 0.305495
3823.12, 0.305704
3825.94, 0.305787
3828.77, 0.305954
3831.6, 0.306121
3834.43, 0.306246
3837.27, 0.306413
3840.11, 0.306580
3842.96, 0.306705
3845.81, 0.306747
3848.67, 0.306914
3851.53, 0.307039
3854.39, 0.307123
3857.26, 0.307290
3860.13, 0.307248
3863.01, 0.307332
3865.89, 0.307499
3868.77, 0.307665
3871.66, 0.307665
3874.55, 0.307707
3877.45, 0.307832
3880.35, 0.307999
3883.26, 0.308041
3886.17, 0.308083
3889.09, 0.308166
3892.01, 0.308292
3894.93, 0.308459
3897.86, 0.308542
3900.79, 0.308584
3903.73, 0.308667
3906.67, 0.308751
3909.62, 0.308834
3912.57, 0.309001
3915.52, 0.309168
3918.48, 0.309335
3921.45, 0.309502
3924.42, 0.309460
3927.39, 0.309544
3930.37, 0.309627
3933.35, 0.309711
3936.34, 0.309836
3939.33, 0.309836
3942.32, 0.309961
3945.32, 0.310170
3948.33, 0.310212
3951.34, 0.310253
3954.35, 0.310295
3957.37, 0.310420
3960.39, 0.310629
3963.42, 0.310796
3966.45, 0.310879
3969.49, 0.311005
3972.53, 0.311213
3975.58, 0.311380
3978.63, 0.311422
3981.68, 0.311589
3984.75, 0.311881
3987.81, 0.312173
3990.88, 0.312299
3993.95, 0.312507
3997.03, 0.312758
4000.12, 0.313092
4003.21, 0.313217
4006.3, 0.313342
4009.4, 0.313551
4012.5, 0.313843
4015.61, 0.314010
4018.72, 0.314135
4021.84, 0.314386
4024.96, 0.314594
4028.09, 0.314636
4031.22, 0.314720
4034.36, 0.314928
4037.5, 0.315137
4040.65, 0.315262
4043.8, 0.315387
4046.96, 0.315596
4050.12, 0.315680
4053.29, 0.315721
4056.46, 0.315638
4059.64, 0.315596
4062.82, 0.315680
4066.0, 0.315763
4069.19, 0.315721
4072.39, 0.315680
4075.59, 0.315763
4078.8, 0.315805
4082.01, 0.315805
4085.23, 0.315805
4088.45, 0.315763
4091.68, 0.315721
4094.91, 0.315888
4098.15, 0.316014
4101.39, 0.316055
4104.63, 0.315972
4107.89, 0.315972
4111.14, 0.316055
4114.41, 0.316180
4117.67, 0.316222
4120.95, 0.316264
4124.23, 0.316264
4127.51, 0.316306
4130.8, 0.316347
4134.09, 0.316347
4137.39, 0.316431
4140.7, 0.316598
4144.01, 0.316598
4147.32, 0.316556
4150.64, 0.316514
4153.97, 0.316556
4157.3, 0.316556
4160.64, 0.316598
4163.98, 0.316640
4167.33, 0.316640
4170.68, 0.316556
4174.04, 0.316556
4177.4, 0.316473
4180.77, 0.316431
4184.14, 0.316473
4187.52, 0.316640
4190.91, 0.316723
4194.3, 0.316848
4197.69, 0.316974
4201.1, 0.317349
4204.5, 0.317934
4207.92, 0.318768
4211.34, 0.319728
4214.76, 0.320688
4218.19, 0.321607
4221.62, 0.322316
4225.06, 0.322775
4228.51, 0.323151
4231.96, 0.323235
4235.42, 0.323276
4238.88, 0.322859
4242.35, 0.322149
4245.83, 0.321189
4249.31, 0.319812
4252.79, 0.318101
4256.28, 0.317307
4259.78, 0.318017
4263.29, 0.318977
4266.79, 0.319561
4270.31, 0.319979
4273.83, 0.320062
4277.35, 0.320188
4280.89, 0.320271
4284.42, 0.320271
4287.97, 0.320188
4291.52, 0.319937
4295.07, 0.319520
4298.63, 0.319186
4302.2, 0.318768
4305.78, 0.318267
4309.35, 0.317808
4312.94, 0.317307
4316.53, 0.316765
4320.13, 0.316389
4323.73, 0.316097
4327.34, 0.315805
4330.96, 0.315513
4334.58, 0.315220
4338.21, 0.314928
4341.84, 0.314678
4345.48, 0.314469
4349.12, 0.314260
4352.77, 0.313927
4356.43, 0.313634
4360.1, 0.313384
4363.76, 0.313175
4367.44, 0.312883
4371.12, 0.312633
4374.81, 0.312340
4378.51, 0.312132
4382.21, 0.311840
4385.92, 0.311422
4389.63, 0.311046
4393.35, 0.310754
4397.08, 0.310379
4400.81, 0.309919
4404.55, 0.309502
4408.29, 0.308959
4412.04, 0.308459
4415.8, 0.307958
4419.57, 0.307290
4423.34, 0.306664
4427.12, 0.305996
4430.9, 0.305370
4434.69, 0.304660
4438.49, 0.303951
4442.29, 0.303199
4446.1, 0.302532
4449.92, 0.301613
4453.74, 0.300653
4457.57, 0.299651
4461.41, 0.298775
4465.25, 0.297940
4469.1, 0.297064
4472.95, 0.296104
4476.82, 0.295102
4480.69, 0.294142
4484.56, 0.293182
4488.44, 0.292096
4492.33, 0.291011
4496.23, 0.289968
4500.13, 0.288924
4504.04, 0.287839
4507.96, 0.286837
4511.88, 0.285877
4515.81, 0.284917
4519.75, 0.283832
4523.69, 0.282830
4527.65, 0.281912
4531.6, 0.280952
4535.57, 0.279867
4539.54, 0.278948
4543.52, 0.278030
4547.5, 0.277195
4551.5, 0.276444
4555.5, 0.275693
4559.5, 0.274900
4563.52, 0.274107
4567.54, 0.273355
4571.56, 0.272646
4575.6, 0.271894
4579.64, 0.271226
4583.69, 0.270642
4587.75, 0.270016
4591.81, 0.269390
4595.88, 0.268806
4599.96, 0.268346
4604.04, 0.268013
4608.14, 0.267512
4612.24, 0.267094
4616.34, 0.266719
4620.46, 0.266259
4624.58, 0.265675
4628.71, 0.265341
4632.84, 0.265132
4636.99, 0.264840
4641.14, 0.264465
4645.3, 0.264256
4649.47, 0.264131
4653.64, 0.264005
4657.82, 0.263838
4662.01, 0.263713
4666.21, 0.263546
4670.41, 0.263463
4674.62, 0.263379
4678.84, 0.263379
4683.07, 0.263379
4687.3, 0.263421
4691.54, 0.263379
4695.79, 0.263379
4700.05, 0.263505
4704.31, 0.263713
4708.59, 0.263797
4712.87, 0.263838
4717.15, 0.264005
4721.45, 0.264131
4725.76, 0.264172
4730.07, 0.264172
4734.39, 0.264256
4738.72, 0.264506
4743.05, 0.264673
4747.39, 0.264757
4751.75, 0.264882
4756.1, 0.265049
4760.47, 0.265216
4764.85, 0.265466
4769.23, 0.265675
4773.62, 0.265926
4778.02, 0.266051
4782.43, 0.266259
4786.85, 0.266552
4791.27, 0.266760
4795.7, 0.266886
4800.14, 0.267178
4804.59, 0.267470
4809.05, 0.267762
4813.51, 0.268013
4817.99, 0.268346
4822.47, 0.268597
4826.96, 0.268806
4831.46, 0.269014
4835.96, 0.269306
4840.48, 0.269724
4845.0, 0.269933
4849.54, 0.270225
4854.08, 0.270475
4858.63, 0.270559
4863.18, 0.270893
4867.75, 0.271226
4872.33, 0.271477
4876.91, 0.271644
4881.5, 0.271894
4886.1, 0.272103
4890.71, 0.272354
4895.33, 0.272562
4899.96, 0.272729
4904.59, 0.272771
4909.24, 0.272813
4913.89, 0.272896
4918.55, 0.273105
4923.22, 0.273272
4927.9, 0.273439
4932.59, 0.273522
4937.29, 0.273689
4942.0, 0.273856
4946.71, 0.273981
4951.44, 0.274107
4956.17, 0.274232
4960.91, 0.274107
4965.67, 0.274065
4970.43, 0.273981
4975.2, 0.273981
4979.98, 0.273981
4984.76, 0.273940
4989.56, 0.273981
4994.37, 0.274148
4999.18, 0.274315
5004.01, 0.274357
5008.84, 0.274315
5013.69, 0.274649
5018.54, 0.275234
5023.4, 0.275150
5028.28, 0.275150
5033.16, 0.275359
5038.05, 0.275526
5042.95, 0.275693
5047.86, 0.275776
5052.78, 0.275901
5057.71, 0.275901
5062.65, 0.276152
5067.6, 0.276444
5072.56, 0.276736
5077.53, 0.277237
5082.5, 0.277947
5087.49, 0.277988
5092.49, 0.278114
5097.5, 0.278364
5102.51, 0.278698
5107.54, 0.279074
5112.58, 0.279449
5117.62, 0.279741
5122.68, 0.280034
5127.75, 0.280284
5132.82, 0.280701
5137.91, 0.281286
5143.01, 0.282329
5148.12, 0.282955
5153.23, 0.282413
5158.36, 0.282496
5163.5, 0.282830
5168.65, 0.283206
5173.81, 0.283623
5178.98, 0.283915
5184.15, 0.284291
5189.34, 0.284792
5194.54, 0.285752
5199.75, 0.286670
5204.98, 0.286796
5210.21, 0.288256
5215.45, 0.288340
5220.7, 0.287129
5225.96, 0.287213
5231.23, 0.287714
5236.52, 0.288131
5241.81, 0.287881
5247.12, 0.287881
5252.44, 0.287881
5257.76, 0.288006
5263.1, 0.288089
5268.45, 0.288507
5273.81, 0.288924
5279.18, 0.288799
5284.56, 0.289049
5289.95, 0.290427
5295.36, 0.290051
5300.77, 0.289592
5306.2, 0.289926
5311.63, 0.290093
5317.08, 0.290302
5322.54, 0.290719
5328.01, 0.291011
5333.49, 0.291262
5338.98, 0.291763
5344.49, 0.294100
5350.0, 0.296104
5355.53, 0.294810
5361.07, 0.293808
5366.62, 0.294058
5372.18, 0.294810
5377.75, 0.295644
5383.34, 0.296479
5388.93, 0.297272
5394.54, 0.298274
5400.16, 0.299109
5405.79, 0.300194
5411.44, 0.301488
5417.09, 0.305078
5422.76, 0.307081
5428.43, 0.303784
5434.12, 0.302991
5439.83, 0.303617
5445.54, 0.303909
5451.26, 0.303825
5457.0, 0.305370
5462.75, 0.307958
5468.52, 0.306789
5474.29, 0.306455
5480.08, 0.306622
5485.88, 0.304577
5491.69, 0.304285
5497.51, 0.304326
5503.35, 0.304577
5509.2, 0.304159
5515.06, 0.304952
5520.93, 0.305662
5526.82, 0.305370
5532.71, 0.304702
5538.63, 0.305036
5544.55, 0.305829
5550.49, 0.307457
5556.44, 0.307206
5562.4, 0.306413
5568.37, 0.306914
5574.36, 0.310796
5580.36, 0.311589
5586.37, 0.307874
5592.4, 0.306372
5598.44, 0.307624
5604.49, 0.307832
5610.56, 0.308083
5616.63, 0.308584
5622.73, 0.307916
5628.83, 0.308584
5634.95, 0.312466
5641.08, 0.316514
5647.23, 0.313342
5653.39, 0.311673
5659.56, 0.309919
5665.74, 0.308918
5671.94, 0.311965
5678.15, 0.311547
5684.38, 0.309878
5690.62, 0.310754
5696.87, 0.309085
5703.14, 0.310379
5709.42, 0.314052
5715.72, 0.312424
5722.03, 0.309878
5728.35, 0.307958
5734.69, 0.307832
5741.03, 0.308459
5747.4, 0.309377
5753.78, 0.306205
5760.17, 0.311380
5766.58, 0.315304
5773.0, 0.306831
5779.44, 0.302615
5785.88, 0.300403
5792.35, 0.298650
5798.83, 0.298316
5805.32, 0.297272
5811.83, 0.299443
5818.35, 0.305745
5824.89, 0.304410
5831.45, 0.298191
5838.01, 0.293724
5844.59, 0.291303
5851.19, 0.291136
5857.8, 0.292389
5864.43, 0.292013
5871.07, 0.291262
5877.73, 0.300069
5884.4, 0.295978
5891.09, 0.291679
5897.79, 0.289926
5904.5, 0.280618
5911.23, 0.277988
5917.98, 0.277237
5924.75, 0.276945
5931.53, 0.283164
5938.32, 0.283248
5945.13, 0.273021
5951.96, 0.268597
5958.8, 0.267053
5965.65, 0.269724
5972.53, 0.266802
5979.42, 0.263755
5986.32, 0.265091
5993.24, 0.261292
6000.18, 0.255365
6007.13, 0.254864
6014.1, 0.254572
6021.08, 0.250190
6028.09, 0.247226
6035.1, 0.247351
6042.14, 0.255991
6049.19, 0.260249
6056.25, 0.246308
6063.34, 0.242551
6070.44, 0.245014
6077.55, 0.240381
6084.69, 0.234579
6091.84, 0.233160
6099.0, 0.233285
6106.19, 0.237208
6113.39, 0.240047
6120.61, 0.234036
6127.84, 0.230864
6135.09, 0.232158
6142.36, 0.233702
6149.65, 0.234579
6156.95, 0.237417
6164.27, 0.237208
6171.61, 0.236708
6178.97, 0.242050
6186.34, 0.244847
6193.73, 0.240756
6201.14, 0.240297
6208.57, 0.241341
6216.01, 0.242008
6223.47, 0.241842
6230.95, 0.241883
6238.45, 0.241800
6245.97, 0.241508
6253.5, 0.240756
6261.06, 0.240339
6268.63, 0.239462
6276.21, 0.238127
6283.82, 0.236374
6291.45, 0.234704
6299.1, 0.232408
6306.76, 0.230154
6314.44, 0.227274
6322.14, 0.224478
6329.86, 0.221932
6337.6, 0.223476
6345.35, 0.221347
6353.13, 0.212498
6360.92, 0.208783
6368.74, 0.207656
6376.57, 0.201771
6384.43, 0.196637
6392.3, 0.192547
6400.19, 0.190668
6408.1, 0.195427
6416.03, 0.192797
6423.98, 0.181527
6431.95, 0.175684
6439.94, 0.170299
6447.95, 0.166751
6455.98, 0.163329
6464.03, 0.160908
6472.1, 0.160282
6480.19, 0.160365
6488.31, 0.161701
6496.44, 0.157944
6504.59, 0.150139
6512.76, 0.148177
6520.95, 0.147801
6529.16, 0.144504
6537.4, 0.143210
6545.65, 0.143627
6553.92, 0.143836
6562.22, 0.144587
6570.54, 0.147050
6578.88, 0.145339
6587.23, 0.144629
6595.61, 0.144629
6604.02, 0.144170
6612.44, 0.145464
6620.89, 0.147509
6629.35, 0.153061
6637.84, 0.156567
6646.35, 0.152727
6654.88, 0.151516
6663.44, 0.154271
6672.01, 0.157902
6680.61, 0.160824
6689.23, 0.160741
6697.88, 0.162035
6706.54, 0.166250
6715.23, 0.168755
6723.94, 0.169548
6732.67, 0.170299
6741.42, 0.172136
6750.2, 0.174640
6759.0, 0.176685
6767.82, 0.180066
6776.67, 0.183698
6785.54, 0.187955
6794.44, 0.188581
6803.35, 0.186661
6812.29, 0.187997
6821.26, 0.191628
6830.24, 0.192755
6839.25, 0.192338
6848.29, 0.195761
6857.35, 0.202522
6866.43, 0.203065
6875.54, 0.198056
6884.67, 0.197597
6893.82, 0.198808
6903.0, 0.200936
6912.2, 0.201145
6921.43, 0.201187
6930.69, 0.201771
6939.96, 0.202314
6949.27, 0.204693
6958.59, 0.208032
6967.95, 0.205110
6977.33, 0.203232
6986.73, 0.204025
6996.16, 0.204568
7005.61, 0.204443
7015.09, 0.206279
7024.6, 0.208116
7034.13, 0.211371
7043.69, 0.216714
7053.27, 0.217090
7062.88, 0.217090
7072.52, 0.219636
7082.18, 0.222975
7091.87, 0.226439
7101.58, 0.230154
7111.32, 0.234954
7121.09, 0.238753
7130.88, 0.241716
7140.71, 0.246516
7150.56, 0.250315
7160.43, 0.253445
7170.33, 0.256784
7180.27, 0.256993
7190.23, 0.258746
7200.21, 0.262753
7210.23, 0.265341
7220.27, 0.265383
7230.34, 0.266886
7240.44, 0.268639
7250.56, 0.270600
7260.72, 0.272312
7270.9, 0.274900
7281.12, 0.275651
7291.36, 0.275442
7301.63, 0.276110
7311.93, 0.276820
7322.25, 0.277654
7332.61, 0.279574
7343.0, 0.279783
7353.41, 0.278865
7363.86, 0.278406
7374.33, 0.278573
7384.83, 0.278614
7395.37, 0.278614
7405.93, 0.278573
7416.53, 0.278573
7427.15, 0.278281
7437.81, 0.277988
7448.5, 0.277947
7459.22, 0.278865
7469.96, 0.278656
7480.74, 0.277654
7491.55, 0.276778
7502.39, 0.276361
7513.27, 0.275860
7524.17, 0.275275
7535.11, 0.274399
7546.08, 0.273522
7557.08, 0.272395
7568.11, 0.271560
7579.17, 0.270642
7590.27, 0.269390
7601.4, 0.267971
7612.56, 0.266886
7623.76, 0.265675
7634.98, 0.264548
7646.24, 0.263379
7657.54, 0.262211
7668.87, 0.260833
7680.23, 0.259414
7691.62, 0.257911
7703.05, 0.256534
7714.51, 0.254864
7726.01, 0.253195
7737.54, 0.251400
7749.11, 0.249605
7760.71, 0.247685
7772.35, 0.245640
7784.02, 0.243428
7795.72, 0.241299
7807.46, 0.239421
7819.23, 0.237668
7831.04, 0.235748
7842.89, 0.233994
7854.77, 0.232408
7866.69, 0.230947
7878.65, 0.229612
7890.64, 0.228652
7902.67, 0.227566
7914.74, 0.226523
7926.84, 0.225605
7938.98, 0.224686
7951.16, 0.223643
7963.37, 0.222850
7975.62, 0.221973
7987.91, 0.221097
8000.24, 0.219970
8012.6, 0.218885
8025.01, 0.217632
8037.45, 0.216046
8049.93, 0.214251
8062.45, 0.212498
8075.01, 0.210453
8087.61, 0.208366
8100.24, 0.206112
8112.91, 0.203900
8125.63, 0.201771
8138.39, 0.199601
8151.18, 0.197347
8164.02, 0.194926
8176.9, 0.192380
8189.81, 0.189583
8202.77, 0.186494
8215.77, 0.183322
8228.82, 0.179899
8241.9, 0.176518
8255.02, 0.173221
8268.19, 0.169840
8281.39, 0.166584
8294.65, 0.163287
8307.94, 0.159989
8321.28, 0.156859
8334.66, 0.153728
8348.08, 0.150514
8361.54, 0.147593
8375.05, 0.144963
8388.6, 0.142208
8402.2, 0.139328
8415.84, 0.136532
8429.52, 0.133985
8443.25, 0.131815
8457.02, 0.129436
8470.84, 0.126931
8484.7, 0.124594
8498.61, 0.122382
8512.57, 0.120086
8526.57, 0.117790
8540.62, 0.115411
8554.71, 0.113032
8568.85, 0.110569
8583.04, 0.108148
8597.27, 0.106270
8611.55, 0.105268
8625.88, 0.104976
8640.26, 0.105018
8654.68, 0.104851
8669.16, 0.104225
8683.68, 0.103265
8698.25, 0.102263
8712.87, 0.101136
8727.53, 0.100051
8742.25, 0.0990490
8757.02, 0.0979640
8771.83, 0.0967530
8786.7, 0.0956260
8801.62, 0.0943320
8816.59, 0.0932890
8831.61, 0.0923710
8846.68, 0.0914520
8861.8, 0.0903670
8876.97, 0.0892820
8892.2, 0.0881550
8907.48, 0.0870700
8922.81, 0.0859010
8938.2, 0.0846490
8953.63, 0.0834800
8969.13, 0.0823110
8984.67, 0.0811840
9000.27, 0.0799740
9015.92, 0.0785960
9031.63, 0.0774690
9047.39, 0.0762590
9063.21, 0.0751740
9079.08, 0.0740470
9095.01, 0.0728780
9111.0, 0.0716680
9127.04, 0.0707080
9143.13, 0.0697060
9159.28, 0.0685790
9175.49, 0.0677020
9191.76, 0.0671180
9208.09, 0.0664500
9224.47, 0.0659490
9240.92, 0.0654070
9257.42, 0.0649470
9273.98, 0.0646140
9290.6, 0.0644880
9307.28, 0.0642800
9324.02, 0.0641960
9340.82, 0.0641130
9357.68, 0.0642380
9374.6, 0.0641130
9391.58, 0.0640290
9408.62, 0.0639040
9425.73, 0.0636120
9442.9, 0.0632780
9460.13, 0.0629860
9477.42, 0.0624010
9494.78, 0.0619840
9512.2, 0.0615660
9529.69, 0.0612740
9547.24, 0.0610660
9564.86, 0.0610240
9582.54, 0.0607320
9600.28, 0.0605650
9618.1, 0.0605230
9635.97, 0.0603560
9653.92, 0.0601470
9671.93, 0.0601470
9690.01, 0.0600640
9708.16, 0.0602730
9726.37, 0.0605230
9744.65, 0.0608990
9763.0, 0.0611910
9781.43, 0.0615660
9799.92, 0.0618590
9818.48, 0.0623180
9837.1, 0.0629440
9855.8, 0.0634870
9874.58, 0.0640710
9893.42, 0.0646550
9912.34, 0.0650730
9931.33, 0.0654070
9950.39, 0.0659070
9969.52, 0.0665340
9988.74, 0.0669510
10008.0, 0.0672010
10027.4, 0.0674520
10046.8, 0.0678690
10066.3, 0.0680360
10085.9, 0.0679530
10105.6, 0.0680780
10125.3, 0.0682030
10145.1, 0.0679530
10165.0, 0.0676610
10185.0, 0.0672430
10205.0, 0.0667010
10225.2, 0.0661160
10245.4, 0.0656570
10265.7, 0.0648640
10286.0, 0.0642380
10306.5, 0.0634870
10327.0, 0.0626520
10347.6, 0.0619000
10368.3, 0.0612330
10389.1, 0.0605230
10409.9, 0.0598550
10430.9, 0.0590620
10451.9, 0.0581860
10473.0, 0.0574340
10494.2, 0.0567660
10515.5, 0.0558900
10536.9, 0.0553470
10558.4, 0.0547210
10579.9, 0.0540120
10601.5, 0.0530520
10623.3, 0.0523840
10645.1, 0.0517160
10667.0, 0.0510480
10689.0, 0.0502970
10711.1, 0.0496290
10733.2, 0.0488780
10755.5, 0.0482100
10777.9, 0.0475000
10800.3, 0.0469990
10822.9, 0.0463730
10845.5, 0.0458720
10868.2, 0.0452880
10891.1, 0.0448290
10914.0, 0.0444530
10937.0, 0.0443280
10960.2, 0.0442860
10983.4, 0.0444110
11006.7, 0.0444950
11030.1, 0.0447040
11053.6, 0.0449540
11077.3, 0.0455380
11101.0, 0.0461640
11124.8, 0.0470830
11148.7, 0.0475840
11172.7, 0.0479590
11196.9, 0.0486270
11221.1, 0.0493780
11245.4, 0.0496710
11269.9, 0.0496290
11294.4, 0.0495870
11319.1, 0.0497120
11343.9, 0.0496710
11368.8, 0.0499630
11393.7, 0.0502130
11418.8, 0.0501710
11444.0, 0.0500880
11469.4, 0.0499630
11494.8, 0.0498380
11520.3, 0.0496710
11546.0, 0.0492530
11571.8, 0.0489190
11597.7, 0.0485440
11623.7, 0.0480430
11649.8, 0.0473750
11676.0, 0.0470410
11702.4, 0.0467910
11728.9, 0.0465400
11755.5, 0.0462900
11782.2, 0.0459970
11809.0, 0.0457050
11836.0, 0.0459140
11863.0, 0.0458310
11890.3, 0.0456220
11917.6, 0.0453710
11945.0, 0.0452460
11972.6, 0.0445780
12000.4, 0.0441610
12028.2, 0.0439100
12056.2, 0.0435350
12084.3, 0.0427420
12112.5, 0.0420320
12140.9, 0.0414900
12169.4, 0.0407380
12198.0, 0.0399030
12226.8, 0.0394030
12255.7, 0.0387350
12284.7, 0.0381500
12313.9, 0.0376910
12343.2, 0.0373160
12372.7, 0.0368150
12402.3, 0.0363560
12432.0, 0.0356460
12461.9, 0.0347690
12491.9, 0.0338930
12522.1, 0.0333500
12552.4, 0.0328080
12582.9, 0.0326410
12613.5, 0.0319310
12644.3, 0.0311800
12675.2, 0.0306370
12706.3, 0.0301360
12737.5, 0.0298020
12768.9, 0.0298440
12800.4, 0.0295520
12832.1, 0.0293430
12863.9, 0.0291760
12895.9, 0.0290930
12928.1, 0.0285500
12960.4, 0.0280910
12992.9, 0.0276740
13025.5, 0.0269640
13058.3, 0.0260870
13091.3, 0.0256700
13124.4, 0.0248770
13157.8, 0.0237080
13191.2, 0.0226230
13224.9, 0.0215380
13258.7, 0.0203270
13292.7, 0.0196600
13326.9, 0.0188250
13361.2, 0.0177810
13395.7, 0.0169880
13430.4, 0.0163200
13465.3, 0.0153190
13500.4, 0.0144420
13535.7, 0.0136070
13571.1, 0.0129390
13606.7, 0.0121050
13642.5, 0.0113950
13678.5, 0.0102260
13714.7, 0.00960000
13751.1, 0.00930800
13787.6, 0.00893200
13824.4, 0.00843100
13861.4, 0.00818100
13898.5, 0.00734600
13935.9, 0.00667800
13973.5, 0.00609400
14011.2, 0.00592700
14049.2, 0.00551000
14087.4, 0.00513400
14125.8, 0.00492500
14164.3, 0.00492500
14203.2, 0.00434100
14242.2, 0.00409100
14281.4, 0.00409100
14320.9, 0.00404900
14360.5, 0.00400700
14400.4, 0.00434100
14440.5, 0.00446600
14480.9, 0.00500900
14521.4, 0.00571800
14562.2, 0.00647000
14603.3, 0.00751300
14644.5, 0.00893200
14686.0, 0.0110610
14727.7, 0.0138990
14769.7, 0.0164040
14811.9, 0.0203270
14854.3, 0.0252110
14897.0, 0.0309710
14939.9, 0.0375660
14983.1, 0.0452880
15026.5, 0.0531350
15070.2, 0.0623180
15114.2, 0.0728780
15158.3, 0.0843570
15202.8, 0.0959190
15247.5, 0.107940
15292.5, 0.119293
15337.7, 0.129561
15383.2, 0.138702
15429.0, 0.146466
15475.1, 0.152727
15521.4, 0.158236
15568.0, 0.162619
15614.9, 0.166710
15662.1, 0.170424
15709.6, 0.174014
15757.3, 0.176978
15805.4, 0.179440
15853.7, 0.182153
15902.3, 0.185576
15951.2, 0.189374
16000.5, 0.193882
16050.0, 0.197764
16099.8, 0.201521
16150.0, 0.205444
16200.5, 0.209284
16251.3, 0.212540
16302.4, 0.216297
16353.8, 0.219678
16405.5, 0.222975
16457.6, 0.225605
16510.0, 0.228610
16562.8, 0.231824
16615.9, 0.235038
16669.3, 0.238377
16723.1, 0.241508
16777.2, 0.243887
16831.7, 0.246391
16886.5, 0.248645
16941.7, 0.250565
16997.2, 0.252652
17053.1, 0.256367
17109.4, 0.260040
17166.1, 0.263797
17223.1, 0.268096
17280.5, 0.272270
17338.3, 0.275776
17396.5, 0.279032
17455.1, 0.281787
17514.0, 0.284291
17573.4, 0.286420
17633.2, 0.288465
17693.4, 0.290176
17754.0, 0.291930
17815.0, 0.294100
17876.4, 0.296354
17938.3, 0.298357
18000.5, 0.299651
18063.3, 0.300737
18126.4, 0.301905
18190.0, 0.302782
18254.1, 0.302406
18318.6, 0.300862
18383.5, 0.299192
18449.0, 0.298399
18514.9, 0.296604
18581.2, 0.292180
18648.0, 0.288048
18715.4, 0.281787
18783.2, 0.274315
18851.5, 0.267094
18920.3, 0.258412
18989.6, 0.248144
19059.4, 0.236207
19129.7, 0.222516
19200.6, 0.208950
19272.0, 0.194091
19343.9, 0.178856
19416.3, 0.163287
19489.3, 0.147426
19562.8, 0.132399
19637.0, 0.119543
19711.6, 0.108065
19786.8, 0.0981720
19862.6, 0.0904090
19939.0, 0.0842730
20016.0, 0.0812260
20093.6, 0.0832300
20171.8, 0.0912850
20250.6, 0.105811
20330.0, 0.125095
20410.0, 0.145213
20490.7, 0.163704
20572.0, 0.180317
20654.0, 0.194842
20736.6, 0.205945
20819.9, 0.215295
20903.8, 0.224436
20988.5, 0.229904
21073.8, 0.233994
21159.8, 0.237584
21246.5, 0.240548
21334.0, 0.240172
21422.1, 0.239212
21511.0, 0.239128
21600.7, 0.238544
21691.0, 0.235831
21782.1, 0.233994
21874.0, 0.233201
21966.7, 0.228735
22060.2, 0.223810
22154.5, 0.219886
22249.6, 0.216130
22345.5, 0.213834
22442.2, 0.211163
22539.8, 0.208199
22638.2, 0.204525
22737.5, 0.199735
22837.7, 0.194549
22938.7, 0.187629
23040.7, 0.178533
23143.5, 0.168125
23247.3, 0.157468
23352.1, 0.147239
23457.7, 0.137514
23564.4, 0.129275
23672.0, 0.121847
23780.5, 0.115920
23890.1, 0.110922
24000.7, 0.105688
24112.3, 0.101029
24225.0, 0.0981120
24338.7, 0.0970950
24453.5, 0.0982630
24569.4, 0.102157
24686.4, 0.108184
24804.5, 0.115471
24923.8, 0.122304
25044.2, 0.127925
25165.8, 0.132458
25288.6, 0.134899
25412.5, 0.134838
25537.7, 0.133255
25664.1, 0.130451
25791.8, 0.127487
25920.8, 0.123123
26051.1, 0.117988
26182.6, 0.112493
26315.5, 0.106761
26449.8, 0.100010
26585.4, 0.0938820
26722.5, 0.0866550
26860.9, 0.0802720
27000.8, 0.0806480
27142.1, 0.0903120
27285.0, 0.108885
27429.4, 0.134544
27575.3, 0.161950
27722.7, 0.187395
27871.8, 0.210957
28022.4, 0.234276
28174.7, 0.257261
28328.7, 0.280826
28484.4, 0.300998
28641.7, 0.318830
28800.9, 0.335054
28961.8, 0.352790
29124.5, 0.369777
29289.0, 0.385728
29455.4, 0.399822
29623.8, 0.412868
29794.0, 0.426528
29966.3, 0.436329
30140.5, 0.443120
30316.7, 0.453529
30495.1, 0.465427
30675.5, 0.471394
30858.1, 0.477921
31042.8, 0.482625
31229.8, 0.484631
31419.1, 0.488286
31610.7, 0.491776
31804.6, 0.495053
32000.9, 0.494914
32199.7, 0.495893
32400.9, 0.494776
32604.8, 0.493637
32811.1, 0.493135
33020.1, 0.491927
33231.8, 0.476042
33446.2, 0.458187
33663.4, 0.437142
33883.4, 0.412950
34106.3, 0.386138
34332.1, 0.363087
34561.0, 0.338995
34792.9, 0.313982
35028.0, 0.297028
35266.3, 0.286884
35507.8, 0.277432
35752.7, 0.266026
36001.0, 0.254279
36252.8, 0.242891
36508.1, 0.234423
36767.0, 0.228062
37029.7, 0.224032
37296.1, 0.220101
37566.3, 0.215052
37840.5, 0.208622
38118.8, 0.203059
38401.2, 0.199813
38687.8, 0.197705
38978.6, 0.195227
39273.9, 0.195546
39573.7, 0.191229
39878.1, 0.185306
40187.3, 0.184225
40501.2, 0.183524
40820.0, 0.179081
41144.0, 0.172634
41473.2, 0.166468
41807.6, 0.162203
42147.5, 0.160599
42493.0, 0.166059
42844.2, 0.177712
43201.2, 0.185248
43564.3, 0.185951
43933.5, 0.186345
44309.0, 0.180754
44691.0, 0.176557
45079.6, 0.174617
45475.0, 0.171867
45877.5, 0.169255
46287.1, 0.169224
46704.2, 0.171215
47128.7, 0.170147
47561.1, 0.168598
48001.5, 0.168911
48450.1, 0.165193
48907.2, 0.164276
49373.0, 0.165219
49847.7, 0.164856
50331.5, 0.165264
50825.0, 0.165330
51328.2, 0.164644
51841.5, 0.162842
52365.1, 0.161230
52899.4, 0.161467
53444.8, 0.160007
54001.5, 0.157665
54570.1, 0.158017
55150.6, 0.160046
55743.6, 0.161078
56349.5, 0.162626
56968.7, 0.162926
57601.7, 0.163967
58248.9, 0.165917
58910.9, 0.166766
59588.1, 0.165494
60281.0, 0.166939
60990.2, 0.167916
61716.3, 0.166260
62459.8, 0.164508
63221.6, 0.168543
64002.1, 0.169902
64802.1, 0.172359
65622.1, 0.178248
66463.4, 0.182943
67326.6, 0.175185
68212.4, 0.170198
69121.9, 0.168888
70056.0, 0.171073
71015.7, 0.175940
72002.0, 0.175366
73016.3, 0.176502
74059.4, 0.200030
75132.7, 0.210214
76237.6, 0.192574
77375.5, 0.190337
78547.9, 0.191341
79756.3, 0.194501
81002.5, 0.196179
82288.5, 0.200395
83615.7, 0.202863
84986.5, 0.204384
86402.9, 0.205450
87867.4, 0.207988
89382.4, 0.213043
90950.5, 0.224864
92574.6, 0.236720
94257.2, 0.249052
96002.7, 0.251400
97814.1, 0.240692
99695.1, 0.237225
101650.0, 0.230195
103683.0, 0.232334
105799.0, 0.264439
108003.0, 0.269883
110301.0, 0.278714
112699.0, 0.305821
115204.0, 0.297242
117822.0, 0.285530
120562.0, 0.303637
123433.0, 0.321976
126443.0, 0.330664
129604.0, 0.318398
132926.0, 0.313099
136424.0, 0.325024
140111.0, 0.333665
144003.0, 0.356024
148118.0, 0.353572
152474.0, 0.343946
157095.0, 0.337363
162004.0, 0.347767
167231.0, 0.354913
172805.0, 0.345239
178764.0, 0.414715
185148.0, 0.558048
192005.0, 0.525872
199390.0, 0.460379
207366.0, 0.460013
216006.0, 0.460013
