Database of Origin, USGS Spectral Database
Sample Description, See USGS database for additional info
Date Added,2016-08-10 05:03:10.582408

Data ID,USGS_lep06          
Sample ID, lepidolite_nmnh105538.12723
Mineral Name, lepidolite
Material Class,Phyllosilicate

Wavelength
1378.03, 0.295966
1378.4, 0.295042
1378.76, 0.294480
1379.13, 0.294280
1379.5, 0.293758
1379.87, 0.292473
1380.23, 0.290707
1380.6, 0.289061
1380.97, 0.288339
1381.34, 0.287937
1381.7, 0.287295
1382.07, 0.285368
1382.44, 0.283201
1382.81, 0.282679
1383.18, 0.282518
1383.55, 0.281153
1383.92, 0.280230
1384.29, 0.279708
1384.66, 0.278504
1385.03, 0.277420
1385.4, 0.276898
1385.77, 0.276376
1386.14, 0.275855
1386.51, 0.275453
1386.88, 0.274851
1387.25, 0.274249
1387.62, 0.272964
1387.99, 0.272402
1388.36, 0.272202
1388.74, 0.272081
1389.11, 0.271158
1389.48, 0.269833
1389.85, 0.268790
1390.23, 0.268629
1390.6, 0.267585
1390.97, 0.266261
1391.35, 0.265418
1391.72, 0.264254
1392.09, 0.262688
1392.47, 0.261845
1392.84, 0.261323
1393.21, 0.259958
1393.59, 0.258393
1393.96, 0.256747
1394.34, 0.254820
1394.71, 0.253054
1395.09, 0.251408
1395.46, 0.249722
1395.84, 0.248438
1396.22, 0.246993
1396.59, 0.245226
1396.97, 0.243259
1397.35, 0.241694
1397.72, 0.239847
1398.1, 0.238442
1398.48, 0.236997
1398.85, 0.235432
1399.23, 0.233706
1399.61, 0.232100
1399.99, 0.230976
1400.37, 0.230093
1400.74, 0.229330
1401.12, 0.228246
1401.5, 0.227163
1401.88, 0.226520
1402.26, 0.225677
1402.64, 0.224875
1403.02, 0.223791
1403.4, 0.223349
1403.78, 0.223229
1404.16, 0.222747
1404.54, 0.221944
1404.92, 0.221382
1405.3, 0.220619
1405.68, 0.219776
1406.06, 0.219174
1406.44, 0.218452
1406.83, 0.217729
1407.21, 0.216525
1407.59, 0.215642
1407.97, 0.215000
1408.35, 0.214518
1408.74, 0.213675
1409.12, 0.212752
1409.5, 0.212310
1409.89, 0.212069
1410.27, 0.211347
1410.65, 0.211146
1411.04, 0.210905
1411.42, 0.210785
1411.81, 0.210745
1412.19, 0.211427
1412.58, 0.212029
1412.96, 0.212872
1413.35, 0.213635
1413.73, 0.214759
1414.12, 0.216124
1414.5, 0.217649
1414.89, 0.219174
1415.28, 0.220900
1415.66, 0.222546
1416.05, 0.224634
1416.44, 0.226480
1416.82, 0.227965
1417.21, 0.229732
1417.6, 0.231699
1417.98, 0.233585
1418.37, 0.235552
1418.76, 0.237439
1419.15, 0.239165
1419.54, 0.241052
1419.93, 0.242858
1420.32, 0.244383
1420.71, 0.245668
1421.09, 0.247073
1421.48, 0.248478
1421.88, 0.249522
1422.27, 0.250766
1422.66, 0.252051
1423.05, 0.252733
1423.44, 0.253255
1423.83, 0.253977
1424.22, 0.254700
1424.61, 0.255342
1425.0, 0.255984
1425.39, 0.256707
1425.78, 0.257510
1426.18, 0.258072
1426.57, 0.258393
1426.96, 0.258313
1427.36, 0.258634
1427.75, 0.259276
1428.14, 0.259758
1428.54, 0.259918
1428.93, 0.259958
1429.32, 0.260159
1429.72, 0.260641
1430.11, 0.261002
1430.51, 0.261243
1430.9, 0.261203
1431.3, 0.261404
1431.69, 0.261404
1432.09, 0.261564
1432.48, 0.261925
1432.88, 0.262046
1433.28, 0.261925
1433.67, 0.262407
1434.07, 0.263049
1434.46, 0.263090
1434.86, 0.262849
1435.26, 0.262407
1435.66, 0.262527
1436.05, 0.262688
1436.45, 0.262929
1436.85, 0.263130
1437.25, 0.263371
1437.65, 0.263250
1438.05, 0.263371
1438.44, 0.263812
1438.84, 0.263932
1439.24, 0.263692
1439.64, 0.263772
1440.04, 0.263973
1440.44, 0.264013
1440.84, 0.264053
1441.24, 0.264133
1441.65, 0.264093
1442.05, 0.264013
1442.45, 0.264173
1442.85, 0.264334
1443.25, 0.264334
1443.65, 0.264374
1444.05, 0.264213
1444.46, 0.263852
1444.86, 0.264013
1445.26, 0.263932
1445.67, 0.263852
1446.07, 0.264053
1446.47, 0.264013
1446.88, 0.263531
1447.28, 0.263170
1447.68, 0.263090
1448.09, 0.263130
1448.49, 0.263411
1448.9, 0.263732
1449.3, 0.263732
1449.71, 0.263210
1450.11, 0.262929
1450.52, 0.263250
1450.93, 0.263170
1451.33, 0.262969
1451.74, 0.262889
1452.14, 0.262889
1452.55, 0.262809
1452.96, 0.262969
1453.36, 0.262849
1453.77, 0.262889
1454.18, 0.262849
1454.59, 0.262527
1455.0, 0.262487
1455.41, 0.262688
1455.81, 0.262768
1456.22, 0.262407
1456.63, 0.262166
1457.04, 0.262006
1457.45, 0.262006
1457.86, 0.262287
1458.27, 0.262126
1458.68, 0.261725
1459.09, 0.261725
1459.5, 0.261725
1459.91, 0.261564
1460.32, 0.261765
1460.74, 0.261725
1461.15, 0.261524
1461.56, 0.261484
1461.97, 0.261444
1462.39, 0.261323
1462.8, 0.261082
1463.21, 0.260922
1463.62, 0.261082
1464.04, 0.261163
1464.45, 0.261082
1464.86, 0.261163
1465.28, 0.261082
1465.69, 0.260801
1466.11, 0.260561
1466.52, 0.260561
1466.94, 0.260440
1467.35, 0.260280
1467.77, 0.260400
1468.18, 0.260239
1468.6, 0.259999
1469.02, 0.260239
1469.43, 0.260280
1469.85, 0.260159
1470.27, 0.260159
1470.68, 0.260280
1471.1, 0.260079
1471.52, 0.259878
1471.94, 0.259999
1472.35, 0.259918
1472.77, 0.259758
1473.19, 0.259517
1473.61, 0.259477
1474.03, 0.259557
1474.45, 0.259356
1474.87, 0.259236
1475.29, 0.259196
1475.71, 0.259356
1476.13, 0.259396
1476.55, 0.259437
1476.97, 0.259396
1477.39, 0.259115
1477.81, 0.259156
1478.23, 0.259196
1478.65, 0.259236
1479.07, 0.259236
1479.5, 0.259196
1479.92, 0.259035
1480.34, 0.258794
1480.76, 0.259276
1481.19, 0.259557
1481.61, 0.259437
1482.03, 0.259075
1482.46, 0.258915
1482.88, 0.258955
1483.31, 0.258955
1483.73, 0.259035
1484.16, 0.258995
1484.58, 0.259156
1485.01, 0.259075
1485.43, 0.258875
1485.86, 0.258955
1486.28, 0.258875
1486.71, 0.258553
1487.14, 0.258594
1487.56, 0.258754
1487.99, 0.258714
1488.42, 0.258714
1488.84, 0.258674
1489.27, 0.258875
1489.7, 0.258875
1490.13, 0.258754
1490.56, 0.258594
1490.98, 0.258594
1491.41, 0.258553
1491.84, 0.258513
1492.27, 0.258473
1492.7, 0.258794
1493.13, 0.258995
1493.56, 0.258794
1493.99, 0.258594
1494.42, 0.258834
1494.85, 0.259075
1495.29, 0.258915
1495.72, 0.258594
1496.15, 0.258634
1496.58, 0.258594
1497.01, 0.258393
1497.44, 0.258313
1497.88, 0.258433
1498.31, 0.258594
1498.74, 0.258754
1499.18, 0.258674
1499.61, 0.258674
1500.04, 0.258794
1500.48, 0.258834
1500.91, 0.258794
1501.35, 0.258754
1501.78, 0.258473
1502.22, 0.258232
1502.65, 0.258353
1503.09, 0.258794
1503.53, 0.258955
1503.96, 0.258915
1504.4, 0.258794
1504.83, 0.258955
1505.27, 0.258955
1505.71, 0.258754
1506.15, 0.258714
1506.58, 0.258955
1507.02, 0.258995
1507.46, 0.258955
1507.9, 0.259075
1508.34, 0.258995
1508.78, 0.258995
1509.21, 0.259316
1509.66, 0.259356
1510.09, 0.259115
1510.53, 0.259236
1510.97, 0.259276
1511.42, 0.259316
1511.86, 0.259316
1512.3, 0.259316
1512.74, 0.259236
1513.18, 0.259075
1513.62, 0.259276
1514.06, 0.259316
1514.51, 0.259396
1514.95, 0.259356
1515.39, 0.259356
1515.83, 0.259276
1516.28, 0.259276
1516.72, 0.259276
1517.16, 0.259196
1517.61, 0.259356
1518.05, 0.259597
1518.5, 0.259677
1518.94, 0.259677
1519.39, 0.259677
1519.83, 0.259477
1520.28, 0.259316
1520.73, 0.259236
1521.17, 0.259396
1521.62, 0.259557
1522.07, 0.259758
1522.51, 0.259677
1522.96, 0.259156
1523.41, 0.259115
1523.85, 0.259356
1524.3, 0.259356
1524.75, 0.259437
1525.2, 0.259396
1525.65, 0.259156
1526.1, 0.259477
1526.55, 0.259798
1527.0, 0.259637
1527.45, 0.259477
1527.9, 0.259557
1528.35, 0.259718
1528.8, 0.259437
1529.25, 0.259356
1529.7, 0.259396
1530.15, 0.259396
1530.6, 0.259477
1531.05, 0.259517
1531.51, 0.259758
1531.96, 0.259718
1532.41, 0.259477
1532.87, 0.259477
1533.32, 0.259677
1533.77, 0.259878
1534.23, 0.260079
1534.68, 0.259958
1535.14, 0.259878
1535.59, 0.259798
1536.05, 0.259718
1536.5, 0.259758
1536.96, 0.259758
1537.41, 0.259838
1537.87, 0.259677
1538.32, 0.259637
1538.78, 0.259798
1539.24, 0.259999
1539.7, 0.260199
1540.15, 0.260039
1540.61, 0.259958
1541.07, 0.259958
1541.53, 0.259958
1541.98, 0.260039
1542.44, 0.260039
1542.9, 0.260199
1543.36, 0.260119
1543.82, 0.259958
1544.28, 0.260039
1544.74, 0.260039
1545.2, 0.259958
1545.66, 0.260239
1546.12, 0.260360
1546.59, 0.260159
1547.05, 0.260280
1547.51, 0.260601
1547.97, 0.260641
1548.43, 0.260280
1548.9, 0.260239
1549.36, 0.260400
1549.82, 0.260520
1550.29, 0.260400
1550.75, 0.260119
1551.21, 0.260199
1551.68, 0.260601
1552.14, 0.260601
1552.61, 0.260480
1553.07, 0.260561
1553.54, 0.260400
1554.0, 0.260400
1554.47, 0.260721
1554.93, 0.260922
1555.4, 0.260801
1555.87, 0.260842
1556.34, 0.260721
1556.8, 0.260721
1557.27, 0.260962
1557.74, 0.261203
1558.21, 0.261203
1558.68, 0.261203
1559.14, 0.261203
1559.61, 0.261163
1560.08, 0.261163
1560.55, 0.261203
1561.02, 0.261283
1561.49, 0.261283
1561.96, 0.261444
1562.43, 0.261444
1562.9, 0.261484
1563.38, 0.261524
1563.85, 0.261725
1564.32, 0.261925
1564.79, 0.262046
1565.26, 0.261725
1565.74, 0.261444
1566.21, 0.261484
1566.68, 0.261644
1567.16, 0.261765
1567.63, 0.261925
1568.1, 0.261966
1568.58, 0.262006
1569.05, 0.261925
1569.53, 0.261885
1570.0, 0.262006
1570.48, 0.262166
1570.96, 0.262206
1571.43, 0.262247
1571.91, 0.262407
1572.39, 0.262367
1572.86, 0.262327
1573.34, 0.262327
1573.82, 0.262287
1574.3, 0.262487
1574.77, 0.262206
1575.25, 0.262166
1575.73, 0.262367
1576.21, 0.262568
1576.69, 0.262728
1577.17, 0.262929
1577.65, 0.262969
1578.13, 0.262969
1578.61, 0.263009
1579.09, 0.263090
1579.57, 0.263049
1580.05, 0.263130
1580.54, 0.263009
1581.02, 0.262889
1581.5, 0.263170
1581.98, 0.263330
1582.47, 0.263371
1582.95, 0.263290
1583.43, 0.263250
1583.92, 0.263411
1584.4, 0.263371
1584.88, 0.263491
1585.37, 0.263692
1585.85, 0.263571
1586.34, 0.263290
1586.82, 0.263371
1587.31, 0.263651
1587.8, 0.263772
1588.28, 0.263571
1588.77, 0.263451
1589.26, 0.263651
1589.74, 0.263651
1590.23, 0.263772
1590.72, 0.263852
1591.21, 0.263932
1591.7, 0.264093
1592.19, 0.264173
1592.67, 0.263932
1593.16, 0.264013
1593.65, 0.264173
1594.14, 0.264173
1594.63, 0.264133
1595.12, 0.264294
1595.61, 0.264173
1596.11, 0.264294
1596.6, 0.264254
1597.09, 0.264374
1597.58, 0.264494
1598.08, 0.264535
1598.57, 0.264294
1599.06, 0.264494
1599.55, 0.264695
1600.05, 0.264735
1600.54, 0.264735
1601.04, 0.264816
1601.53, 0.264775
1602.03, 0.264936
1602.52, 0.264896
1603.02, 0.264655
1603.51, 0.264735
1604.01, 0.264896
1604.5, 0.264896
1605.0, 0.265137
1605.5, 0.265177
1606.0, 0.265217
1606.49, 0.265177
1606.99, 0.265177
1607.49, 0.265297
1607.99, 0.265217
1608.49, 0.265458
1608.99, 0.265618
1609.49, 0.265578
1609.99, 0.265458
1610.49, 0.265538
1610.99, 0.265578
1611.49, 0.265618
1611.99, 0.265739
1612.49, 0.265940
1612.99, 0.265980
1613.49, 0.265980
1614.0, 0.266100
1614.5, 0.266100
1615.0, 0.266221
1615.51, 0.266301
1616.01, 0.266020
1616.51, 0.265940
1617.02, 0.266180
1617.52, 0.266261
1618.03, 0.266100
1618.53, 0.266140
1619.04, 0.266461
1619.54, 0.266742
1620.05, 0.266783
1620.55, 0.266662
1621.06, 0.266662
1621.57, 0.266823
1622.08, 0.266742
1622.58, 0.266783
1623.09, 0.266903
1623.6, 0.267064
1624.11, 0.266983
1624.62, 0.267023
1625.13, 0.267184
1625.64, 0.267144
1626.15, 0.267104
1626.66, 0.267184
1627.17, 0.267304
1627.68, 0.267465
1628.19, 0.267626
1628.7, 0.267585
1629.21, 0.267505
1629.72, 0.267505
1630.24, 0.267666
1630.75, 0.267746
1631.26, 0.267746
1631.78, 0.267626
1632.29, 0.267706
1632.8, 0.267907
1633.32, 0.267987
1633.83, 0.268067
1634.35, 0.268027
1634.86, 0.267907
1635.38, 0.267907
1635.9, 0.268187
1636.41, 0.268308
1636.93, 0.268509
1637.45, 0.268589
1637.96, 0.268669
1638.48, 0.268629
1639.0, 0.268629
1639.52, 0.268629
1640.04, 0.268750
1640.56, 0.268830
1641.08, 0.269071
1641.59, 0.269111
1642.11, 0.269191
1642.63, 0.269071
1643.16, 0.268990
1643.68, 0.268950
1644.2, 0.269031
1644.72, 0.269071
1645.24, 0.269111
1645.76, 0.269311
1646.29, 0.269271
1646.81, 0.269392
1647.33, 0.269552
1647.86, 0.269432
1648.38, 0.269432
1648.9, 0.269713
1649.43, 0.269833
1649.95, 0.269713
1650.48, 0.269592
1651.0, 0.269512
1651.53, 0.269592
1652.06, 0.269633
1652.58, 0.269713
1653.11, 0.269633
1653.64, 0.269592
1654.17, 0.269713
1654.69, 0.269673
1655.22, 0.269793
1655.75, 0.270154
1656.28, 0.270275
1656.81, 0.270275
1657.34, 0.270154
1657.87, 0.270235
1658.4, 0.270315
1658.93, 0.270476
1659.46, 0.270476
1659.99, 0.270435
1660.52, 0.270275
1661.05, 0.270476
1661.59, 0.270676
1662.12, 0.270877
1662.65, 0.270877
1663.19, 0.270797
1663.72, 0.270957
1664.26, 0.270957
1664.79, 0.270957
1665.32, 0.270917
1665.86, 0.270837
1666.39, 0.270877
1666.93, 0.271038
1667.47, 0.271118
1668.0, 0.271278
1668.54, 0.271399
1669.08, 0.271319
1669.61, 0.271399
1670.15, 0.271519
1670.69, 0.271600
1671.23, 0.271519
1671.77, 0.271479
1672.31, 0.271439
1672.85, 0.271479
1673.39, 0.271519
1673.93, 0.271640
1674.47, 0.271881
1675.01, 0.271961
1675.55, 0.271961
1676.09, 0.271961
1676.64, 0.271921
1677.18, 0.271840
1677.72, 0.271800
1678.26, 0.271961
1678.81, 0.271961
1679.35, 0.271921
1679.89, 0.272081
1680.44, 0.272242
1680.98, 0.272282
1681.53, 0.272121
1682.07, 0.272202
1682.62, 0.272282
1683.17, 0.272402
1683.71, 0.272523
1684.26, 0.272643
1684.81, 0.272643
1685.36, 0.272443
1685.9, 0.272483
1686.45, 0.272603
1687.0, 0.272443
1687.55, 0.272402
1688.1, 0.272523
1688.65, 0.272724
1689.2, 0.272764
1689.75, 0.272563
1690.3, 0.272523
1690.85, 0.272402
1691.41, 0.272643
1691.96, 0.272724
1692.51, 0.272724
1693.06, 0.272643
1693.61, 0.272603
1694.17, 0.272683
1694.72, 0.272964
1695.28, 0.273045
1695.83, 0.272964
1696.39, 0.272924
1696.94, 0.273005
1697.5, 0.273045
1698.05, 0.273326
1698.61, 0.273446
1699.17, 0.273245
1699.72, 0.273005
1700.28, 0.273045
1700.84, 0.273085
1701.4, 0.273125
1701.95, 0.273165
1702.51, 0.273045
1703.07, 0.273005
1703.63, 0.273045
1704.19, 0.273085
1704.75, 0.273125
1705.31, 0.273205
1705.88, 0.273286
1706.44, 0.273286
1707.0, 0.273165
1707.56, 0.273326
1708.12, 0.273406
1708.69, 0.273406
1709.25, 0.273366
1709.81, 0.273446
1710.38, 0.273446
1710.94, 0.273406
1711.51, 0.273526
1712.07, 0.273526
1712.64, 0.273607
1713.2, 0.273607
1713.77, 0.273647
1714.34, 0.273807
1714.9, 0.273968
1715.47, 0.273968
1716.04, 0.273687
1716.61, 0.273526
1717.18, 0.273607
1717.74, 0.273767
1718.31, 0.273727
1718.88, 0.273848
1719.45, 0.274128
1720.02, 0.274048
1720.59, 0.273888
1721.17, 0.273848
1721.74, 0.273848
1722.31, 0.273767
1722.88, 0.273888
1723.45, 0.274048
1724.03, 0.274008
1724.6, 0.274128
1725.18, 0.274169
1725.75, 0.274289
1726.33, 0.274410
1726.9, 0.274410
1727.48, 0.274329
1728.05, 0.274249
1728.63, 0.274169
1729.2, 0.274249
1729.78, 0.274329
1730.36, 0.274249
1730.94, 0.274329
1731.51, 0.274410
1732.09, 0.274490
1732.67, 0.274410
1733.25, 0.274410
1733.83, 0.274410
1734.41, 0.274369
1734.99, 0.274530
1735.57, 0.274530
1736.15, 0.274530
1736.73, 0.274691
1737.32, 0.274610
1737.9, 0.274530
1738.48, 0.274570
1739.07, 0.274731
1739.65, 0.274731
1740.23, 0.274771
1740.82, 0.274931
1741.4, 0.274931
1741.99, 0.274731
1742.57, 0.274811
1743.16, 0.274851
1743.74, 0.275092
1744.33, 0.274891
1744.92, 0.274771
1745.51, 0.274851
1746.09, 0.274891
1746.68, 0.274891
1747.27, 0.274851
1747.86, 0.274811
1748.45, 0.274811
1749.04, 0.274891
1749.63, 0.274811
1750.22, 0.274971
1750.81, 0.274971
1751.4, 0.274971
1751.99, 0.275012
1752.59, 0.274931
1753.18, 0.274891
1753.77, 0.274931
1754.37, 0.274891
1754.96, 0.274891
1755.56, 0.275052
1756.15, 0.274931
1756.74, 0.274731
1757.34, 0.274771
1757.94, 0.274811
1758.53, 0.274771
1759.13, 0.274891
1759.73, 0.274931
1760.32, 0.274851
1760.92, 0.274811
1761.52, 0.274891
1762.12, 0.274811
1762.72, 0.274931
1763.32, 0.275052
1763.92, 0.275012
1764.52, 0.274811
1765.12, 0.274691
1765.72, 0.274731
1766.32, 0.274771
1766.92, 0.274811
1767.53, 0.274851
1768.13, 0.274891
1768.73, 0.275012
1769.34, 0.274851
1769.94, 0.274691
1770.55, 0.274650
1771.15, 0.274811
1771.76, 0.274851
1772.36, 0.274731
1772.97, 0.274771
1773.57, 0.274731
1774.18, 0.274731
1774.79, 0.274731
1775.4, 0.274811
1776.0, 0.274851
1776.61, 0.274891
1777.22, 0.274811
1777.83, 0.274570
1778.44, 0.274450
1779.05, 0.274450
1779.66, 0.274530
1780.27, 0.274490
1780.88, 0.274650
1781.5, 0.274691
1782.11, 0.274731
1782.72, 0.274771
1783.33, 0.274691
1783.95, 0.274771
1784.56, 0.274811
1785.18, 0.274811
1785.79, 0.274811
1786.41, 0.274731
1787.02, 0.274691
1787.64, 0.274731
1788.26, 0.274650
1788.87, 0.274811
1789.49, 0.274931
1790.11, 0.274851
1790.73, 0.274771
1791.35, 0.274771
1791.96, 0.274650
1792.58, 0.274731
1793.21, 0.274971
1793.83, 0.274851
1794.45, 0.274771
1795.07, 0.274731
1795.69, 0.274851
1796.31, 0.274931
1796.93, 0.274811
1797.56, 0.274851
1798.18, 0.274891
1798.8, 0.274891
1799.43, 0.275092
1800.05, 0.275052
1800.68, 0.274811
1801.3, 0.274851
1801.93, 0.274971
1802.56, 0.274971
1803.18, 0.274931
1803.81, 0.274851
1804.44, 0.274811
1805.07, 0.274891
1805.7, 0.274931
1806.33, 0.275052
1806.95, 0.275052
1807.58, 0.275172
1808.22, 0.275212
1808.85, 0.275012
1809.48, 0.275012
1810.11, 0.275052
1810.74, 0.275052
1811.38, 0.274931
1812.01, 0.274891
1812.64, 0.274971
1813.28, 0.275172
1813.91, 0.275172
1814.55, 0.275012
1815.18, 0.274851
1815.82, 0.274851
1816.45, 0.274971
1817.09, 0.275052
1817.73, 0.274851
1818.36, 0.274731
1819.0, 0.274771
1819.64, 0.274650
1820.28, 0.274490
1820.92, 0.274570
1821.56, 0.274530
1822.2, 0.274650
1822.84, 0.274731
1823.48, 0.274771
1824.12, 0.274731
1824.76, 0.274691
1825.41, 0.274329
1826.05, 0.273928
1826.69, 0.274169
1827.34, 0.274329
1827.98, 0.274289
1828.63, 0.274209
1829.27, 0.274169
1829.92, 0.274169
1830.56, 0.273928
1831.21, 0.273888
1831.86, 0.273968
1832.5, 0.273928
1833.15, 0.274048
1833.8, 0.274128
1834.45, 0.273888
1835.1, 0.273767
1835.75, 0.273446
1836.4, 0.273366
1837.05, 0.273446
1837.7, 0.273607
1838.35, 0.273888
1839.01, 0.273767
1839.66, 0.273526
1840.31, 0.273567
1840.96, 0.273607
1841.62, 0.273245
1842.27, 0.273245
1842.93, 0.273647
1843.58, 0.273888
1844.24, 0.273928
1844.9, 0.273888
1845.55, 0.273888
1846.21, 0.273406
1846.87, 0.272924
1847.53, 0.273245
1848.18, 0.273406
1848.84, 0.273567
1849.5, 0.273526
1850.16, 0.273486
1850.82, 0.273567
1851.48, 0.273607
1852.14, 0.273607
1852.81, 0.273245
1853.47, 0.272844
1854.13, 0.273245
1854.8, 0.273567
1855.46, 0.273366
1856.12, 0.272844
1856.79, 0.272724
1857.45, 0.273125
1858.12, 0.273286
1858.79, 0.273005
1859.45, 0.272523
1860.12, 0.272764
1860.79, 0.273005
1861.46, 0.273165
1862.12, 0.273085
1862.79, 0.272924
1863.46, 0.272844
1864.13, 0.272804
1864.8, 0.272724
1865.48, 0.272764
1866.15, 0.272603
1866.82, 0.272162
1867.49, 0.271720
1868.16, 0.271961
1868.84, 0.272121
1869.51, 0.272121
1870.19, 0.271519
1870.86, 0.271158
1871.54, 0.271720
1872.21, 0.271439
1872.89, 0.270957
1873.56, 0.271439
1874.24, 0.271640
1874.92, 0.271359
1875.6, 0.271359
1876.28, 0.271238
1876.96, 0.271038
1877.64, 0.271198
1878.32, 0.271319
1879.0, 0.271319
1879.68, 0.271158
1880.36, 0.271038
1881.04, 0.270917
1881.73, 0.270997
1882.41, 0.270997
1883.09, 0.270917
1883.78, 0.270556
1884.46, 0.270395
1885.15, 0.270235
1885.83, 0.270114
1886.52, 0.270034
1887.21, 0.269954
1887.89, 0.269833
1888.58, 0.269472
1889.27, 0.269031
1889.96, 0.268709
1890.65, 0.268870
1891.34, 0.268669
1892.03, 0.268428
1892.72, 0.268187
1893.41, 0.267866
1894.1, 0.267666
1894.79, 0.267465
1895.49, 0.267304
1896.18, 0.266983
1896.87, 0.266542
1897.57, 0.266100
1898.26, 0.265899
1898.96, 0.265458
1899.65, 0.265097
1900.35, 0.265097
1901.05, 0.265137
1901.74, 0.264896
1902.44, 0.264454
1903.14, 0.264615
1903.84, 0.264695
1904.54, 0.264173
1905.24, 0.263812
1905.94, 0.264053
1906.64, 0.264294
1907.34, 0.264374
1908.04, 0.264454
1908.75, 0.264535
1909.45, 0.264615
1910.15, 0.264494
1910.86, 0.264374
1911.56, 0.264494
1912.27, 0.264575
1912.97, 0.264374
1913.68, 0.264414
1914.39, 0.264695
1915.09, 0.264896
1915.8, 0.264976
1916.51, 0.265137
1917.22, 0.265337
1917.93, 0.265458
1918.64, 0.265458
1919.35, 0.265217
1920.06, 0.265097
1920.77, 0.265217
1921.48, 0.265699
1922.19, 0.265899
1922.91, 0.265899
1923.62, 0.265899
1924.33, 0.266060
1925.05, 0.266180
1925.76, 0.266180
1926.48, 0.266100
1927.19, 0.266180
1927.91, 0.266221
1928.63, 0.266261
1929.35, 0.266140
1930.07, 0.266140
1930.78, 0.266341
1931.5, 0.266341
1932.22, 0.266421
1932.94, 0.266421
1933.66, 0.266461
1934.39, 0.266622
1935.11, 0.266542
1935.83, 0.266180
1936.55, 0.266100
1937.28, 0.266221
1938.0, 0.266180
1938.73, 0.266261
1939.45, 0.266421
1940.18, 0.266421
1940.9, 0.266301
1941.63, 0.266261
1942.36, 0.266301
1943.09, 0.266180
1943.81, 0.266140
1944.54, 0.266221
1945.27, 0.266180
1946.0, 0.266060
1946.73, 0.266020
1947.47, 0.265940
1948.2, 0.265899
1948.93, 0.265899
1949.66, 0.265899
1950.4, 0.265940
1951.13, 0.265779
1951.86, 0.265538
1952.6, 0.265418
1953.34, 0.265418
1954.07, 0.265498
1954.81, 0.265538
1955.55, 0.265498
1956.29, 0.265418
1957.02, 0.265257
1957.76, 0.265097
1958.5, 0.265177
1959.24, 0.265257
1959.98, 0.265177
1960.72, 0.265137
1961.47, 0.265097
1962.21, 0.265016
1962.95, 0.265016
1963.7, 0.264896
1964.44, 0.265016
1965.18, 0.264936
1965.93, 0.264775
1966.67, 0.264816
1967.42, 0.264896
1968.17, 0.264856
1968.92, 0.264896
1969.66, 0.264896
1970.41, 0.264775
1971.16, 0.264655
1971.91, 0.264615
1972.66, 0.264535
1973.41, 0.264575
1974.16, 0.264655
1974.92, 0.264655
1975.67, 0.264655
1976.42, 0.264535
1977.18, 0.264414
1977.93, 0.264535
1978.69, 0.264655
1979.44, 0.264615
1980.2, 0.264615
1980.95, 0.264454
1981.71, 0.264374
1982.47, 0.264454
1983.23, 0.264655
1983.99, 0.264695
1984.74, 0.264535
1985.51, 0.264454
1986.27, 0.264575
1987.03, 0.264655
1987.79, 0.264615
1988.55, 0.264655
1989.32, 0.264655
1990.08, 0.264615
1990.84, 0.264695
1991.61, 0.264535
1992.37, 0.264454
1993.14, 0.264494
1993.9, 0.264655
1994.67, 0.264775
1995.44, 0.264856
1996.21, 0.264816
1996.98, 0.264856
1997.75, 0.264856
1998.52, 0.264816
1999.29, 0.264816
2000.06, 0.264936
2000.83, 0.264976
2001.6, 0.265137
2002.38, 0.265177
2003.15, 0.265056
2003.93, 0.265056
2004.7, 0.265056
2005.48, 0.264936
2006.25, 0.264816
2007.03, 0.264775
2007.81, 0.264896
2008.58, 0.265097
2009.36, 0.265217
2010.14, 0.265097
2010.92, 0.264936
2011.7, 0.264976
2012.48, 0.264976
2013.26, 0.265056
2014.05, 0.265056
2014.83, 0.264856
2015.61, 0.264735
2016.4, 0.264775
2017.18, 0.264816
2017.97, 0.264735
2018.75, 0.264655
2019.54, 0.264695
2020.32, 0.264615
2021.11, 0.264655
2021.9, 0.264735
2022.69, 0.264695
2023.48, 0.264494
2024.27, 0.264414
2025.06, 0.264535
2025.85, 0.264535
2026.64, 0.264454
2027.44, 0.264294
2028.23, 0.264213
2029.02, 0.264213
2029.82, 0.264093
2030.61, 0.264093
2031.41, 0.264133
2032.2, 0.264093
2033.0, 0.264053
2033.8, 0.263892
2034.6, 0.263812
2035.4, 0.263852
2036.2, 0.263852
2037.0, 0.263772
2037.8, 0.263651
2038.6, 0.263571
2039.4, 0.263411
2040.2, 0.263371
2041.01, 0.263290
2041.81, 0.263250
2042.61, 0.263170
2043.42, 0.263210
2044.22, 0.263049
2045.03, 0.262768
2045.84, 0.262688
2046.65, 0.262648
2047.46, 0.262688
2048.26, 0.262568
2049.07, 0.262447
2049.88, 0.262287
2050.69, 0.262126
2051.51, 0.262126
2052.32, 0.262166
2053.13, 0.262126
2053.94, 0.262006
2054.76, 0.261885
2055.57, 0.261805
2056.39, 0.261845
2057.2, 0.261885
2058.02, 0.261685
2058.84, 0.261444
2059.66, 0.261444
2060.48, 0.261323
2061.29, 0.261123
2062.11, 0.261082
2062.94, 0.260922
2063.76, 0.260801
2064.58, 0.260681
2065.4, 0.260721
2066.22, 0.260561
2067.05, 0.260280
2067.87, 0.260119
2068.7, 0.259999
2069.52, 0.259838
2070.35, 0.259637
2071.18, 0.259316
2072.0, 0.259035
2072.83, 0.258875
2073.66, 0.258674
2074.49, 0.258513
2075.32, 0.258313
2076.15, 0.258072
2076.98, 0.257871
2077.82, 0.257630
2078.65, 0.257430
2079.48, 0.257068
2080.32, 0.256667
2081.15, 0.256306
2081.99, 0.256145
2082.83, 0.255944
2083.66, 0.255663
2084.5, 0.255463
2085.34, 0.255262
2086.18, 0.255222
2087.02, 0.255061
2087.86, 0.254820
2088.7, 0.254660
2089.54, 0.254660
2090.39, 0.254419
2091.23, 0.254017
2092.07, 0.253977
2092.92, 0.253897
2093.76, 0.253777
2094.61, 0.253656
2095.45, 0.253536
2096.3, 0.253335
2097.15, 0.252894
2098.0, 0.252612
2098.85, 0.252452
2099.7, 0.252251
2100.55, 0.252010
2101.4, 0.251729
2102.25, 0.251569
2103.1, 0.251368
2103.96, 0.251087
2104.81, 0.250927
2105.67, 0.250686
2106.52, 0.250445
2107.38, 0.250204
2108.24, 0.250124
2109.09, 0.249923
2109.95, 0.249682
2110.81, 0.249441
2111.67, 0.249241
2112.53, 0.249120
2113.39, 0.248919
2114.25, 0.248638
2115.12, 0.248478
2115.98, 0.248438
2116.84, 0.248277
2117.71, 0.247996
2118.58, 0.247836
2119.44, 0.247715
2120.31, 0.247595
2121.18, 0.247595
2122.04, 0.247635
2122.91, 0.247514
2123.78, 0.247555
2124.65, 0.247635
2125.52, 0.247595
2126.4, 0.247514
2127.27, 0.247514
2128.14, 0.247514
2129.02, 0.247514
2129.89, 0.247474
2130.77, 0.247595
2131.64, 0.247595
2132.52, 0.247595
2133.4, 0.247434
2134.27, 0.247354
2135.15, 0.247233
2136.03, 0.247033
2136.91, 0.247033
2137.79, 0.246953
2138.68, 0.246832
2139.56, 0.246591
2140.44, 0.246310
2141.33, 0.246029
2142.21, 0.245748
2143.1, 0.245427
2143.99, 0.245066
2144.87, 0.244785
2145.76, 0.244544
2146.65, 0.244022
2147.54, 0.243500
2148.43, 0.243099
2149.32, 0.242738
2150.21, 0.242216
2151.1, 0.241694
2151.99, 0.241252
2152.89, 0.240650
2153.78, 0.240048
2154.68, 0.239366
2155.57, 0.238643
2156.47, 0.237961
2157.37, 0.237278
2158.27, 0.236355
2159.16, 0.235352
2160.06, 0.234388
2160.96, 0.233465
2161.86, 0.232542
2162.77, 0.231458
2163.67, 0.230253
2164.57, 0.229009
2165.48, 0.227765
2166.38, 0.226360
2167.29, 0.224794
2168.2, 0.223269
2169.1, 0.221583
2170.01, 0.219776
2170.92, 0.217850
2171.83, 0.215682
2172.74, 0.213474
2173.65, 0.211347
2174.56, 0.208858
2175.47, 0.206128
2176.39, 0.203439
2177.3, 0.200749
2178.22, 0.197979
2179.13, 0.195290
2180.05, 0.192480
2180.96, 0.189630
2181.88, 0.186659
2182.8, 0.183850
2183.72, 0.181240
2184.64, 0.178511
2185.56, 0.175861
2186.48, 0.173413
2187.41, 0.171165
2188.33, 0.169077
2189.25, 0.167110
2190.18, 0.165304
2191.1, 0.163658
2192.03, 0.162253
2192.96, 0.161129
2193.89, 0.160326
2194.82, 0.159885
2195.74, 0.159483
2196.68, 0.159122
2197.61, 0.159202
2198.54, 0.159524
2199.47, 0.159845
2200.4, 0.160326
2201.34, 0.161009
2202.28, 0.161852
2203.21, 0.162976
2204.15, 0.164300
2205.08, 0.165826
2206.02, 0.167512
2206.96, 0.169358
2207.9, 0.171687
2208.84, 0.174015
2209.78, 0.176423
2210.73, 0.179153
2211.67, 0.181802
2212.61, 0.184291
2213.56, 0.186940
2214.5, 0.189510
2215.45, 0.191958
2216.4, 0.194447
2217.35, 0.196936
2218.3, 0.199425
2219.24, 0.201833
2220.2, 0.204001
2221.15, 0.206088
2222.1, 0.208055
2223.05, 0.209982
2224.0, 0.211748
2224.96, 0.213354
2225.91, 0.214839
2226.87, 0.216364
2227.83, 0.217689
2228.79, 0.218813
2229.74, 0.219857
2230.7, 0.220900
2231.66, 0.221864
2232.63, 0.222827
2233.59, 0.223670
2234.55, 0.224433
2235.51, 0.225115
2236.48, 0.225838
2237.44, 0.226560
2238.41, 0.227122
2239.38, 0.227484
2240.34, 0.227845
2241.31, 0.228287
2242.28, 0.228648
2243.25, 0.228929
2244.22, 0.229170
2245.19, 0.229451
2246.17, 0.229571
2247.14, 0.229651
2248.12, 0.229812
2249.09, 0.230093
2250.07, 0.230253
2251.04, 0.230294
2252.02, 0.230294
2253.0, 0.230374
2253.98, 0.230454
2254.96, 0.230615
2255.94, 0.230856
2256.92, 0.231016
2257.91, 0.231016
2258.89, 0.230896
2259.88, 0.230896
2260.86, 0.230936
2261.85, 0.231056
2262.83, 0.231137
2263.82, 0.231096
2264.81, 0.231056
2265.8, 0.230653
2266.79, 0.230206
2267.78, 0.230295
2268.78, 0.230072
2269.77, 0.229893
2270.76, 0.229713
2271.76, 0.229624
2272.75, 0.229534
2273.75, 0.229400
2274.75, 0.229042
2275.75, 0.228908
2276.75, 0.228594
2277.75, 0.228147
2278.75, 0.227789
2279.75, 0.227475
2280.75, 0.226938
2281.76, 0.226401
2282.76, 0.225909
2283.77, 0.225819
2284.77, 0.225506
2285.78, 0.225103
2286.79, 0.224656
2287.8, 0.224342
2288.81, 0.223939
2289.82, 0.223447
2290.83, 0.222910
2291.84, 0.222373
2292.86, 0.221836
2293.87, 0.221522
2294.89, 0.220806
2295.91, 0.219732
2296.92, 0.218926
2297.94, 0.218210
2298.96, 0.217449
2299.98, 0.216778
2301.0, 0.216106
2302.02, 0.215300
2303.04, 0.214495
2304.07, 0.213331
2305.09, 0.212212
2306.12, 0.211317
2307.15, 0.210422
2308.17, 0.209079
2309.2, 0.207602
2310.23, 0.206885
2311.26, 0.206169
2312.29, 0.205140
2313.32, 0.203931
2314.35, 0.202633
2315.39, 0.201380
2316.42, 0.200216
2317.46, 0.199007
2318.5, 0.197754
2319.53, 0.196367
2320.57, 0.195203
2321.61, 0.194218
2322.65, 0.193099
2323.69, 0.191622
2324.73, 0.190055
2325.78, 0.188847
2326.82, 0.187817
2327.86, 0.186967
2328.91, 0.185758
2329.96, 0.184192
2331.01, 0.182983
2332.05, 0.182356
2333.1, 0.181551
2334.15, 0.180655
2335.21, 0.179223
2336.26, 0.177925
2337.31, 0.177164
2338.36, 0.176582
2339.42, 0.175687
2340.48, 0.174792
2341.53, 0.173807
2342.59, 0.172867
2343.65, 0.172464
2344.71, 0.172061
2345.77, 0.171479
2346.83, 0.171121
2347.9, 0.170718
2348.96, 0.170271
2350.02, 0.169823
2351.09, 0.169734
2352.16, 0.169823
2353.23, 0.170181
2354.29, 0.170584
2355.36, 0.170942
2356.43, 0.171390
2357.51, 0.171703
2358.58, 0.172285
2359.65, 0.172777
2360.73, 0.173001
2361.8, 0.173449
2362.88, 0.173897
2363.96, 0.174210
2365.03, 0.174523
2366.11, 0.174837
2367.19, 0.174926
2368.27, 0.174478
2369.36, 0.174076
2370.44, 0.174255
2371.53, 0.174657
2372.61, 0.174881
2373.7, 0.174613
2374.78, 0.174165
2375.87, 0.173762
2376.96, 0.173538
2378.05, 0.173359
2379.14, 0.173091
2380.24, 0.172912
2381.33, 0.172733
2382.42, 0.172554
2383.52, 0.172151
2384.61, 0.171927
2385.71, 0.171703
2386.81, 0.171703
2387.91, 0.171748
2389.01, 0.171793
2390.11, 0.171793
2391.22, 0.171748
2392.32, 0.171748
2393.42, 0.171703
2394.53, 0.171524
2395.64, 0.171032
2396.74, 0.170450
2397.85, 0.170271
2398.96, 0.170226
2400.07, 0.170047
2401.18, 0.169555
2402.3, 0.168794
2403.41, 0.168122
2404.52, 0.167630
2405.64, 0.166824
2406.76, 0.166108
2407.88, 0.165213
2408.99, 0.164586
2410.11, 0.163781
2411.23, 0.162796
2412.36, 0.161945
2413.48, 0.161184
2414.6, 0.160468
2415.73, 0.159573
2416.85, 0.158409
2417.98, 0.157424
2419.11, 0.156484
2420.24, 0.155679
2421.37, 0.154784
2422.5, 0.154291
2423.64, 0.153844
2424.77, 0.152993
2425.9, 0.152008
2427.04, 0.151158
2428.18, 0.150307
2429.31, 0.149547
2430.45, 0.148965
2431.59, 0.148696
2432.73, 0.148159
2433.88, 0.147801
2435.02, 0.147308
2436.16, 0.146637
2437.31, 0.146503
2438.45, 0.146458
2439.6, 0.145966
2440.75, 0.145697
2441.9, 0.145787
2443.05, 0.145921
2444.2, 0.146100
2445.35, 0.146324
2446.51, 0.146548
2447.67, 0.146637
2448.82, 0.146727
2449.98, 0.146995
2451.14, 0.147488
2452.3, 0.148025
2453.46, 0.148248
2454.62, 0.148248
2455.78, 0.148338
2456.94, 0.148875
2458.11, 0.149278
2459.28, 0.149770
2460.44, 0.150084
2461.61, 0.150173
2462.78, 0.150173
2463.95, 0.150442
2465.12, 0.150800
2466.3, 0.151471
2467.47, 0.151829
2468.65, 0.151964
2469.82, 0.152366
2471.0, 0.152725
2472.18, 0.152859
2473.36, 0.152993
2474.54, 0.153351
2475.72, 0.153799
2476.9, 0.154112
2478.08, 0.154291
2479.27, 0.154425
2480.46, 0.154739
2481.64, 0.155007
2482.83, 0.155186
2484.02, 0.155276
2485.21, 0.155545
2486.4, 0.155679
2487.6, 0.155813
2488.79, 0.155992
2489.99, 0.156216
2491.18, 0.156484
2492.38, 0.156664
2493.58, 0.156395
2494.78, 0.156440
2495.98, 0.156887
2497.18, 0.157111
2498.39, 0.157380
2499.59, 0.157827
2500.8, 0.157872
2502.01, 0.157872
2503.21, 0.158096
2504.42, 0.158454
2505.63, 0.158588
2506.84, 0.158857
2508.06, 0.159304
2509.27, 0.159707
2510.49, 0.159842
2511.7, 0.159931
2512.92, 0.160065
2514.14, 0.160334
2515.36, 0.160558
2516.58, 0.160558
2517.8, 0.160692
2519.03, 0.161095
2520.25, 0.161229
2521.48, 0.161229
2522.7, 0.161274
2523.93, 0.161408
2525.16, 0.161542
2526.39, 0.161542
2527.62, 0.161542
2528.86, 0.161453
2530.09, 0.161408
2531.33, 0.161363
2532.56, 0.161319
2533.8, 0.161229
2535.04, 0.160782
2536.28, 0.160737
2537.52, 0.161184
2538.76, 0.161184
2540.01, 0.161005
2541.25, 0.160603
2542.5, 0.159842
2543.75, 0.159528
2544.99, 0.159618
2546.24, 0.159349
2547.49, 0.158857
2548.75, 0.158767
2550.0, 0.158364
2551.26, 0.157783
2552.51, 0.157290
2553.77, 0.157514
2555.03, 0.157514
2556.29, 0.157245
2557.55, 0.156843
2558.81, 0.156216
2560.08, 0.154739
2561.34, 0.153799
2562.61, 0.153396
2563.88, 0.153351
2565.14, 0.153888
2566.41, 0.154336
2567.68, 0.153754
2568.96, 0.152456
2570.23, 0.152277
2571.51, 0.152277
2572.78, 0.151068
2574.06, 0.151382
2575.34, 0.151606
2576.62, 0.151158
2577.9, 0.151426
2579.18, 0.151471
2580.47, 0.150755
2581.75, 0.150666
2583.04, 0.149412
2584.32, 0.149502
2585.61, 0.149815
2586.9, 0.149009
2588.2, 0.149188
2589.49, 0.149502
2590.78, 0.149502
2592.08, 0.148293
2593.37, 0.145205
2594.67, 0.143370
2595.97, 0.145339
2597.27, 0.146682
2598.57, 0.146861
2599.88, 0.146279
2601.18, 0.145339
2602.49, 0.144578
2603.79, 0.143549
2605.1, 0.142653
2606.41, 0.143011
2607.72, 0.143459
2609.03, 0.143414
2610.35, 0.143728
2611.66, 0.143504
2612.98, 0.143280
2614.3, 0.143414
2615.62, 0.142027
2616.94, 0.141534
2618.26, 0.142385
2619.58, 0.141445
2620.91, 0.142071
2622.23, 0.143235
2623.56, 0.143370
2624.89, 0.142698
2626.22, 0.141624
2627.55, 0.142340
2628.88, 0.141579
2630.21, 0.141042
2631.55, 0.142564
2632.89, 0.142698
2634.22, 0.142832
2635.56, 0.143370
2636.9, 0.143146
2638.25, 0.143101
2639.59, 0.142922
2640.93, 0.142385
2642.28, 0.142116
2643.63, 0.141758
2644.98, 0.140863
2646.33, 0.140773
2647.68, 0.140818
2649.03, 0.140371
2650.39, 0.139565
2651.74, 0.138222
2653.1, 0.137685
2654.46, 0.136879
2655.82, 0.136029
2657.18, 0.135671
2658.54, 0.134373
2659.9, 0.133343
2661.27, 0.132537
2662.64, 0.131329
2664.01, 0.128867
2665.38, 0.127166
2666.74, 0.126808
2668.12, 0.126808
2669.49, 0.124301
2670.87, 0.123988
2672.24, 0.124973
2673.62, 0.124078
2675.0, 0.122377
2676.38, 0.120631
2677.76, 0.119915
2679.15, 0.119378
2680.54, 0.119333
2681.92, 0.118259
2683.31, 0.116871
2684.7, 0.115797
2686.09, 0.114678
2687.48, 0.113469
2688.88, 0.112216
2690.27, 0.110291
2691.67, 0.107068
2693.07, 0.102413
2694.47, 0.0980710
2695.87, 0.0935060
2697.27, 0.0880450
2698.67, 0.0821810
2700.08, 0.0765410
2701.49, 0.0714830
2702.9, 0.0673650
2704.31, 0.0636950
2705.72, 0.0605170
2707.13, 0.0573840
2708.54, 0.0540270
2709.96, 0.0508490
2711.38, 0.0483870
2712.8, 0.0460140
2714.22, 0.0431050
2715.64, 0.0401510
2717.06, 0.0371520
2718.49, 0.0343760
2719.91, 0.0320040
2721.34, 0.0304370
2722.77, 0.0290950
2724.2, 0.0277520
2725.63, 0.0269910
2727.07, 0.0264540
2728.5, 0.0260510
2729.94, 0.0257820
2731.38, 0.0254690
2732.82, 0.0251110
2734.26, 0.0247530
2735.7, 0.0247530
2737.15, 0.0246630
2738.59, 0.0243500
2740.04, 0.0243500
2741.49, 0.0243500
2742.94, 0.0243050
2744.39, 0.0244840
2745.84, 0.0245740
2747.3, 0.0244840
2748.76, 0.0243500
2750.21, 0.0244840
2751.67, 0.0244840
2753.14, 0.0241710
2754.6, 0.0238580
2756.06, 0.0242600
2757.53, 0.0248420
2759.0, 0.0249320
2760.46, 0.0250660
2761.94, 0.0250210
2763.41, 0.0251110
2764.88, 0.0253790
2766.36, 0.0255590
2767.83, 0.0259170
2769.31, 0.0261400
2770.79, 0.0262750
2772.27, 0.0266780
2773.76, 0.0273040
2775.24, 0.0277520
2776.73, 0.0281990
2778.22, 0.0287370
2779.71, 0.0294080
2781.2, 0.0302580
2782.69, 0.0311090
2784.18, 0.0318250
2785.68, 0.0322280
2787.18, 0.0327650
2788.68, 0.0336160
2790.18, 0.0345110
2791.68, 0.0354510
2793.19, 0.0366150
2794.69, 0.0381360
2796.2, 0.0400160
2797.71, 0.0418070
2799.22, 0.0432390
2800.73, 0.0444480
2802.24, 0.0453430
2803.76, 0.0462380
2805.28, 0.0473120
2806.8, 0.0489240
2808.32, 0.0515650
2809.84, 0.0549220
2811.36, 0.0585470
2812.89, 0.0616360
2814.42, 0.0637840
2815.94, 0.0658430
2817.48, 0.0673210
2819.01, 0.0682610
2820.54, 0.0693800
2822.08, 0.0702300
2823.61, 0.0710360
2825.15, 0.0717070
2826.69, 0.0721100
2828.23, 0.0728260
2829.78, 0.0733190
2831.32, 0.0734530
2832.87, 0.0736320
2834.42, 0.0740790
2835.97, 0.0745270
2837.52, 0.0748850
2839.08, 0.0752880
2840.63, 0.0758250
2842.19, 0.0764520
2843.75, 0.0770340
2845.31, 0.0770780
2846.87, 0.0771680
2848.44, 0.0775260
2850.0, 0.0780630
2851.57, 0.0786450
2853.14, 0.0786900
2854.71, 0.0789140
2856.28, 0.0794510
2857.86, 0.0798540
2859.43, 0.0801220
2861.01, 0.0804800
2862.59, 0.0807940
2864.17, 0.0809730
2865.76, 0.0810620
2867.34, 0.0811960
2868.93, 0.0814650
2870.52, 0.0817340
2872.11, 0.0820470
2873.7, 0.0824950
2875.29, 0.0826740
2876.89, 0.0826740
2878.49, 0.0829870
2880.08, 0.0833450
2881.69, 0.0835690
2883.29, 0.0836580
2884.89, 0.0836580
2886.5, 0.0840610
2888.11, 0.0845090
2889.72, 0.0846880
2891.33, 0.0847330
2892.94, 0.0849560
2894.56, 0.0851800
2896.17, 0.0854040
2897.79, 0.0856730
2899.42, 0.0857170
2901.04, 0.0857620
2902.66, 0.0861650
2904.29, 0.0864340
2905.92, 0.0867020
2907.55, 0.0870150
2909.18, 0.0872840
2910.81, 0.0875530
2912.45, 0.0878210
2914.08, 0.0881340
2915.72, 0.0884030
2917.36, 0.0884930
2919.01, 0.0886270
2920.65, 0.0888950
2922.3, 0.0889850
2923.94, 0.0891190
2925.59, 0.0892530
2927.25, 0.0894330
2928.9, 0.0897460
2930.56, 0.0899700
2932.21, 0.0899250
2933.87, 0.0900140
2935.53, 0.0902380
2937.2, 0.0904620
2938.86, 0.0906410
2940.53, 0.0908650
2942.2, 0.0909990
2943.87, 0.0910890
2945.54, 0.0911330
2947.22, 0.0910890
2948.89, 0.0912230
2950.57, 0.0914020
2952.25, 0.0918050
2953.93, 0.0918500
2955.62, 0.0918050
2957.3, 0.0919840
2958.99, 0.0922080
2960.68, 0.0923420
2962.37, 0.0924760
2964.07, 0.0927000
2965.76, 0.0927450
2967.46, 0.0928790
2969.16, 0.0930580
2970.86, 0.0932820
2972.56, 0.0933710
2974.27, 0.0933710
2975.98, 0.0934160
2977.69, 0.0935950
2979.4, 0.0937300
2981.11, 0.0938190
2982.83, 0.0940430
2984.54, 0.0942220
2986.26, 0.0942670
2987.98, 0.0945350
2989.71, 0.0947590
2991.43, 0.0947590
2993.16, 0.0948490
2994.89, 0.0949830
2996.62, 0.0951620
2998.35, 0.0952070
3000.09, 0.0951620
3001.83, 0.0953860
3003.57, 0.0956100
3005.31, 0.0956990
3007.05, 0.0957440
3008.79, 0.0958780
3010.54, 0.0959230
3012.29, 0.0959680
3014.04, 0.0962360
3015.8, 0.0964150
3017.55, 0.0963700
3019.31, 0.0964600
3021.07, 0.0965940
3022.83, 0.0967290
3024.59, 0.0967290
3026.36, 0.0969080
3028.13, 0.0970420
3029.9, 0.0969520
3031.67, 0.0970870
3033.44, 0.0972210
3035.22, 0.0973550
3037.0, 0.0976690
3038.78, 0.0978480
3040.56, 0.0978480
3042.34, 0.0980710
3044.13, 0.0982500
3045.92, 0.0982500
3047.71, 0.0984740
3049.5, 0.0988320
3051.3, 0.0989670
3053.09, 0.0990110
3054.89, 0.0992350
3056.69, 0.0995040
3058.5, 0.0997720
3060.3, 0.0999070
3062.11, 0.100086
3063.92, 0.100220
3065.73, 0.100399
3067.55, 0.100578
3069.36, 0.100668
3071.18, 0.100847
3073.0, 0.101070
3074.82, 0.101384
3076.65, 0.101697
3078.48, 0.102010
3080.31, 0.102145
3082.14, 0.102279
3083.97, 0.102413
3085.8, 0.102637
3087.64, 0.102950
3089.48, 0.103264
3091.33, 0.103487
3093.17, 0.103756
3095.02, 0.104025
3096.87, 0.104159
3098.72, 0.104383
3100.57, 0.104696
3102.43, 0.105054
3104.28, 0.105323
3106.14, 0.105457
3108.01, 0.105726
3109.87, 0.105994
3111.74, 0.106218
3113.61, 0.106621
3115.48, 0.107024
3117.35, 0.107426
3119.23, 0.107740
3121.1, 0.107964
3122.98, 0.108366
3124.87, 0.108635
3126.75, 0.108948
3128.64, 0.109217
3130.53, 0.109485
3132.42, 0.109888
3134.31, 0.110246
3136.21, 0.110560
3138.11, 0.110873
3140.01, 0.111186
3141.91, 0.111455
3143.82, 0.111723
3145.73, 0.111992
3147.64, 0.112350
3149.55, 0.112753
3151.46, 0.113022
3153.38, 0.113201
3155.3, 0.113469
3157.22, 0.113693
3159.14, 0.114006
3161.07, 0.114275
3163.0, 0.114499
3164.93, 0.114902
3166.86, 0.115260
3168.8, 0.115483
3170.74, 0.115752
3172.68, 0.116110
3174.62, 0.116468
3176.56, 0.116781
3178.51, 0.117140
3180.46, 0.117587
3182.42, 0.117856
3184.37, 0.117990
3186.33, 0.118080
3188.29, 0.118393
3190.25, 0.118796
3192.21, 0.119109
3194.18, 0.119378
3196.15, 0.119736
3198.12, 0.120004
3200.09, 0.120273
3202.07, 0.120676
3204.05, 0.120944
3206.03, 0.121168
3208.02, 0.121481
3210.0, 0.121705
3211.99, 0.121974
3213.98, 0.122198
3215.98, 0.122511
3217.97, 0.122735
3219.97, 0.123138
3221.97, 0.123585
3223.98, 0.123988
3225.98, 0.124436
3227.99, 0.124704
3230.0, 0.124883
3232.02, 0.125152
3234.03, 0.125465
3236.05, 0.125644
3238.07, 0.125868
3240.1, 0.126137
3242.12, 0.126495
3244.15, 0.126808
3246.18, 0.127032
3248.22, 0.127211
3250.25, 0.127390
3252.29, 0.127658
3254.33, 0.127927
3256.38, 0.128016
3258.43, 0.128285
3260.47, 0.128464
3262.53, 0.128688
3264.58, 0.128912
3266.64, 0.129270
3268.7, 0.129538
3270.76, 0.129673
3272.82, 0.129762
3274.89, 0.130031
3276.96, 0.130344
3279.04, 0.130613
3281.11, 0.130747
3283.19, 0.130792
3285.27, 0.131015
3287.35, 0.131239
3289.44, 0.131374
3291.53, 0.131553
3293.62, 0.131776
3295.71, 0.132045
3297.81, 0.132090
3299.91, 0.132179
3302.01, 0.132403
3304.11, 0.132493
3306.22, 0.132582
3308.33, 0.132895
3310.44, 0.133209
3312.56, 0.133298
3314.68, 0.133388
3316.8, 0.133433
3318.92, 0.133433
3321.05, 0.133656
3323.18, 0.133880
3325.31, 0.134014
3327.44, 0.134059
3329.58, 0.134149
3331.72, 0.134283
3333.86, 0.134417
3336.01, 0.134507
3338.16, 0.134507
3340.31, 0.134507
3342.46, 0.134552
3344.61, 0.134596
3346.77, 0.134731
3348.94, 0.134731
3351.1, 0.134641
3353.27, 0.134641
3355.44, 0.134686
3357.61, 0.134686
3359.79, 0.134731
3361.97, 0.134641
3364.15, 0.134417
3366.33, 0.134328
3368.52, 0.134283
3370.71, 0.134194
3372.9, 0.134104
3375.1, 0.134014
3377.3, 0.134014
3379.5, 0.134194
3381.71, 0.134417
3383.91, 0.134596
3386.12, 0.134775
3388.34, 0.134820
3390.55, 0.135044
3392.77, 0.135223
3394.99, 0.135223
3397.22, 0.135133
3399.45, 0.135089
3401.68, 0.134820
3403.91, 0.134552
3406.15, 0.134283
3408.39, 0.134014
3410.63, 0.133835
3412.87, 0.133835
3415.12, 0.133791
3417.37, 0.133970
3419.63, 0.134417
3421.88, 0.134865
3424.14, 0.135357
3426.41, 0.136029
3428.67, 0.136700
3430.94, 0.137282
3433.21, 0.137774
3435.49, 0.138222
3437.77, 0.138714
3440.05, 0.139028
3442.33, 0.139296
3444.62, 0.139699
3446.91, 0.140012
3449.2, 0.140371
3451.5, 0.140505
3453.8, 0.140594
3456.1, 0.140863
3458.41, 0.141176
3460.72, 0.141221
3463.03, 0.141266
3465.34, 0.141445
3467.66, 0.141445
3469.98, 0.141400
3472.31, 0.141445
3474.63, 0.141400
3476.96, 0.141311
3479.3, 0.141311
3481.64, 0.141221
3483.97, 0.141221
3486.32, 0.141221
3488.66, 0.141087
3491.01, 0.140908
3493.36, 0.140729
3495.72, 0.140460
3498.08, 0.140236
3500.44, 0.140102
3502.81, 0.140102
3505.18, 0.140236
3507.55, 0.140594
3509.92, 0.140997
3512.3, 0.141400
3514.68, 0.141848
3517.06, 0.142161
3519.45, 0.142340
3521.84, 0.142564
3524.24, 0.142832
3526.64, 0.143101
3529.04, 0.143370
3531.44, 0.143414
3533.85, 0.143414
3536.26, 0.143459
3538.67, 0.143638
3541.09, 0.143728
3543.51, 0.143817
3545.93, 0.143951
3548.36, 0.144086
3550.79, 0.144175
3553.22, 0.144354
3555.66, 0.144399
3558.1, 0.144444
3560.54, 0.144533
3562.99, 0.144533
3565.44, 0.144668
3567.9, 0.144802
3570.35, 0.144891
3572.81, 0.145026
3575.28, 0.145070
3577.75, 0.145070
3580.22, 0.145115
3582.69, 0.145070
3585.17, 0.145026
3587.65, 0.145070
3590.14, 0.145205
3592.62, 0.145160
3595.11, 0.145026
3597.61, 0.145160
3600.11, 0.145294
3602.61, 0.145205
3605.11, 0.145070
3607.62, 0.145115
3610.14, 0.145115
3612.65, 0.144981
3615.17, 0.144981
3617.69, 0.144936
3620.22, 0.144891
3622.75, 0.144668
3625.28, 0.144489
3627.82, 0.144399
3630.36, 0.144310
3632.9, 0.144041
3635.45, 0.143817
3638.0, 0.143683
3640.56, 0.143683
3643.12, 0.143638
3645.68, 0.143549
3648.24, 0.143280
3650.81, 0.143146
3653.39, 0.142967
3655.96, 0.142922
3658.54, 0.142967
3661.13, 0.142877
3663.71, 0.142653
3666.3, 0.142519
3668.9, 0.142519
3671.5, 0.142474
3674.1, 0.142340
3676.7, 0.142251
3679.31, 0.142206
3681.93, 0.142251
3684.54, 0.142251
3687.17, 0.142071
3689.79, 0.141937
3692.42, 0.141758
3695.05, 0.141579
3697.69, 0.141445
3700.32, 0.141355
3702.97, 0.141221
3705.61, 0.140952
3708.27, 0.140863
3710.92, 0.140773
3713.58, 0.140818
3716.24, 0.140863
3718.91, 0.140908
3721.58, 0.140863
3724.25, 0.140863
3726.93, 0.140818
3729.61, 0.140908
3732.29, 0.140997
3734.98, 0.141221
3737.67, 0.141490
3740.37, 0.141848
3743.07, 0.142206
3745.78, 0.142519
3748.49, 0.142922
3751.2, 0.143370
3753.91, 0.143638
3756.63, 0.143817
3759.36, 0.143951
3762.09, 0.144130
3764.82, 0.144354
3767.55, 0.144533
3770.29, 0.144578
3773.04, 0.144668
3775.78, 0.144802
3778.54, 0.144802
3781.29, 0.144757
3784.05, 0.144891
3786.82, 0.144936
3789.59, 0.144847
3792.36, 0.144847
3795.13, 0.144936
3797.92, 0.144936
3800.7, 0.144891
3803.49, 0.144847
3806.28, 0.144936
3809.08, 0.144847
3811.88, 0.144802
3814.68, 0.144757
3817.49, 0.144668
3820.31, 0.144533
3823.12, 0.144489
3825.94, 0.144310
3828.77, 0.144220
3831.6, 0.144086
3834.43, 0.143951
3837.27, 0.143862
3840.11, 0.143638
3842.96, 0.143504
3845.81, 0.143370
3848.67, 0.143235
3851.53, 0.143101
3854.39, 0.142967
3857.26, 0.142832
3860.13, 0.142564
3863.01, 0.142430
3865.89, 0.142295
3868.77, 0.142071
3871.66, 0.141892
3874.55, 0.141713
3877.45, 0.141624
3880.35, 0.141490
3883.26, 0.141355
3886.17, 0.141176
3889.09, 0.141042
3892.01, 0.140863
3894.93, 0.140773
3897.86, 0.140639
3900.79, 0.140505
3903.73, 0.140371
3906.67, 0.140281
3909.62, 0.140191
3912.57, 0.140057
3915.52, 0.139878
3918.48, 0.139744
3921.45, 0.139610
3924.42, 0.139431
3927.39, 0.139296
3930.37, 0.139117
3933.35, 0.138893
3936.34, 0.138804
3939.33, 0.138759
3942.32, 0.138714
3945.32, 0.138625
3948.33, 0.138535
3951.34, 0.138446
3954.35, 0.138356
3957.37, 0.138267
3960.39, 0.138088
3963.42, 0.137953
3966.45, 0.137909
3969.49, 0.137774
3972.53, 0.137685
3975.58, 0.137640
3978.63, 0.137461
3981.68, 0.137327
3984.75, 0.137148
3987.81, 0.136924
3990.88, 0.136745
3993.95, 0.136521
3997.03, 0.136387
4000.12, 0.136342
4003.21, 0.136253
4006.3, 0.136253
4009.4, 0.136253
4012.5, 0.136118
4015.61, 0.135984
4018.72, 0.135894
4021.84, 0.135894
4024.96, 0.135850
4028.09, 0.135715
4031.22, 0.135671
4034.36, 0.135715
4037.5, 0.135760
4040.65, 0.135805
4043.8, 0.135805
4046.96, 0.135760
4050.12, 0.135671
4053.29, 0.135671
4056.46, 0.135715
4059.64, 0.135671
4062.82, 0.135536
4066.0, 0.135447
4069.19, 0.135402
4072.39, 0.135357
4075.59, 0.135357
4078.8, 0.135268
4082.01, 0.135178
4085.23, 0.135044
4088.45, 0.135044
4091.68, 0.135044
4094.91, 0.134999
4098.15, 0.134954
4101.39, 0.134954
4104.63, 0.134954
4107.89, 0.134954
4111.14, 0.134954
4114.41, 0.134954
4117.67, 0.134865
4120.95, 0.134775
4124.23, 0.134641
4127.51, 0.134552
4130.8, 0.134462
4134.09, 0.134328
4137.39, 0.134149
4140.7, 0.134059
4144.01, 0.133970
4147.32, 0.133746
4150.64, 0.133656
4153.97, 0.133612
4157.3, 0.133477
4160.64, 0.133298
4163.98, 0.133209
4167.33, 0.133119
4170.68, 0.133119
4174.04, 0.133074
4177.4, 0.132985
4180.77, 0.132895
4184.14, 0.132716
4187.52, 0.132537
4190.91, 0.132358
4194.3, 0.132135
4197.69, 0.131821
4201.1, 0.131418
4204.5, 0.130792
4207.92, 0.130031
4211.34, 0.129136
4214.76, 0.128330
4218.19, 0.127479
4221.62, 0.126718
4225.06, 0.126047
4228.51, 0.125510
4231.96, 0.125197
4235.42, 0.125062
4238.88, 0.124973
4242.35, 0.125197
4245.83, 0.125734
4249.31, 0.126539
4252.79, 0.127524
4256.28, 0.128016
4259.78, 0.127345
4263.29, 0.126271
4266.79, 0.125555
4270.31, 0.125107
4273.83, 0.124838
4277.35, 0.124615
4280.89, 0.124480
4284.42, 0.124436
4287.97, 0.124436
4291.52, 0.124346
4295.07, 0.124346
4298.63, 0.124480
4302.2, 0.124436
4305.78, 0.124436
4309.35, 0.124480
4312.94, 0.124525
4316.53, 0.124525
4320.13, 0.124525
4323.73, 0.124436
4327.34, 0.124346
4330.96, 0.124346
4334.58, 0.124301
4338.21, 0.124167
4341.84, 0.124033
4345.48, 0.123809
4349.12, 0.123540
4352.77, 0.123227
4356.43, 0.122869
4360.1, 0.122556
4363.76, 0.122198
4367.44, 0.121750
4371.12, 0.121302
4374.81, 0.120676
4378.51, 0.119960
4382.21, 0.119243
4385.92, 0.118527
4389.63, 0.117721
4393.35, 0.116871
4397.08, 0.116021
4400.81, 0.115081
4404.55, 0.114141
4408.29, 0.113201
4412.04, 0.112261
4415.8, 0.111321
4419.57, 0.110381
4423.34, 0.109441
4427.12, 0.108501
4430.9, 0.107605
4434.69, 0.106621
4438.49, 0.105681
4442.29, 0.104830
4446.1, 0.103980
4449.92, 0.103085
4453.74, 0.102324
4457.57, 0.101473
4461.41, 0.100668
4465.25, 0.0998170
4469.1, 0.0990110
4472.95, 0.0983400
4476.82, 0.0977130
4480.69, 0.0969520
4484.56, 0.0961020
4488.44, 0.0954300
4492.33, 0.0947590
4496.23, 0.0939530
4500.13, 0.0931480
4504.04, 0.0924760
4507.96, 0.0917600
4511.88, 0.0911780
4515.81, 0.0905070
4519.75, 0.0898350
4523.69, 0.0892090
4527.65, 0.0886720
4531.6, 0.0880450
4535.57, 0.0873730
4539.54, 0.0867920
4543.52, 0.0862100
4547.5, 0.0856280
4551.5, 0.0851350
4555.5, 0.0845980
4559.5, 0.0840610
4563.52, 0.0835240
4567.54, 0.0829870
4571.56, 0.0824050
4575.6, 0.0817780
4579.64, 0.0812410
4583.69, 0.0806150
4587.75, 0.0799430
4591.81, 0.0793170
4595.88, 0.0786000
4599.96, 0.0778390
4604.04, 0.0772580
4608.14, 0.0766760
4612.24, 0.0759590
4616.34, 0.0753330
4620.46, 0.0746170
4624.58, 0.0738560
4628.71, 0.0731840
4632.84, 0.0725580
4636.99, 0.0717970
4641.14, 0.0710360
4645.3, 0.0703200
4649.47, 0.0696480
4653.64, 0.0689770
4657.82, 0.0683500
4662.01, 0.0675890
4666.21, 0.0669180
4670.41, 0.0662910
4674.62, 0.0656200
4678.84, 0.0648590
4683.07, 0.0642320
4687.3, 0.0636050
4691.54, 0.0629790
4695.79, 0.0623520
4700.05, 0.0616810
4704.31, 0.0610090
4708.59, 0.0604270
4712.87, 0.0599800
4717.15, 0.0595320
4721.45, 0.0589500
4725.76, 0.0583680
4730.07, 0.0580100
4734.39, 0.0576070
4738.72, 0.0571150
4743.05, 0.0566670
4747.39, 0.0562650
4751.75, 0.0559070
4756.1, 0.0554590
4760.47, 0.0550560
4764.85, 0.0546980
4769.23, 0.0543400
4773.62, 0.0540270
4778.02, 0.0537130
4782.43, 0.0534890
4786.85, 0.0532210
4791.27, 0.0530420
4795.7, 0.0528630
4800.14, 0.0526390
4804.59, 0.0523700
4809.05, 0.0522360
4813.51, 0.0522810
4817.99, 0.0522810
4822.47, 0.0521910
4826.96, 0.0521020
4831.46, 0.0520120
4835.96, 0.0520120
4840.48, 0.0519680
4845.0, 0.0518330
4849.54, 0.0519230
4854.08, 0.0519680
4858.63, 0.0519680
4863.18, 0.0519680
4867.75, 0.0519680
4872.33, 0.0518330
4876.91, 0.0517880
4881.5, 0.0517440
4886.1, 0.0517880
4890.71, 0.0517440
4895.33, 0.0516990
4899.96, 0.0517440
4904.59, 0.0517440
4909.24, 0.0517440
4913.89, 0.0517880
4918.55, 0.0518780
4923.22, 0.0518780
4927.9, 0.0519680
4932.59, 0.0521020
4937.29, 0.0521910
4942.0, 0.0522810
4946.71, 0.0523260
4951.44, 0.0523700
4956.17, 0.0525050
4960.91, 0.0526840
4965.67, 0.0527730
4970.43, 0.0527280
4975.2, 0.0527730
4979.98, 0.0528630
4984.76, 0.0529520
4989.56, 0.0530870
4994.37, 0.0531310
4999.18, 0.0531760
5004.01, 0.0531310
5008.84, 0.0531760
5013.69, 0.0531760
5018.54, 0.0530870
5023.4, 0.0531760
5028.28, 0.0532660
5033.16, 0.0533100
5038.05, 0.0533100
5042.95, 0.0532660
5047.86, 0.0533100
5052.78, 0.0533550
5057.71, 0.0533550
5062.65, 0.0534000
5067.6, 0.0533550
5072.56, 0.0532660
5077.53, 0.0530870
5082.5, 0.0529080
5087.49, 0.0527280
5092.49, 0.0524600
5097.5, 0.0521020
5102.51, 0.0516990
5107.54, 0.0512070
5112.58, 0.0506690
5117.62, 0.0501320
5122.68, 0.0495500
5127.75, 0.0487900
5132.82, 0.0479390
5137.91, 0.0470890
5143.01, 0.0461040
5148.12, 0.0452090
5153.23, 0.0443130
5158.36, 0.0433730
5163.5, 0.0424780
5168.65, 0.0416280
5173.81, 0.0406880
5178.98, 0.0397480
5184.15, 0.0388530
5189.34, 0.0379570
5194.54, 0.0371960
5199.75, 0.0364350
5204.98, 0.0356300
5210.21, 0.0347790
5215.45, 0.0340630
5220.7, 0.0335260
5225.96, 0.0329440
5231.23, 0.0323170
5236.52, 0.0317360
5241.81, 0.0311980
5247.12, 0.0306610
5252.44, 0.0302140
5257.76, 0.0298110
5263.1, 0.0294080
5268.45, 0.0290050
5273.81, 0.0285130
5279.18, 0.0280650
5284.56, 0.0277970
5289.95, 0.0274830
5295.36, 0.0272150
5300.77, 0.0269910
5306.2, 0.0268120
5311.63, 0.0266780
5317.08, 0.0264540
5322.54, 0.0262750
5328.01, 0.0261850
5333.49, 0.0260510
5338.98, 0.0259170
5344.49, 0.0257820
5350.0, 0.0256030
5355.53, 0.0256030
5361.07, 0.0254240
5366.62, 0.0252900
5372.18, 0.0252450
5377.75, 0.0252000
5383.34, 0.0250660
5388.93, 0.0248420
5394.54, 0.0247530
5400.16, 0.0246190
5405.79, 0.0244400
5411.44, 0.0243500
5417.09, 0.0241260
5422.76, 0.0239020
5428.43, 0.0239020
5434.12, 0.0238580
5439.83, 0.0237680
5445.54, 0.0236340
5451.26, 0.0235000
5457.0, 0.0233200
5462.75, 0.0230970
5468.52, 0.0230070
5474.29, 0.0229620
5480.08, 0.0228280
5485.88, 0.0228280
5491.69, 0.0227830
5497.51, 0.0226490
5503.35, 0.0225600
5509.2, 0.0224700
5515.06, 0.0224700
5520.93, 0.0224250
5526.82, 0.0223360
5532.71, 0.0222460
5538.63, 0.0222460
5544.55, 0.0222010
5550.49, 0.0220670
5556.44, 0.0221120
5562.4, 0.0220670
5568.37, 0.0219780
5574.36, 0.0217990
5580.36, 0.0217990
5586.37, 0.0218880
5592.4, 0.0219780
5598.44, 0.0219780
5604.49, 0.0218880
5610.56, 0.0218880
5616.63, 0.0217990
5622.73, 0.0217540
5628.83, 0.0217540
5634.95, 0.0216200
5641.08, 0.0214410
5647.23, 0.0214850
5653.39, 0.0216200
5659.56, 0.0217540
5665.74, 0.0217090
5671.94, 0.0217090
5678.15, 0.0217990
5684.38, 0.0218430
5690.62, 0.0218880
5696.87, 0.0220220
5703.14, 0.0220670
5709.42, 0.0219780
5715.72, 0.0221120
5722.03, 0.0222460
5728.35, 0.0224700
5734.69, 0.0225600
5741.03, 0.0226040
5747.4, 0.0226490
5753.78, 0.0228730
5760.17, 0.0226940
5766.58, 0.0225150
5773.0, 0.0227390
5779.44, 0.0228280
5785.88, 0.0228280
5792.35, 0.0228730
5798.83, 0.0228280
5805.32, 0.0226940
5811.83, 0.0224700
5818.35, 0.0220670
5824.89, 0.0220670
5831.45, 0.0222010
5838.01, 0.0222010
5844.59, 0.0220220
5851.19, 0.0217990
5857.8, 0.0215750
5864.43, 0.0213960
5871.07, 0.0212610
5877.73, 0.0208590
5884.4, 0.0208590
5891.09, 0.0208590
5897.79, 0.0207690
5904.5, 0.0209930
5911.23, 0.0209030
5917.98, 0.0207240
5924.75, 0.0207240
5931.53, 0.0204560
5938.32, 0.0203210
5945.13, 0.0207240
5951.96, 0.0208590
5958.8, 0.0209480
5965.65, 0.0208140
5972.53, 0.0209930
5979.42, 0.0212170
5986.32, 0.0212610
5993.24, 0.0213960
6000.18, 0.0217090
6007.13, 0.0218880
6014.1, 0.0221120
6021.08, 0.0223810
6028.09, 0.0226040
6035.1, 0.0227390
6042.14, 0.0224700
6049.19, 0.0224700
6056.25, 0.0231860
6063.34, 0.0233650
6070.44, 0.0234550
6077.55, 0.0238580
6084.69, 0.0241710
6091.84, 0.0243050
6099.0, 0.0244400
6106.19, 0.0243500
6113.39, 0.0243050
6120.61, 0.0247080
6127.84, 0.0250210
6135.09, 0.0251110
6142.36, 0.0252000
6149.65, 0.0253350
6156.95, 0.0253790
6164.27, 0.0255590
6171.61, 0.0257820
6178.97, 0.0257380
6186.34, 0.0259170
6193.73, 0.0263640
6201.14, 0.0265430
6208.57, 0.0267670
6216.01, 0.0269910
6223.47, 0.0270800
6230.95, 0.0271250
6238.45, 0.0271250
6245.97, 0.0270800
6253.5, 0.0270800
6261.06, 0.0271700
6268.63, 0.0271700
6276.21, 0.0272590
6283.82, 0.0272590
6291.45, 0.0271250
6299.1, 0.0270800
6306.76, 0.0270360
6314.44, 0.0269910
6322.14, 0.0269460
6329.86, 0.0268570
6337.6, 0.0265430
6345.35, 0.0263640
6353.13, 0.0265880
6360.92, 0.0264540
6368.74, 0.0261850
6376.57, 0.0262300
6384.43, 0.0262300
6392.3, 0.0261850
6400.19, 0.0258720
6408.1, 0.0251110
6416.03, 0.0248870
6423.98, 0.0253350
6431.95, 0.0253350
6439.94, 0.0252900
6447.95, 0.0252000
6455.98, 0.0250660
6464.03, 0.0248870
6472.1, 0.0245740
6480.19, 0.0243500
6488.31, 0.0240810
6496.44, 0.0241260
6504.59, 0.0243950
6512.76, 0.0242600
6520.95, 0.0239920
6529.16, 0.0240810
6537.4, 0.0240810
6545.65, 0.0238580
6553.92, 0.0236340
6562.22, 0.0234100
6570.54, 0.0231410
6578.88, 0.0231860
6587.23, 0.0231410
6595.61, 0.0230520
6604.02, 0.0229620
6612.44, 0.0227390
6620.89, 0.0226040
6629.35, 0.0222010
6637.84, 0.0218880
6646.35, 0.0222010
6654.88, 0.0223360
6663.44, 0.0221570
6672.01, 0.0218430
6680.61, 0.0216200
6689.23, 0.0215300
6697.88, 0.0213510
6706.54, 0.0210820
6715.23, 0.0209480
6723.94, 0.0208590
6732.67, 0.0206800
6741.42, 0.0204110
6750.2, 0.0201870
6759.0, 0.0200530
6767.82, 0.0198290
6776.67, 0.0195160
6785.54, 0.0190680
6794.44, 0.0188890
6803.35, 0.0189340
6812.29, 0.0188440
6821.26, 0.0185310
6830.24, 0.0182620
6839.25, 0.0181280
6848.29, 0.0178150
6857.35, 0.0173670
6866.43, 0.0172330
6875.54, 0.0172780
6884.67, 0.0171880
6893.82, 0.0170090
6903.0, 0.0167410
6912.2, 0.0165620
6921.43, 0.0163380
6930.69, 0.0162030
6939.96, 0.0159800
6949.27, 0.0158010
6958.59, 0.0155320
6967.95, 0.0153530
6977.33, 0.0152640
6986.73, 0.0151290
6996.16, 0.0150400
7005.61, 0.0149950
7015.09, 0.0148160
7024.6, 0.0146370
7034.13, 0.0143680
7043.69, 0.0141890
7053.27, 0.0141890
7062.88, 0.0141440
7072.52, 0.0139650
7082.18, 0.0137860
7091.87, 0.0136520
7101.58, 0.0134730
7111.32, 0.0133390
7121.09, 0.0132490
7130.88, 0.0130700
7140.71, 0.0128460
7150.56, 0.0126670
7160.43, 0.0126230
7170.33, 0.0125780
7180.27, 0.0124880
7190.23, 0.0123090
7200.21, 0.0121300
7210.23, 0.0118620
7220.27, 0.0117720
7230.34, 0.0116830
7240.44, 0.0115480
7250.56, 0.0114140
7260.72, 0.0111900
7270.9, 0.0110560
7281.12, 0.0110110
7291.36, 0.0108770
7301.63, 0.0106080
7311.93, 0.0104290
7322.25, 0.0102950
7332.61, 0.0101160
7343.0, 0.00993700
7353.41, 0.00980300
7363.86, 0.00957900
7374.33, 0.00931000
7384.83, 0.00917600
7395.37, 0.00904200
7405.93, 0.00872800
7416.53, 0.00859400
7427.15, 0.00854900
7437.81, 0.00841500
7448.5, 0.00823600
7459.22, 0.00796700
7469.96, 0.00783300
7480.74, 0.00774400
7491.55, 0.00756500
7502.39, 0.00743000
7513.27, 0.00720700
7524.17, 0.00689300
7535.11, 0.00671400
7546.08, 0.00662500
7557.08, 0.00644600
7568.11, 0.00626700
7579.17, 0.00617700
7590.27, 0.00590800
7601.4, 0.00572900
7612.56, 0.00564000
7623.76, 0.00546100
7634.98, 0.00528200
7646.24, 0.00519200
7657.54, 0.00510300
7668.87, 0.00492400
7680.23, 0.00470000
7691.62, 0.00461000
7703.05, 0.00443100
7714.51, 0.00429700
7726.01, 0.00411800
7737.54, 0.00402800
7749.11, 0.00384900
7760.71, 0.00362600
7772.35, 0.00358100
7784.02, 0.00353600
7795.72, 0.00331200
7807.46, 0.00308900
7819.23, 0.00299900
7831.04, 0.00290900
7842.89, 0.00286500
7854.77, 0.00273000
7866.69, 0.00250700
7878.65, 0.00246200
7890.64, 0.00237200
7902.67, 0.00214900
7914.74, 0.00201400
7926.84, 0.00188000
7938.98, 0.00170100
7951.16, 0.00156700
7963.37, 0.00147700
7975.62, 0.00143200
7987.91, 0.00138800
8000.24, 0.00120900
8012.6, 0.00107400
8025.01, 0.000985000
8037.45, 0.000940000
8049.93, 0.000806000
8062.45, 0.000716000
8075.01, 0.000582000
8087.61, 0.000582000
8100.24, 0.000582000
8112.91, 0.000448000
8125.63, 0.000403000
8138.39, 0.000448000
8151.18, 0.000448000
8164.02, 0.000403000
8176.9, 0.000358000
8189.81, 0.000403000
8202.77, 0.000448000
8215.77, 0.000537000
8228.82, 0.000537000
8241.9, 0.000537000
8255.02, 0.000671000
8268.19, 0.000895000
8281.39, 0.00111900
8294.65, 0.00134300
8307.94, 0.00152200
8321.28, 0.00183500
8334.66, 0.00228300
8348.08, 0.00277500
8361.54, 0.00340200
8375.05, 0.00402800
8388.6, 0.00474500
8402.2, 0.00572900
8415.84, 0.00671400
8429.52, 0.00801200
8443.25, 0.00962400
8457.02, 0.0113250
8470.84, 0.0133390
8484.7, 0.0156660
8498.61, 0.0183520
8512.57, 0.0211720
8526.57, 0.0245290
8540.62, 0.0282440
8554.71, 0.0321380
8568.85, 0.0365700
8583.04, 0.0414930
8597.27, 0.0469100
8611.55, 0.0526840
8625.88, 0.0588610
8640.26, 0.0654850
8654.68, 0.0725130
8669.16, 0.0798980
8683.68, 0.0873730
8698.25, 0.0947140
8712.87, 0.101787
8727.53, 0.108232
8742.25, 0.113738
8757.02, 0.118661
8771.83, 0.123182
8786.7, 0.127211
8801.62, 0.131105
8816.59, 0.135178
8831.61, 0.139296
8846.68, 0.143459
8861.8, 0.147711
8876.97, 0.151785
8892.2, 0.155768
8907.48, 0.159573
8922.81, 0.163154
8938.2, 0.166198
8953.63, 0.168883
8969.13, 0.170808
8984.67, 0.172151
9000.27, 0.172957
9015.92, 0.173449
9031.63, 0.173180
9047.39, 0.172509
9063.21, 0.171479
9079.08, 0.170047
9095.01, 0.168212
9111.0, 0.166153
9127.04, 0.163646
9143.13, 0.161229
9159.28, 0.159304
9175.49, 0.158499
9191.76, 0.159125
9208.09, 0.161766
9224.47, 0.166153
9240.92, 0.172464
9257.42, 0.180342
9273.98, 0.188802
9290.6, 0.196993
9307.28, 0.205184
9324.02, 0.212928
9340.82, 0.219508
9357.68, 0.224835
9374.6, 0.229579
9391.58, 0.233429
9408.62, 0.236920
9425.73, 0.239874
9442.9, 0.242247
9460.13, 0.244708
9477.42, 0.247707
9494.78, 0.250706
9512.2, 0.253616
9529.69, 0.256078
9547.24, 0.258182
9564.86, 0.259390
9582.54, 0.259390
9600.28, 0.258002
9618.1, 0.255317
9635.97, 0.250572
9653.92, 0.244664
9671.93, 0.237950
9690.01, 0.230519
9708.16, 0.222552
9726.37, 0.214808
9744.65, 0.207064
9763.0, 0.200082
9781.43, 0.193860
9799.92, 0.188444
9818.48, 0.183878
9837.1, 0.180655
9855.8, 0.178015
9874.58, 0.175911
9893.42, 0.174299
9912.34, 0.173270
9931.33, 0.171882
9950.39, 0.169734
9969.52, 0.167496
9988.74, 0.164900
10008.0, 0.161542
10027.4, 0.157469
10046.8, 0.152948
10066.3, 0.148069
10085.9, 0.143235
10105.6, 0.138759
10125.3, 0.134775
10145.1, 0.131463
10165.0, 0.128867
10185.0, 0.126897
10205.0, 0.125555
10225.2, 0.124794
10245.4, 0.124257
10265.7, 0.123719
10286.0, 0.123182
10306.5, 0.122511
10327.0, 0.120855
10347.6, 0.118796
10368.3, 0.116379
10389.1, 0.113111
10409.9, 0.109262
10430.9, 0.105323
10451.9, 0.100891
10473.0, 0.0964150
10494.2, 0.0925210
10515.5, 0.0891190
10536.9, 0.0858520
10558.4, 0.0827630
10579.9, 0.0802120
10601.5, 0.0779740
10623.3, 0.0761830
10645.1, 0.0745720
10667.0, 0.0729600
10689.0, 0.0713040
10711.1, 0.0695590
10733.2, 0.0683950
10755.5, 0.0671420
10777.9, 0.0659330
10800.3, 0.0648140
10822.9, 0.0636950
10845.5, 0.0625760
10868.2, 0.0616360
10891.1, 0.0607410
10914.0, 0.0598900
10937.0, 0.0590400
10960.2, 0.0581450
10983.4, 0.0572050
11006.7, 0.0563540
11030.1, 0.0555040
11053.6, 0.0545190
11077.3, 0.0536680
11101.0, 0.0528180
11124.8, 0.0519680
11148.7, 0.0509830
11172.7, 0.0500880
11196.9, 0.0491480
11221.1, 0.0481630
11245.4, 0.0474470
11269.9, 0.0469540
11294.4, 0.0461040
11319.1, 0.0451640
11343.9, 0.0444480
11368.8, 0.0438210
11393.7, 0.0431940
11418.8, 0.0427020
11444.0, 0.0423440
11469.4, 0.0418070
11494.8, 0.0414040
11520.3, 0.0410460
11546.0, 0.0405530
11571.8, 0.0397480
11597.7, 0.0393450
11623.7, 0.0390760
11649.8, 0.0385840
11676.0, 0.0379130
11702.4, 0.0375100
11728.9, 0.0372410
11755.5, 0.0367490
11782.2, 0.0361670
11809.0, 0.0359430
11836.0, 0.0355400
11863.0, 0.0351370
11890.3, 0.0344660
11917.6, 0.0336160
11945.0, 0.0333020
11972.6, 0.0331230
12000.4, 0.0324960
12028.2, 0.0317360
12056.2, 0.0308850
12084.3, 0.0301240
12112.5, 0.0296770
12140.9, 0.0295420
12169.4, 0.0290050
12198.0, 0.0280200
12226.8, 0.0272150
12255.7, 0.0266330
12284.7, 0.0259610
12313.9, 0.0253350
12343.2, 0.0248870
12372.7, 0.0247080
12402.3, 0.0245740
12432.0, 0.0245290
12461.9, 0.0244400
12491.9, 0.0242160
12522.1, 0.0239920
12552.4, 0.0239920
12582.9, 0.0240810
12613.5, 0.0239920
12644.3, 0.0239020
12675.2, 0.0239470
12706.3, 0.0239920
12737.5, 0.0235890
12768.9, 0.0229620
12800.4, 0.0227390
12832.1, 0.0226040
12863.9, 0.0222460
12895.9, 0.0217990
12928.1, 0.0213510
12960.4, 0.0209930
12992.9, 0.0205450
13025.5, 0.0200080
13058.3, 0.0196050
13091.3, 0.0197840
13124.4, 0.0202320
13157.8, 0.0205900
13191.2, 0.0209480
13224.9, 0.0213510
13258.7, 0.0220220
13292.7, 0.0224250
13326.9, 0.0224250
13361.2, 0.0225150
13395.7, 0.0226040
13430.4, 0.0226490
13465.3, 0.0225600
13500.4, 0.0223360
13535.7, 0.0220220
13571.1, 0.0212610
13606.7, 0.0205900
13642.5, 0.0201420
13678.5, 0.0198290
13714.7, 0.0191130
13751.1, 0.0185310
13787.6, 0.0181730
13824.4, 0.0181280
13861.4, 0.0179490
13898.5, 0.0175910
13935.9, 0.0173230
13973.5, 0.0168300
14011.2, 0.0163380
14049.2, 0.0162480
14087.4, 0.0163380
14125.8, 0.0159800
14164.3, 0.0153980
14203.2, 0.0148610
14242.2, 0.0146370
14281.4, 0.0145030
14320.9, 0.0145470
14360.5, 0.0145470
14400.4, 0.0140550
14440.5, 0.0135630
14480.9, 0.0134730
14521.4, 0.0134730
14562.2, 0.0133840
14603.3, 0.0132040
14644.5, 0.0130700
14686.0, 0.0126230
14727.7, 0.0122650
14769.7, 0.0121300
14811.9, 0.0114140
14854.3, 0.0106530
14897.0, 0.0104290
14939.9, 0.0102500
14983.1, 0.00962400
15026.5, 0.00877300
15070.2, 0.00801200
15114.2, 0.00756500
15158.3, 0.00743000
15202.8, 0.00698300
15247.5, 0.00644600
15292.5, 0.00599800
15337.7, 0.00537100
15383.2, 0.00501300
15429.0, 0.00478900
15475.1, 0.00443100
15521.4, 0.00429700
15568.0, 0.00474500
15614.9, 0.00546100
15662.1, 0.00599800
15709.6, 0.00680400
15757.3, 0.00832600
15805.4, 0.00998200
15853.7, 0.0119510
15902.3, 0.0139210
15951.2, 0.0162480
16000.5, 0.0189790
16050.0, 0.0218880
16099.8, 0.0250210
16150.0, 0.0278860
16200.5, 0.0309300
16251.3, 0.0337500
16302.4, 0.0366150
16353.8, 0.0407330
16405.5, 0.0449850
16457.6, 0.0499530
16510.0, 0.0559070
16562.8, 0.0620390
16615.9, 0.0687530
16669.3, 0.0772580
16723.1, 0.0860310
16777.2, 0.0942670
16831.7, 0.102010
16886.5, 0.109083
16941.7, 0.114812
16997.2, 0.118796
17053.1, 0.121705
17109.4, 0.123675
17166.1, 0.124928
17223.1, 0.126495
17280.5, 0.129001
17338.3, 0.132672
17396.5, 0.138625
17455.1, 0.144757
17514.0, 0.151113
17573.4, 0.158096
17633.2, 0.165168
17693.4, 0.170718
17754.0, 0.174926
17815.0, 0.179223
17876.4, 0.182446
17938.3, 0.184818
18000.5, 0.187459
18063.3, 0.188668
18126.4, 0.189205
18190.0, 0.189697
18254.1, 0.189876
18318.6, 0.190010
18383.5, 0.188175
18449.0, 0.185624
18514.9, 0.181998
18581.2, 0.177970
18648.0, 0.174344
18715.4, 0.169958
18783.2, 0.165168
18851.5, 0.160065
18920.3, 0.152546
18989.6, 0.144712
19059.4, 0.139878
19129.7, 0.133656
19200.6, 0.127793
19272.0, 0.123496
19343.9, 0.120183
19416.3, 0.117453
19489.3, 0.115170
19562.8, 0.113693
19637.0, 0.114275
19711.6, 0.115125
19786.8, 0.115976
19862.6, 0.116692
19939.0, 0.119646
20016.0, 0.124033
20093.6, 0.128240
20171.8, 0.132314
20250.6, 0.138446
20330.0, 0.146010
20410.0, 0.152769
20490.7, 0.159618
20572.0, 0.165302
20654.0, 0.168391
20736.6, 0.169241
20819.9, 0.168659
20903.8, 0.164273
20988.5, 0.156395
21073.8, 0.149412
21159.8, 0.143280
21246.5, 0.136163
21334.0, 0.130702
21422.1, 0.125555
21511.0, 0.120094
21600.7, 0.115081
21691.0, 0.110425
21782.1, 0.103846
21874.0, 0.0991010
21966.7, 0.0971760
22060.2, 0.0973100
22154.5, 0.0974450
22249.6, 0.0998620
22345.5, 0.104472
22442.2, 0.109664
22539.8, 0.113469
22638.2, 0.115752
22737.5, 0.116289
22837.7, 0.115394
22938.7, 0.113022
23040.7, 0.110694
23143.5, 0.108366
23247.3, 0.106665
23352.1, 0.104427
23457.7, 0.102727
23564.4, 0.101966
23672.0, 0.101652
23780.5, 0.0997720
23890.1, 0.0961910
24000.7, 0.0951620
24112.3, 0.0961910
24225.0, 0.0948930
24338.7, 0.0941320
24453.5, 0.0923420
24569.4, 0.0909540
24686.4, 0.0901930
24804.5, 0.0879110
