Database of Origin,USGS Spectral Database
Sample Description,See USGS database for additional info
Date Added,2017-07-03 05:43:58.621211

Data ID,USGS_alu20          
Sample ID,alunite_res3.1507
Mineral Name,alunite
Material Class,Sulfate

Wavelength
1299.94, 0.517160
1300.26, 0.519260
1300.59, 0.531370
1300.92, 0.531160
1301.24, 0.530880
1301.57, 0.524230
1301.9, 0.525420
1302.22, 0.527170
1302.55, 0.532210
1302.88, 0.529550
1303.21, 0.528360
1303.53, 0.524930
1303.86, 0.529480
1304.19, 0.527380
1304.52, 0.531020
1304.85, 0.533540
1305.17, 0.534590
1305.5, 0.527940
1305.83, 0.527380
1306.16, 0.527030
1306.49, 0.531160
1306.82, 0.530670
1307.15, 0.535570
1307.48, 0.535500
1307.81, 0.536900
1308.14, 0.538860
1308.47, 0.542570
1308.8, 0.542290
1309.13, 0.543900
1309.46, 0.538860
1309.79, 0.542360
1310.12, 0.543130
1310.45, 0.542780
1310.79, 0.542780
1311.12, 0.547680
1311.45, 0.540750
1311.78, 0.540330
1312.11, 0.538440
1312.44, 0.538440
1312.78, 0.539210
1313.11, 0.547610
1313.44, 0.546000
1313.77, 0.545580
1314.11, 0.543270
1314.44, 0.545300
1314.77, 0.542570
1315.11, 0.544320
1315.44, 0.543480
1315.78, 0.545300
1316.11, 0.548310
1316.44, 0.549710
1316.78, 0.547750
1317.11, 0.551880
1317.45, 0.549920
1317.78, 0.556990
1318.12, 0.552300
1318.45, 0.549430
1318.79, 0.546280
1319.12, 0.547400
1319.46, 0.547120
1319.8, 0.550060
1320.13, 0.543760
1320.47, 0.544110
1320.8, 0.546420
1321.14, 0.556640
1321.48, 0.551040
1321.81, 0.549150
1322.15, 0.544880
1322.49, 0.539490
1322.83, 0.543970
1323.16, 0.557340
1323.5, 0.561190
1323.84, 0.561820
1324.18, 0.552510
1324.52, 0.554050
1324.85, 0.557130
1325.19, 0.565600
1325.53, 0.564830
1325.87, 0.557270
1326.21, 0.550900
1326.55, 0.557690
1326.89, 0.560140
1327.23, 0.566090
1327.57, 0.540470
1332.69, 0.536130
1333.03, 0.539140
1333.37, 0.557410
1333.72, 0.558530
1334.06, 0.556430
1334.4, 0.550200
1334.75, 0.546840
1335.09, 0.550620
1335.43, 0.553560
1335.78, 0.555380
1336.12, 0.560560
1336.47, 0.561820
1336.81, 0.562450
1337.16, 0.549290
1337.5, 0.550550
1337.85, 0.553490
1338.19, 0.557760
1338.54, 0.560560
1338.88, 0.563150
1339.23, 0.554400
1339.58, 0.554750
1339.92, 0.556290
1340.27, 0.559440
1340.61, 0.560630
1340.96, 0.560420
1341.31, 0.555590
1341.66, 0.560770
1342.0, 0.558600
1342.35, 0.559300
1342.7, 0.557690
1343.05, 0.558600
1343.39, 0.558740
1343.74, 0.561050
1344.09, 0.558040
1344.44, 0.562170
1344.79, 0.563710
1345.14, 0.562800
1345.48, 0.556290
1345.83, 0.557620
1346.18, 0.557970
1346.53, 0.563360
1346.88, 0.564200
1347.23, 0.561610
1347.58, 0.555940
1347.93, 0.558670
1348.28, 0.561190
1348.64, 0.563360
1348.99, 0.556990
1349.34, 0.561820
1349.69, 0.565180
1350.04, 0.565670
1350.39, 0.559160
1350.74, 0.561400
1351.1, 0.559440
1351.45, 0.562800
1351.8, 0.561610
1352.15, 0.561400
1352.51, 0.560350
1352.86, 0.566300
1353.21, 0.560770
1353.56, 0.565110
1353.92, 0.564480
1354.27, 0.565250
1354.63, 0.562520
1354.98, 0.567420
1355.33, 0.569240
1355.69, 0.568120
1356.04, 0.563500
1356.4, 0.563290
1356.75, 0.560840
1357.11, 0.563850
1357.46, 0.565600
1357.82, 0.567210
1358.18, 0.565810
1358.53, 0.570430
1358.89, 0.564690
1359.24, 0.565530
1359.6, 0.564200
1359.96, 0.565250
1360.31, 0.563150
1360.67, 0.568540
1361.03, 0.565320
1361.39, 0.563850
1361.74, 0.565950
1362.1, 0.566300
1362.46, 0.564270
1362.82, 0.566790
1363.18, 0.566370
1363.53, 0.569660
1363.89, 0.569170
1364.25, 0.570220
1364.61, 0.564410
1364.97, 0.568960
1365.33, 0.569800
1365.69, 0.569800
1366.05, 0.568890
1366.41, 0.572880
1366.77, 0.570360
1367.13, 0.571060
1367.49, 0.571340
1367.85, 0.575190
1368.21, 0.570710
1368.57, 0.566090
1368.93, 0.562660
1369.3, 0.566720
1369.66, 0.568120
1370.02, 0.570290
1370.38, 0.570290
1370.74, 0.570920
1371.11, 0.569100
1371.47, 0.569310
1371.83, 0.567140
1372.19, 0.572390
1372.56, 0.573790
1372.92, 0.574700
1373.29, 0.569730
1373.65, 0.571550
1374.01, 0.570500
1374.38, 0.569450
1374.74, 0.569590
1375.11, 0.571130
1375.47, 0.567070
1375.84, 0.572320
1376.2, 0.570570
1376.57, 0.568190
1376.93, 0.565180
1377.3, 0.570290
1377.67, 0.571970
1378.03, 0.573650
1378.4, 0.568820
1378.76, 0.566020
1379.13, 0.565250
1379.5, 0.568400
1379.87, 0.567980
1380.23, 0.568190
1380.6, 0.568820
1380.97, 0.571410
1381.34, 0.565250
1381.7, 0.565810
1382.07, 0.566860
1382.44, 0.570220
1382.81, 0.569170
1383.18, 0.570640
1383.55, 0.568190
1383.92, 0.571200
1384.29, 0.571620
1384.66, 0.573860
1385.03, 0.571970
1385.4, 0.569030
1385.77, 0.566090
1386.14, 0.570920
1386.51, 0.572530
1386.88, 0.573720
1387.25, 0.572670
1387.62, 0.570640
1387.99, 0.566930
1388.36, 0.571620
1388.74, 0.569240
1389.11, 0.569800
1389.48, 0.566790
1389.85, 0.567350
1390.23, 0.566440
1390.6, 0.569660
1390.97, 0.568470
1391.35, 0.566580
1391.72, 0.566230
1392.09, 0.568890
1392.47, 0.567000
1392.84, 0.569030
1393.21, 0.568470
1393.59, 0.569310
1393.96, 0.565880
1394.34, 0.567630
1394.71, 0.564690
1395.09, 0.565740
1395.46, 0.565250
1395.84, 0.567840
1396.22, 0.567280
1396.59, 0.569870
1396.97, 0.566020
1397.35, 0.562870
1397.72, 0.560420
1398.1, 0.563850
1398.48, 0.563080
1398.85, 0.568050
1399.23, 0.567420
1399.61, 0.568610
1399.99, 0.564480
1400.37, 0.564830
1400.74, 0.566160
1401.12, 0.566930
1401.5, 0.564270
1401.88, 0.564410
1402.26, 0.564200
1402.64, 0.569800
1403.02, 0.567630
1403.4, 0.565600
1403.78, 0.564830
1404.16, 0.567350
1404.54, 0.564340
1404.92, 0.564130
1405.3, 0.564410
1405.68, 0.565390
1406.06, 0.559860
1406.44, 0.560000
1406.83, 0.559650
1407.21, 0.561470
1407.59, 0.561610
1407.97, 0.561260
1408.35, 0.560560
1408.74, 0.562520
1409.12, 0.561120
1409.5, 0.567140
1409.89, 0.566580
1410.27, 0.565460
1410.65, 0.560840
1411.04, 0.562240
1411.42, 0.560700
1411.81, 0.561260
1412.19, 0.560280
1412.58, 0.563360
1412.96, 0.561400
1413.35, 0.560630
1413.73, 0.557970
1414.12, 0.559930
1414.5, 0.558810
1414.89, 0.556290
1415.28, 0.555170
1415.66, 0.558530
1416.05, 0.557410
1416.44, 0.558250
1416.82, 0.557340
1417.21, 0.556360
1417.6, 0.555870
1417.98, 0.558460
1418.37, 0.555100
1418.76, 0.553980
1419.15, 0.552650
1419.54, 0.551950
1419.93, 0.550550
1420.32, 0.551670
1420.71, 0.550340
1421.09, 0.553280
1421.48, 0.552650
1421.88, 0.550970
1422.27, 0.545790
1422.66, 0.547750
1423.05, 0.546630
1423.44, 0.546210
1423.83, 0.544110
1424.22, 0.545510
1424.61, 0.545720
1425.0, 0.548170
1425.39, 0.546560
1425.78, 0.544880
1426.18, 0.543130
1426.57, 0.542780
1426.96, 0.537880
1427.36, 0.539280
1427.75, 0.537740
1428.14, 0.538650
1428.54, 0.534940
1428.93, 0.533330
1429.32, 0.528220
1429.72, 0.526190
1430.11, 0.521220
1430.51, 0.519120
1430.9, 0.514640
1431.3, 0.508830
1431.69, 0.500990
1432.09, 0.498190
1432.48, 0.493500
1432.88, 0.487480
1433.28, 0.479780
1433.67, 0.474810
1434.07, 0.466970
1434.46, 0.462700
1434.86, 0.458500
1435.26, 0.452060
1435.66, 0.443310
1436.05, 0.438690
1436.45, 0.433300
1436.85, 0.435680
1437.25, 0.443030
1437.65, 0.453390
1438.05, 0.461370
1438.44, 0.469420
1438.84, 0.472640
1439.24, 0.477400
1439.64, 0.481460
1440.04, 0.483280
1440.44, 0.480480
1440.84, 0.482720
1441.24, 0.482650
1441.65, 0.483420
1442.05, 0.482510
1442.45, 0.480620
1442.85, 0.478450
1443.25, 0.477960
1443.65, 0.475160
1444.05, 0.474110
1444.46, 0.473130
1444.86, 0.477260
1445.26, 0.480340
1445.67, 0.487690
1446.07, 0.494200
1446.47, 0.500780
1446.88, 0.502600
1447.28, 0.507150
1447.68, 0.510720
1448.09, 0.514080
1448.49, 0.515130
1448.9, 0.515900
1449.3, 0.514850
1449.71, 0.520380
1450.11, 0.525140
1450.52, 0.528780
1450.93, 0.529830
1451.33, 0.534170
1451.74, 0.535570
1452.14, 0.538510
1452.55, 0.538370
1452.96, 0.539280
1453.36, 0.540960
1453.77, 0.544950
1454.18, 0.541800
1454.59, 0.541800
1455.0, 0.542570
1455.41, 0.542710
1455.81, 0.542710
1456.22, 0.542850
1456.63, 0.540890
1457.04, 0.542080
1457.45, 0.543130
1457.86, 0.544460
1458.27, 0.542850
1458.68, 0.542990
1459.09, 0.540470
1459.5, 0.541030
1459.91, 0.541450
1460.32, 0.543410
1460.74, 0.542990
1461.15, 0.543900
1461.56, 0.543620
1461.97, 0.543130
1462.39, 0.541730
1462.8, 0.542150
1463.21, 0.537810
1463.62, 0.536130
1464.04, 0.536200
1464.45, 0.537880
1464.86, 0.535430
1465.28, 0.538020
1465.69, 0.539070
1466.11, 0.539490
1466.52, 0.538650
1466.94, 0.541310
1467.35, 0.538790
1467.77, 0.535850
1468.18, 0.533960
1468.6, 0.533470
1469.02, 0.530320
1469.43, 0.530320
1469.85, 0.529690
1470.27, 0.529620
1470.68, 0.527030
1471.1, 0.528150
1471.52, 0.526890
1471.94, 0.530530
1472.35, 0.527520
1472.77, 0.528360
1473.19, 0.531650
1473.61, 0.528010
1474.03, 0.529200
1474.45, 0.529760
1474.87, 0.523040
1475.29, 0.518630
1475.71, 0.518630
1476.13, 0.517860
1476.55, 0.515270
1476.97, 0.517790
1477.39, 0.519610
1477.81, 0.518350
1478.23, 0.523950
1478.65, 0.525280
1479.07, 0.515900
1479.5, 0.518070
1479.92, 0.524440
1480.34, 0.525140
1480.76, 0.519050
1481.19, 0.519540
1481.61, 0.528710
1482.03, 0.539280
1482.46, 0.539350
1482.88, 0.530600
1483.31, 0.519540
1483.73, 0.518140
1484.16, 0.520380
1484.58, 0.526190
1485.01, 0.525910
1485.43, 0.524370
1485.86, 0.521080
1486.28, 0.522970
1486.71, 0.521570
1487.14, 0.520240
1487.56, 0.521220
1487.99, 0.520380
1488.42, 0.512260
1488.84, 0.506940
1489.27, 0.501200
1489.7, 0.503230
1490.13, 0.497560
1490.56, 0.491050
1490.98, 0.487060
1491.41, 0.484610
1491.84, 0.479500
1492.27, 0.472010
1492.7, 0.465080
1493.13, 0.455980
1493.56, 0.444500
1493.99, 0.439390
1494.42, 0.432390
1494.85, 0.426650
1495.29, 0.421890
1495.72, 0.420000
1496.15, 0.420140
1496.58, 0.424410
1497.01, 0.425530
1497.44, 0.429940
1497.88, 0.437710
1498.31, 0.449540
1498.74, 0.458570
1499.18, 0.467950
1499.61, 0.478590
1500.04, 0.488040
1500.48, 0.495180
1500.91, 0.503720
1501.35, 0.510020
1501.78, 0.515830
1502.22, 0.519540
1502.65, 0.525000
1503.09, 0.529200
1503.53, 0.532770
1503.96, 0.535010
1504.4, 0.539070
1504.83, 0.541030
1505.27, 0.542640
1505.71, 0.542780
1506.15, 0.544810
1506.58, 0.546700
1507.02, 0.548100
1507.46, 0.547610
1507.9, 0.550900
1508.34, 0.551250
1508.78, 0.552580
1509.21, 0.554400
1509.66, 0.555940
1510.09, 0.553910
1510.53, 0.554750
1510.97, 0.553980
1511.42, 0.553910
1511.86, 0.552790
1512.3, 0.552860
1512.74, 0.551740
1513.18, 0.551740
1513.62, 0.550340
1514.06, 0.552370
1514.51, 0.551880
1514.95, 0.552370
1515.39, 0.551180
1515.83, 0.551810
1516.28, 0.552720
1516.72, 0.552650
1517.16, 0.550620
1517.61, 0.552930
1518.05, 0.554890
1518.5, 0.556780
1518.94, 0.556010
1519.39, 0.556850
1519.83, 0.556850
1520.28, 0.556640
1520.73, 0.556080
1521.17, 0.556080
1521.62, 0.556080
1522.07, 0.558530
1522.51, 0.558950
1522.96, 0.559930
1523.41, 0.561470
1523.85, 0.562940
1524.3, 0.560350
1524.75, 0.563010
1525.2, 0.564760
1525.65, 0.565460
1526.1, 0.565740
1526.55, 0.567420
1527.0, 0.567630
1527.45, 0.567770
1527.9, 0.566580
1528.35, 0.568750
1528.8, 0.570360
1529.25, 0.572250
1529.7, 0.572390
1530.15, 0.573650
1530.6, 0.572740
1531.05, 0.573020
1531.51, 0.573090
1531.96, 0.574420
1532.41, 0.574280
1532.87, 0.574840
1533.32, 0.574490
1533.77, 0.576660
1534.23, 0.577220
1534.68, 0.577640
1535.14, 0.575750
1535.59, 0.577010
1536.05, 0.579530
1536.5, 0.581490
1536.96, 0.581280
1537.41, 0.582820
1537.87, 0.581280
1538.32, 0.581840
1538.78, 0.582260
1539.24, 0.584010
1539.7, 0.583450
1540.15, 0.583030
1540.61, 0.582120
1541.07, 0.583310
1541.53, 0.582540
1541.98, 0.581840
1542.44, 0.581630
1542.9, 0.582890
1543.36, 0.583100
1543.82, 0.583590
1544.28, 0.582680
1544.74, 0.582330
1545.2, 0.581070
1545.66, 0.582260
1546.12, 0.584710
1546.59, 0.585620
1547.05, 0.584290
1547.51, 0.583590
1547.97, 0.582470
1548.43, 0.583100
1548.9, 0.581910
1549.36, 0.583030
1549.82, 0.583310
1550.29, 0.583940
1550.75, 0.583100
1551.21, 0.584220
1551.68, 0.583870
1552.14, 0.583940
1552.61, 0.583170
1553.07, 0.582960
1553.54, 0.581700
1554.0, 0.583100
1554.47, 0.582820
1554.93, 0.584010
1555.4, 0.583660
1555.87, 0.584780
1556.34, 0.584080
1556.8, 0.584430
1557.27, 0.584360
1557.74, 0.583520
1558.21, 0.583940
1558.68, 0.585270
1559.14, 0.583450
1559.61, 0.586180
1560.08, 0.587790
1560.55, 0.588630
1561.02, 0.587930
1561.49, 0.586740
1561.96, 0.586180
1562.43, 0.588630
1562.9, 0.588560
1563.38, 0.589610
1563.85, 0.587510
1564.32, 0.588140
1564.79, 0.587720
1565.26, 0.589050
1565.74, 0.588420
1566.21, 0.588490
1566.68, 0.587580
1567.16, 0.588000
1567.63, 0.588770
1568.1, 0.589680
1568.58, 0.589610
1569.05, 0.590030
1569.53, 0.589120
1570.0, 0.590100
1570.48, 0.590870
1570.96, 0.591360
1571.43, 0.590030
1571.91, 0.590870
1572.39, 0.589540
1572.86, 0.590590
1573.34, 0.590800
1573.82, 0.592200
1574.3, 0.591430
1574.77, 0.592690
1575.25, 0.592060
1575.73, 0.591710
1576.21, 0.590520
1576.69, 0.591990
1577.17, 0.592270
1577.65, 0.592480
1578.13, 0.593180
1578.61, 0.594300
1579.09, 0.591780
1579.57, 0.591080
1580.05, 0.590310
1580.54, 0.591710
1581.02, 0.591640
1581.5, 0.592410
1581.98, 0.592060
1582.47, 0.593110
1582.95, 0.592550
1583.43, 0.593740
1583.92, 0.594510
1584.4, 0.595490
1584.88, 0.593740
1585.37, 0.592760
1585.85, 0.592340
1586.34, 0.594440
1586.82, 0.594370
1587.31, 0.593600
1587.8, 0.592760
1588.28, 0.593670
1588.77, 0.592900
1589.26, 0.594160
1589.74, 0.594580
1590.23, 0.595000
1590.72, 0.594370
1591.21, 0.595700
1591.7, 0.595420
1592.19, 0.594860
1592.67, 0.593600
1593.16, 0.594370
1593.65, 0.593880
1594.14, 0.595350
1594.63, 0.594930
1595.12, 0.594370
1595.61, 0.593950
1596.11, 0.595140
1596.6, 0.595490
1597.09, 0.596470
1597.58, 0.596050
1598.08, 0.595070
1598.57, 0.595560
1599.06, 0.597030
1599.55, 0.597100
1600.05, 0.597660
1600.54, 0.596820
1601.04, 0.597030
1601.53, 0.596400
1602.03, 0.596750
1602.52, 0.596050
1603.02, 0.596960
1603.51, 0.596960
1604.01, 0.597100
1604.5, 0.595910
1605.0, 0.596330
1605.5, 0.596330
1606.0, 0.597240
1606.49, 0.596330
1606.99, 0.596680
1607.49, 0.597800
1607.99, 0.598430
1608.49, 0.597380
1608.99, 0.597870
1609.49, 0.597030
1609.99, 0.597450
1610.49, 0.597450
1610.99, 0.597940
1611.49, 0.596890
1611.99, 0.597730
1612.49, 0.598290
1612.99, 0.597730
1613.49, 0.596540
1614.0, 0.597660
1614.5, 0.597730
1615.0, 0.598430
1615.51, 0.598780
1616.01, 0.599830
1616.51, 0.599060
1617.02, 0.599900
1617.52, 0.598570
1618.03, 0.599270
1618.53, 0.599760
1619.04, 0.599200
1619.54, 0.597730
1620.05, 0.598920
1620.55, 0.598080
1621.06, 0.598080
1621.57, 0.597660
1622.08, 0.598640
1622.58, 0.599130
1623.09, 0.600040
1623.6, 0.599760
1624.11, 0.600810
1624.62, 0.600390
1625.13, 0.600110
1625.64, 0.599550
1626.15, 0.599900
1626.66, 0.599480
1627.17, 0.601860
1627.68, 0.602490
1628.19, 0.601790
1628.7, 0.600110
1629.21, 0.601370
1629.72, 0.600110
1630.24, 0.599480
1630.75, 0.598780
1631.26, 0.600320
1631.78, 0.600880
1632.29, 0.600950
1632.8, 0.600040
1633.32, 0.600810
1633.83, 0.600600
1634.35, 0.600950
1634.86, 0.600530
1635.38, 0.600530
1635.9, 0.600040
1636.41, 0.600180
1636.93, 0.601090
1637.45, 0.601440
1637.96, 0.600180
1638.48, 0.600250
1639.0, 0.599410
1639.52, 0.599900
1640.04, 0.600950
1640.56, 0.601860
1641.08, 0.600460
1641.59, 0.600110
1642.11, 0.599690
1642.63, 0.600040
1643.16, 0.600390
1643.68, 0.601650
1644.2, 0.600530
1644.72, 0.599830
1645.24, 0.599480
1645.76, 0.600110
1646.29, 0.599690
1646.81, 0.600880
1647.33, 0.600390
1647.86, 0.600950
1648.38, 0.600740
1648.9, 0.601020
1649.43, 0.600880
1649.95, 0.601580
1650.48, 0.599760
1651.0, 0.599830
1651.53, 0.599830
1652.06, 0.601860
1652.58, 0.602560
1653.11, 0.602490
1653.64, 0.600880
1654.17, 0.600810
1654.69, 0.600460
1655.22, 0.599760
1655.75, 0.599550
1656.28, 0.599340
1656.81, 0.598080
1657.34, 0.599130
1657.87, 0.599900
1658.4, 0.601020
1658.93, 0.600460
1659.46, 0.600530
1659.99, 0.599970
1660.52, 0.599200
1661.05, 0.599270
1661.59, 0.600390
1662.12, 0.600110
1662.65, 0.599340
1663.19, 0.598850
1663.72, 0.598710
1664.26, 0.598640
1664.79, 0.600600
1665.32, 0.600390
1665.86, 0.599270
1666.39, 0.598920
1666.93, 0.600320
1667.47, 0.599480
1668.0, 0.599830
1668.54, 0.599130
1669.08, 0.598990
1669.61, 0.598990
1670.15, 0.599830
1670.69, 0.598360
1671.23, 0.598570
1671.77, 0.598570
1672.31, 0.598780
1672.85, 0.598710
1673.39, 0.598500
1673.93, 0.599340
1674.47, 0.600250
1675.01, 0.598640
1675.55, 0.597870
1676.09, 0.597380
1676.64, 0.597730
1677.18, 0.598150
1677.72, 0.598710
1678.26, 0.597590
1678.81, 0.597660
1679.35, 0.597380
1679.89, 0.597590
1680.44, 0.597660
1680.98, 0.598710
1681.53, 0.598290
1682.07, 0.598850
1682.62, 0.598150
1683.17, 0.597660
1683.71, 0.597520
1684.26, 0.597100
1684.81, 0.596260
1685.36, 0.597310
1685.9, 0.596960
1686.45, 0.597310
1687.0, 0.597660
1687.55, 0.598010
1688.1, 0.596470
1688.65, 0.596260
1689.2, 0.596400
1689.75, 0.597240
1690.3, 0.596540
1690.85, 0.596680
1691.41, 0.596120
1691.96, 0.596330
1692.51, 0.595420
1693.06, 0.595840
1693.61, 0.595840
1694.17, 0.595980
1694.72, 0.595700
1695.28, 0.596330
1695.83, 0.596190
1696.39, 0.595840
1696.94, 0.594650
1697.5, 0.594370
1698.05, 0.593810
1698.61, 0.594230
1699.17, 0.594090
1699.72, 0.594650
1700.28, 0.594230
1700.84, 0.594440
1701.4, 0.593320
1701.95, 0.593810
1702.51, 0.593250
1703.07, 0.594650
1703.63, 0.594230
1704.19, 0.593320
1704.75, 0.591990
1705.31, 0.592060
1705.88, 0.592410
1706.44, 0.593460
1707.0, 0.592480
1707.56, 0.592130
1708.12, 0.591850
1708.69, 0.591430
1709.25, 0.590030
1709.81, 0.590100
1710.38, 0.589610
1710.94, 0.588980
1711.51, 0.588000
1712.07, 0.587930
1712.64, 0.587510
1713.2, 0.588280
1713.77, 0.587440
1714.34, 0.586740
1714.9, 0.586950
1715.47, 0.586950
1716.04, 0.585760
1716.61, 0.585060
1717.18, 0.583590
1717.74, 0.582680
1718.31, 0.582120
1718.88, 0.581910
1719.45, 0.581560
1720.02, 0.581420
1720.59, 0.580300
1721.17, 0.579880
1721.74, 0.577850
1722.31, 0.577780
1722.88, 0.577360
1723.45, 0.576730
1724.03, 0.575540
1724.6, 0.574210
1725.18, 0.572880
1725.75, 0.572740
1726.33, 0.572180
1726.9, 0.571270
1727.48, 0.569170
1728.05, 0.568260
1728.63, 0.567420
1729.2, 0.566230
1729.78, 0.563990
1730.36, 0.563850
1730.94, 0.563640
1731.51, 0.562450
1732.09, 0.560350
1732.67, 0.559300
1733.25, 0.558180
1733.83, 0.557410
1734.41, 0.555800
1734.99, 0.555100
1735.57, 0.554260
1736.15, 0.553210
1736.73, 0.551880
1737.32, 0.551110
1737.9, 0.550130
1738.48, 0.549010
1739.07, 0.547400
1739.65, 0.547260
1740.23, 0.546560
1740.82, 0.545510
1741.4, 0.544040
1741.99, 0.543410
1742.57, 0.542080
1743.16, 0.540890
1743.74, 0.539140
1744.33, 0.538230
1744.92, 0.537530
1745.51, 0.536200
1746.09, 0.534520
1746.68, 0.532770
1747.27, 0.530950
1747.86, 0.530040
1748.45, 0.529200
1749.04, 0.529410
1749.63, 0.528360
1750.22, 0.527450
1750.81, 0.526330
1751.4, 0.526400
1751.99, 0.525630
1752.59, 0.524860
1753.18, 0.523740
1753.77, 0.522830
1754.37, 0.521360
1754.96, 0.521150
1755.56, 0.520450
1756.15, 0.520030
1756.74, 0.519750
1757.34, 0.519680
1757.94, 0.519820
1758.53, 0.520100
1759.13, 0.519400
1759.73, 0.520030
1760.32, 0.520450
1760.92, 0.520520
1761.52, 0.520800
1762.12, 0.520030
1762.72, 0.518980
1763.32, 0.519050
1763.92, 0.518350
1764.52, 0.518840
1765.12, 0.518910
1765.72, 0.518000
1766.32, 0.517160
1766.92, 0.516530
1767.53, 0.516460
1768.13, 0.516600
1768.73, 0.516320
1769.34, 0.517160
1769.94, 0.518070
1770.55, 0.519820
1771.15, 0.520310
1771.76, 0.521780
1772.36, 0.523320
1772.97, 0.525910
1773.57, 0.527590
1774.18, 0.528990
1774.79, 0.529690
1775.4, 0.531160
1776.0, 0.533120
1776.61, 0.533680
1777.22, 0.534520
1777.83, 0.535920
1778.44, 0.537250
1779.05, 0.539000
1779.66, 0.540190
1780.27, 0.541450
1780.88, 0.542570
1781.5, 0.544530
1782.11, 0.546140
1782.72, 0.549080
1783.33, 0.550620
1783.95, 0.551950
1784.56, 0.553630
1785.18, 0.555730
1785.79, 0.556430
1786.41, 0.557130
1787.02, 0.558530
1787.64, 0.560070
1788.26, 0.560840
1788.87, 0.563010
1789.49, 0.564760
1790.11, 0.565950
1790.73, 0.567350
1791.35, 0.568820
1791.96, 0.569870
1792.58, 0.572040
1793.21, 0.574070
1793.83, 0.576450
1794.45, 0.578130
1795.07, 0.579670
1795.69, 0.580370
1796.31, 0.582260
1796.93, 0.582750
1797.56, 0.582750
1798.18, 0.583660
1798.8, 0.583940
1799.43, 0.584010
1800.05, 0.584710
1800.68, 0.584640
1801.3, 0.585830
1801.93, 0.586320
1802.56, 0.586390
1803.18, 0.586530
1803.81, 0.587300
1804.44, 0.587300
1805.07, 0.587860
1805.7, 0.587580
1806.33, 0.588490
1806.95, 0.589330
1807.58, 0.589400
1808.22, 0.589680
1808.85, 0.589680
1809.48, 0.588490
1810.11, 0.589120
1810.74, 0.589610
1811.38, 0.589960
1812.01, 0.590170
1812.64, 0.591290
1813.28, 0.591150
1813.91, 0.591150
1814.55, 0.590380
1815.18, 0.591150
1815.82, 0.591290
1816.45, 0.591990
1817.09, 0.592270
1817.73, 0.591710
1818.36, 0.591080
1819.0, 0.591850
1819.64, 0.590590
1820.28, 0.590170
1820.92, 0.590380
1821.56, 0.590730
1822.2, 0.590940
1822.84, 0.591080
1823.48, 0.590800
1824.12, 0.591570
1824.76, 0.591220
1825.41, 0.590520
1826.05, 0.589890
1826.69, 0.590870
1827.34, 0.591290
1827.98, 0.590800
1828.63, 0.589750
1829.27, 0.590310
1829.92, 0.590520
1830.56, 0.590730
1831.21, 0.590100
1831.86, 0.590030
1832.5, 0.589750
1833.15, 0.589960
1833.8, 0.590100
1834.45, 0.589890
1835.1, 0.589610
1835.75, 0.589610
1836.4, 0.589120
1837.05, 0.589260
1837.7, 0.589260
1838.35, 0.589750
1839.01, 0.588980
1839.66, 0.588560
1840.31, 0.588350
1840.96, 0.588840
1841.62, 0.588000
1842.27, 0.588140
1842.93, 0.588490
1843.58, 0.588630
1844.24, 0.587790
1844.9, 0.587300
1845.55, 0.586600
1846.21, 0.586810
1846.87, 0.585830
1847.53, 0.586390
1848.18, 0.586320
1848.84, 0.586600
1849.5, 0.586670
1850.16, 0.586530
1850.82, 0.586180
1851.48, 0.586180
1852.14, 0.586040
1852.81, 0.586390
1853.47, 0.585970
1854.13, 0.585690
1854.8, 0.585200
1855.46, 0.584640
1856.12, 0.583940
1856.79, 0.584290
1857.45, 0.584080
1858.12, 0.584080
1858.79, 0.583170
1859.45, 0.582680
1860.12, 0.582120
1860.79, 0.581980
1861.46, 0.581700
1862.12, 0.582330
1862.79, 0.582120
1863.46, 0.581700
1864.13, 0.580790
1864.8, 0.580510
1865.48, 0.580370
1866.15, 0.580930
1866.82, 0.579460
1867.49, 0.578970
1868.16, 0.578690
1868.84, 0.578830
1869.51, 0.578270
1870.19, 0.577850
1870.86, 0.576940
1871.54, 0.577290
1872.21, 0.577080
1872.89, 0.576380
1873.56, 0.575050
1874.24, 0.574770
1874.92, 0.574770
1875.6, 0.574560
1876.28, 0.573790
1876.96, 0.573230
1877.64, 0.572320
1878.32, 0.572040
1879.0, 0.571900
1879.68, 0.571620
1880.36, 0.570430
1881.04, 0.570080
1881.73, 0.568750
1882.41, 0.567980
1883.09, 0.566790
1883.78, 0.565880
1884.46, 0.565810
1885.15, 0.565880
1885.83, 0.564970
1886.52, 0.564130
1887.21, 0.562800
1887.89, 0.561540
1888.58, 0.560140
1889.27, 0.559860
1889.96, 0.559090
1890.65, 0.558320
1891.34, 0.557270
1892.03, 0.556640
1892.72, 0.555870
1893.41, 0.554960
1894.1, 0.554190
1894.79, 0.553560
1895.49, 0.552300
1896.18, 0.550760
1896.87, 0.549360
1897.57, 0.548030
1898.26, 0.546490
1898.96, 0.545510
1899.65, 0.545230
1900.35, 0.545020
1901.05, 0.543620
1901.74, 0.542640
1902.44, 0.541450
1903.14, 0.541240
1903.84, 0.540330
1904.54, 0.539840
1905.24, 0.538790
1905.94, 0.537600
1906.64, 0.536690
1907.34, 0.536200
1908.04, 0.535150
1908.75, 0.534590
1909.45, 0.533750
1910.15, 0.533050
1910.86, 0.532980
1911.56, 0.532840
1912.27, 0.531300
1912.97, 0.530040
1913.68, 0.529620
1914.39, 0.529830
1915.09, 0.529900
1915.8, 0.529900
1916.51, 0.528920
1917.22, 0.528290
1917.93, 0.527520
1918.64, 0.527730
1919.35, 0.526960
1920.06, 0.526750
1920.77, 0.526750
1921.48, 0.527240
1922.19, 0.527030
1922.91, 0.526470
1923.62, 0.525700
1924.33, 0.526260
1925.05, 0.526610
1925.76, 0.526050
1926.48, 0.525350
1927.19, 0.525420
1927.91, 0.525350
1928.63, 0.526400
1929.35, 0.526680
1930.07, 0.526540
1930.78, 0.525980
1931.5, 0.525700
1932.22, 0.525700
1932.94, 0.526540
1933.66, 0.526680
1934.39, 0.526750
1935.11, 0.526260
1935.83, 0.526610
1936.55, 0.527030
1937.28, 0.526960
1938.0, 0.526400
1938.73, 0.526330
1939.45, 0.525980
1940.18, 0.526260
1940.9, 0.526330
1941.63, 0.526820
1942.36, 0.526750
1943.09, 0.527170
1943.81, 0.527590
1944.54, 0.527800
1945.27, 0.526960
1946.0, 0.526050
1946.73, 0.525700
1947.47, 0.526120
1948.2, 0.525980
1948.93, 0.525980
1949.66, 0.525560
1950.4, 0.525910
1951.13, 0.525210
1951.86, 0.525280
1952.6, 0.525070
1953.34, 0.525420
1954.07, 0.525210
1954.81, 0.525070
1955.55, 0.524860
1956.29, 0.524720
1957.02, 0.524790
1957.76, 0.524440
1958.5, 0.523950
1959.24, 0.523950
1959.98, 0.523320
1960.72, 0.523740
1961.47, 0.523810
1962.21, 0.523250
1962.95, 0.523180
1963.7, 0.523530
1964.44, 0.523250
1965.18, 0.523320
1965.93, 0.523250
1966.67, 0.523530
1967.42, 0.523390
1968.17, 0.523460
1968.92, 0.523600
1969.66, 0.524440
1970.41, 0.524230
1971.16, 0.524020
1971.91, 0.524020
1972.66, 0.524510
1973.41, 0.524160
1974.16, 0.524160
1974.92, 0.523950
1975.67, 0.524300
1976.42, 0.524160
1977.18, 0.523880
1977.93, 0.523880
1978.69, 0.523810
1979.44, 0.523180
1980.2, 0.523250
1980.95, 0.523600
1981.71, 0.523740
1982.47, 0.523180
1983.23, 0.523320
1983.99, 0.522690
1984.74, 0.522270
1985.51, 0.521360
1986.27, 0.520870
1987.03, 0.520590
1987.79, 0.520520
1988.55, 0.519750
1989.32, 0.519540
1990.08, 0.518630
1990.84, 0.518070
1991.61, 0.517160
1992.37, 0.516600
1993.14, 0.515620
1993.9, 0.515060
1994.67, 0.514360
1995.44, 0.513730
1996.21, 0.513100
1996.98, 0.512820
1997.75, 0.512540
1998.52, 0.512190
1999.29, 0.510720
2000.06, 0.510090
2000.83, 0.509950
2001.6, 0.509460
2002.38, 0.508410
2003.15, 0.507710
2003.93, 0.506800
2004.7, 0.506940
2005.48, 0.506870
2006.25, 0.506870
2007.03, 0.507010
2007.81, 0.507010
2008.58, 0.506730
2009.36, 0.506800
2010.14, 0.506800
2010.92, 0.506940
2011.7, 0.506450
2012.48, 0.506450
2013.26, 0.505890
2014.05, 0.505820
2014.83, 0.506030
2015.61, 0.506380
2016.4, 0.506170
2017.18, 0.506520
2017.97, 0.506310
2018.75, 0.506590
2019.54, 0.507080
2020.32, 0.507430
2021.11, 0.506940
2021.9, 0.506870
2022.69, 0.506520
2023.48, 0.506660
2024.27, 0.506450
2025.06, 0.506380
2025.85, 0.506310
2026.64, 0.506030
2027.44, 0.504980
2028.23, 0.504910
2029.02, 0.504350
2029.82, 0.503790
2030.61, 0.503580
2031.41, 0.503440
2032.2, 0.502880
2033.0, 0.502390
2033.8, 0.501410
2034.6, 0.500780
2035.4, 0.500290
2036.2, 0.499870
2037.0, 0.498890
2037.8, 0.498610
2038.6, 0.498120
2039.4, 0.497770
2040.2, 0.497140
2041.01, 0.496580
2041.81, 0.496090
2042.61, 0.495670
2043.42, 0.495250
2044.22, 0.495810
2045.03, 0.495180
2045.84, 0.494200
2046.65, 0.493780
2047.46, 0.494200
2048.26, 0.493920
2049.07, 0.494130
2049.88, 0.493780
2050.69, 0.493780
2051.51, 0.493010
2052.32, 0.492380
2053.13, 0.491890
2053.94, 0.491890
2054.76, 0.491680
2055.57, 0.491680
2056.39, 0.491400
2057.2, 0.491400
2058.02, 0.490840
2058.84, 0.490070
2059.66, 0.489790
2060.48, 0.490560
2061.29, 0.490420
2062.11, 0.489930
2062.94, 0.489720
2063.76, 0.489650
2064.58, 0.489230
2065.4, 0.488950
2066.22, 0.488250
2067.05, 0.488530
2067.87, 0.488390
2068.7, 0.488040
2069.52, 0.487550
2070.35, 0.487550
2071.18, 0.487550
2072.0, 0.487690
2072.83, 0.487690
2073.66, 0.487900
2074.49, 0.487550
2075.32, 0.487270
2076.15, 0.487060
2076.98, 0.487200
2077.82, 0.486990
2078.65, 0.486850
2079.48, 0.486570
2080.32, 0.486780
2081.15, 0.486010
2081.99, 0.485730
2082.83, 0.486220
2083.66, 0.485870
2084.5, 0.484890
2085.34, 0.484750
2086.18, 0.483980
2087.02, 0.483700
2087.86, 0.483700
2088.7, 0.483560
2089.54, 0.482720
2090.39, 0.482020
2091.23, 0.481460
2092.07, 0.481670
2092.92, 0.481390
2093.76, 0.480900
2094.61, 0.479850
2095.45, 0.479780
2096.3, 0.479920
2097.15, 0.479430
2098.0, 0.478800
2098.85, 0.478520
2099.7, 0.477820
2100.55, 0.478030
2101.4, 0.477470
2102.25, 0.477330
2103.1, 0.477120
2103.96, 0.476700
2104.81, 0.476210
2105.67, 0.475790
2106.52, 0.475160
2107.38, 0.475650
2108.24, 0.475160
2109.09, 0.474670
2109.95, 0.474320
2110.81, 0.474110
2111.67, 0.473830
2112.53, 0.473970
2113.39, 0.474320
2114.25, 0.474040
2115.12, 0.472640
2115.98, 0.472010
2116.84, 0.471240
2117.71, 0.470960
2118.58, 0.470190
2119.44, 0.468790
2120.31, 0.467600
2121.18, 0.466970
2122.04, 0.465290
2122.91, 0.463820
2123.78, 0.462560
2124.65, 0.461440
2125.52, 0.459760
2126.4, 0.458290
2127.27, 0.456260
2128.14, 0.454650
2129.02, 0.452620
2129.89, 0.450100
2130.77, 0.447650
2131.64, 0.445550
2132.52, 0.442470
2133.4, 0.439460
2134.27, 0.435960
2135.15, 0.433160
2136.03, 0.429730
2136.91, 0.426020
2137.79, 0.422520
2138.68, 0.419720
2139.56, 0.416640
2140.44, 0.413630
2141.33, 0.410690
2142.21, 0.408520
2143.1, 0.406490
2143.99, 0.404600
2144.87, 0.402430
2145.76, 0.399980
2146.65, 0.396830
2147.54, 0.394380
2148.43, 0.391440
2149.32, 0.388220
2150.21, 0.384860
2151.1, 0.381850
2151.99, 0.378910
2152.89, 0.376740
2153.78, 0.374500
2154.68, 0.372050
2155.57, 0.369250
2156.47, 0.366800
2157.37, 0.365050
2158.27, 0.363510
2159.16, 0.362040
2160.06, 0.361060
2160.96, 0.360010
2161.86, 0.359310
2162.77, 0.358540
2163.67, 0.358260
2164.57, 0.357770
2165.48, 0.357630
2166.38, 0.356720
2167.29, 0.355950
2168.2, 0.354620
2169.1, 0.353780
2170.01, 0.353150
2170.92, 0.352450
2171.83, 0.352240
2172.74, 0.352730
2173.65, 0.353780
2174.56, 0.355460
2175.47, 0.356790
2176.39, 0.358470
2177.3, 0.359730
2178.22, 0.360920
2179.13, 0.361830
2180.05, 0.363090
2180.96, 0.363930
2181.88, 0.365260
2182.8, 0.366940
2183.72, 0.369110
2184.64, 0.370790
2185.56, 0.371700
2186.48, 0.371840
2187.41, 0.371280
2188.33, 0.369880
2189.25, 0.369880
2190.18, 0.371770
2191.1, 0.376180
2192.03, 0.382060
2192.96, 0.388500
2193.89, 0.394590
2194.82, 0.399770
2195.74, 0.402850
2196.68, 0.405440
2197.61, 0.407120
2198.54, 0.408870
2199.47, 0.409990
2200.4, 0.411250
2201.34, 0.413280
2202.28, 0.417270
2203.21, 0.422030
2204.15, 0.427910
2205.08, 0.433300
2206.02, 0.438340
2206.96, 0.442680
2207.9, 0.445410
2208.84, 0.446390
2209.78, 0.446040
2210.73, 0.442680
2211.67, 0.437150
2212.61, 0.429590
2213.56, 0.420280
2214.5, 0.409640
2215.45, 0.399910
2216.4, 0.392420
2217.35, 0.389760
2218.3, 0.390600
2219.24, 0.393190
2220.2, 0.396970
2221.15, 0.402360
2222.1, 0.408310
2223.05, 0.415450
2224.0, 0.423710
2224.96, 0.433020
2225.91, 0.441000
2226.87, 0.447790
2227.83, 0.452620
2228.79, 0.455910
2229.74, 0.457870
2230.7, 0.459410
2231.66, 0.460040
2232.63, 0.460810
2233.59, 0.462140
2234.55, 0.465360
2235.51, 0.470330
2236.48, 0.477820
2237.44, 0.485590
2238.41, 0.492660
2239.38, 0.498540
2240.34, 0.503510
2241.31, 0.506520
2242.28, 0.509600
2243.25, 0.511560
2244.22, 0.513030
2245.19, 0.514290
2246.17, 0.515970
2247.14, 0.516670
2248.12, 0.517860
2249.09, 0.518420
2250.07, 0.519190
2251.04, 0.519680
2252.02, 0.520380
2253.0, 0.520870
2253.98, 0.521430
2254.96, 0.521570
2255.94, 0.521850
2256.92, 0.521990
2257.91, 0.522060
2258.89, 0.521500
2259.88, 0.521290
2260.86, 0.521150
2261.85, 0.521430
2262.83, 0.521220
2263.82, 0.521430
2264.81, 0.521220
2265.8, 0.521360
2266.79, 0.520310
2267.78, 0.520310
2268.78, 0.520380
2269.77, 0.519960
2270.76, 0.519050
2271.76, 0.518700
2272.75, 0.518000
2273.75, 0.517720
2274.75, 0.517300
2275.75, 0.516950
2276.75, 0.515620
2277.75, 0.514990
2278.75, 0.514500
2279.75, 0.514500
2280.75, 0.514010
2281.76, 0.513450
2282.76, 0.512120
2283.77, 0.511140
2284.77, 0.510160
2285.78, 0.509460
2286.79, 0.508620
2287.8, 0.508270
2288.81, 0.507430
2289.82, 0.506380
2290.83, 0.504910
2291.84, 0.503790
2292.86, 0.502110
2293.87, 0.501340
2294.89, 0.500220
2295.91, 0.499100
2296.92, 0.497630
2297.94, 0.495950
2298.96, 0.493850
2299.98, 0.492030
2301.0, 0.489510
2302.02, 0.487830
2303.04, 0.485590
2304.07, 0.482930
2305.09, 0.479920
2306.12, 0.476770
2307.15, 0.472570
2308.17, 0.468440
2309.2, 0.463750
2310.23, 0.459060
2311.26, 0.453670
2312.29, 0.448000
2313.32, 0.442260
2314.35, 0.436730
2315.39, 0.430570
2316.42, 0.424970
2317.46, 0.419580
2318.5, 0.414260
2319.53, 0.409850
2320.57, 0.406350
2321.61, 0.403410
2322.65, 0.402010
2323.69, 0.400750
2324.73, 0.400190
2325.78, 0.400470
2326.82, 0.401240
2327.86, 0.402220
2328.91, 0.403970
2329.96, 0.405440
2331.01, 0.407400
2332.05, 0.409710
2333.1, 0.411880
2334.15, 0.413560
2335.21, 0.415940
2336.26, 0.418600
2337.31, 0.421190
2338.36, 0.423710
2339.42, 0.426650
2340.48, 0.429380
2341.53, 0.432670
2342.59, 0.435750
2343.65, 0.438970
2344.71, 0.442050
2345.77, 0.444990
2346.83, 0.447860
2347.9, 0.451010
2348.96, 0.453880
2350.02, 0.456540
2351.09, 0.458430
2352.16, 0.460320
2353.23, 0.461790
2354.29, 0.463190
2355.36, 0.463960
2356.43, 0.465150
2357.51, 0.465920
2358.58, 0.466410
2359.65, 0.466340
2360.73, 0.466340
2361.8, 0.465990
2362.88, 0.465290
2363.96, 0.464100
2365.03, 0.463400
2366.11, 0.462210
2367.19, 0.460880
2368.27, 0.458780
2369.36, 0.456820
2370.44, 0.454860
2371.53, 0.452900
2372.61, 0.450310
2373.7, 0.447580
2374.78, 0.444220
2375.87, 0.441000
2376.96, 0.437500
2378.05, 0.433720
2379.14, 0.429380
2380.24, 0.425110
2381.33, 0.420350
2382.42, 0.415590
2383.52, 0.410550
2384.61, 0.405300
2385.71, 0.400050
2386.81, 0.395150
2387.91, 0.390040
2389.01, 0.385490
2390.11, 0.381220
2391.22, 0.377510
2392.32, 0.374290
2393.42, 0.371840
2394.53, 0.369670
2395.64, 0.368130
2396.74, 0.367010
2397.85, 0.366450
2398.96, 0.365750
2400.07, 0.365400
2401.18, 0.365190
2402.3, 0.365120
2403.41, 0.365190
2404.52, 0.364910
2405.64, 0.364420
2406.76, 0.364560
2407.88, 0.364280
2408.99, 0.363860
2410.11, 0.363580
2411.23, 0.363860
2412.36, 0.364350
2413.48, 0.365120
2414.6, 0.365750
2415.73, 0.366310
2416.85, 0.366660
2417.98, 0.367290
2419.11, 0.367290
2420.24, 0.367220
2421.37, 0.366520
2422.5, 0.365400
2423.64, 0.363650
2424.77, 0.361270
2425.9, 0.357840
2427.04, 0.353430
2428.18, 0.348320
2429.31, 0.343210
2430.45, 0.337610
2431.59, 0.332150
2432.73, 0.326550
2433.88, 0.320880
2435.02, 0.315140
2436.16, 0.310100
2437.31, 0.305410
2438.45, 0.301140
2439.6, 0.297430
2440.75, 0.294770
2441.9, 0.292180
2443.05, 0.289800
2444.2, 0.287630
2445.35, 0.285880
2446.51, 0.284340
2447.67, 0.283500
2448.82, 0.283430
2449.98, 0.283570
2451.14, 0.284340
2452.3, 0.286160
2453.46, 0.288330
2454.62, 0.290990
2455.78, 0.293720
2456.94, 0.296380
2458.11, 0.298760
2459.28, 0.300930
2460.44, 0.302470
2461.61, 0.303660
2462.78, 0.304640
2463.95, 0.305480
2465.12, 0.305900
2466.3, 0.306250
2467.47, 0.306110
2468.65, 0.305830
2469.82, 0.305620
2471.0, 0.305340
2472.18, 0.304710
2473.36, 0.304080
2474.54, 0.302960
2475.72, 0.301140
2476.9, 0.299110
2478.08, 0.297570
2479.27, 0.296100
2480.46, 0.294910
2481.64, 0.294210
2482.83, 0.294280
2484.02, 0.294560
2485.21, 0.295330
2486.4, 0.296660
2487.6, 0.297990
2488.79, 0.299180
2489.99, 0.300650
2491.18, 0.301770
2492.38, 0.302260
2493.58, 0.302190
2494.78, 0.301630
2495.98, 0.300090
2497.18, 0.297780
2498.39, 0.294910
2499.59, 0.292040
2500.8, 0.289240
2502.01, 0.286860
2503.21, 0.285810
2504.42, 0.286230
2505.63, 0.287560
2506.84, 0.289590
2508.06, 0.291340
2509.27, 0.293020
2510.49, 0.293650
2511.7, 0.293580
2512.92, 0.292180
2514.14, 0.289590
2515.36, 0.285600
2516.58, 0.280490
2517.8, 0.274190
2519.03, 0.267400
2520.25, 0.260540
2521.48, 0.254030
2522.7, 0.248080
2523.93, 0.243530
2525.16, 0.240590
2526.39, 0.239260
2527.62, 0.239330
2528.86, 0.241150
2530.09, 0.243810
2531.33, 0.247660
2532.56, 0.252140
2533.8, 0.257180
2535.04, 0.262290
2536.28, 0.268170
2537.52, 0.274540
2538.76, 0.280630
2540.01, 0.285880
2541.25, 0.290850
2542.5, 0.295190
2543.75, 0.298970
2544.99, 0.302260
2546.24, 0.304640
2547.49, 0.305970
2548.75, 0.307090
2550.0, 0.307440
2551.26, 0.307510
2552.51, 0.307440
2553.77, 0.307860
2555.03, 0.308140
2556.29, 0.308490
2557.55, 0.308700
2558.81, 0.308980
2560.08, 0.308770
2561.34, 0.308560
2562.61, 0.308630
2563.88, 0.308770
2565.14, 0.308350
2566.41, 0.307930
2567.68, 0.306740
2568.96, 0.305130
2570.23, 0.304360
2571.51, 0.304500
2572.78, 0.304010
2574.06, 0.304780
2575.34, 0.305760
2576.62, 0.306950
2577.9, 0.308910
2579.18, 0.310870
2580.47, 0.311920
2581.75, 0.312900
2583.04, 0.313110
2584.32, 0.313950
2585.61, 0.314720
2586.9, 0.314090
2588.2, 0.313460
2589.49, 0.312620
2590.78, 0.311010
2592.08, 0.308490
2593.37, 0.304010
2594.67, 0.300020
2595.97, 0.299880
2597.27, 0.300790
2598.57, 0.301350
2599.88, 0.302190
2601.18, 0.304010
2602.49, 0.307370
2603.79, 0.311290
2605.1, 0.315630
2606.41, 0.322000
2607.72, 0.328860
2609.03, 0.334390
2610.35, 0.339570
2611.66, 0.343980
2612.98, 0.347340
2614.3, 0.349790
2615.62, 0.350770
2616.94, 0.351470
2618.26, 0.353290
2619.58, 0.352870
2620.91, 0.353290
2622.23, 0.354970
2623.56, 0.355950
2624.89, 0.356440
2626.22, 0.356930
2627.55, 0.359100
2628.88, 0.360710
2630.21, 0.360990
2631.55, 0.363790
2632.89, 0.365890
2634.22, 0.367360
2635.56, 0.368970
2636.9, 0.370300
2638.25, 0.371070
2639.59, 0.371770
2640.93, 0.371840
2642.28, 0.371490
2643.63, 0.370930
2644.98, 0.369950
2646.33, 0.368830
2647.68, 0.368270
2649.03, 0.367290
2650.39, 0.366100
2651.74, 0.364490
2653.1, 0.363860
2654.46, 0.363510
2655.82, 0.363230
2657.18, 0.363510
2658.54, 0.363930
2659.9, 0.364770
2661.27, 0.364980
2662.64, 0.363930
2664.01, 0.360710
2665.38, 0.356860
2666.74, 0.353570
2668.12, 0.350350
2669.49, 0.344120
2670.87, 0.338170
2672.24, 0.333900
2673.62, 0.326970
2675.0, 0.318780
2676.38, 0.310520
2677.76, 0.303310
2679.15, 0.296730
2680.54, 0.292460
2681.92, 0.289730
2683.31, 0.288820
2684.7, 0.289800
2686.09, 0.291760
2687.48, 0.293370
2688.88, 0.294280
2690.27, 0.293790
2691.67, 0.291620
2693.07, 0.287560
2694.47, 0.283150
2695.87, 0.278530
2697.27, 0.273700
2698.67, 0.268800
2700.08, 0.263900
2701.49, 0.259280
2702.9, 0.255780
2704.31, 0.252490
2705.72, 0.249060
2707.13, 0.244930
2708.54, 0.240660
2709.96, 0.236530
2711.38, 0.233800
2712.8, 0.232890
2714.22, 0.231700
2715.64, 0.230650
2717.06, 0.229530
2718.49, 0.227360
2719.91, 0.224000
2721.34, 0.221620
2722.77, 0.219030
2724.2, 0.215390
2725.63, 0.213080
2727.07, 0.210630
2728.5, 0.207900
2729.94, 0.204890
2731.38, 0.201110
2732.82, 0.196630
2734.26, 0.191590
2735.7, 0.186760
2737.15, 0.181790
2738.59, 0.176120
2740.04, 0.171430
2741.49, 0.167720
2742.94, 0.164500
2744.39, 0.161280
2745.84, 0.158270
2747.3, 0.155050
2748.76, 0.151690
2750.21, 0.147980
2751.67, 0.143710
2753.14, 0.138880
2754.6, 0.133140
2756.06, 0.127680
2757.53, 0.122990
2759.0, 0.118090
2760.46, 0.113190
2761.94, 0.108430
2763.41, 0.104300
2764.88, 0.100730
2766.36, 0.0975100
2767.83, 0.0946400
2769.31, 0.0919800
2770.79, 0.0893200
2772.27, 0.0870100
2773.76, 0.0848400
2775.24, 0.0826700
2776.73, 0.0802200
2778.22, 0.0777000
2779.71, 0.0747600
2781.2, 0.0717500
2782.69, 0.0684600
2784.18, 0.0650300
2785.68, 0.0617400
2787.18, 0.0584500
2788.68, 0.0552300
2790.18, 0.0521500
2791.68, 0.0493500
2793.19, 0.0469000
2794.69, 0.0446600
2796.2, 0.0429800
2797.71, 0.0417900
2799.22, 0.0407400
2800.73, 0.0398300
2802.24, 0.0392700
2803.76, 0.0386400
2805.28, 0.0379400
2806.8, 0.0373100
2808.32, 0.0364000
2809.84, 0.0352800
2811.36, 0.0336700
2812.89, 0.0321300
2814.42, 0.0305200
2815.94, 0.0290500
2817.48, 0.0277200
2819.01, 0.0263200
2820.54, 0.0246400
2822.08, 0.0230300
2823.61, 0.0217700
2825.15, 0.0205800
2826.69, 0.0194600
2828.23, 0.0184800
2829.78, 0.0175000
2831.32, 0.0165200
2832.87, 0.0156800
2834.42, 0.0149100
2835.97, 0.0141400
2837.52, 0.0136500
2839.08, 0.0133700
2840.63, 0.0129500
2842.19, 0.0123200
2843.75, 0.0115500
2845.31, 0.0109900
2846.87, 0.0105700
2848.44, 0.0100100
2850.0, 0.00952000
2851.57, 0.00952000
2853.14, 0.0100800
2854.71, 0.0111300
2856.28, 0.0129500
2857.86, 0.0150500
2859.43, 0.0175000
2861.01, 0.0191800
2862.59, 0.0199500
2864.17, 0.0200200
2865.76, 0.0196700
2867.34, 0.0182700
2868.93, 0.0161700
2870.52, 0.0138600
2872.11, 0.0120400
2873.7, 0.0104300
2875.29, 0.00973000
2876.89, 0.00994000
2878.49, 0.0112700
2880.08, 0.0140700
2881.69, 0.0186900
2883.29, 0.0247100
2884.89, 0.0311500
2886.5, 0.0368200
2888.11, 0.0410900
2889.72, 0.0438900
2891.33, 0.0452900
2892.94, 0.0452900
2894.56, 0.0440300
2896.17, 0.0413700
2897.79, 0.0374500
2899.42, 0.0327600
2901.04, 0.0284900
2902.66, 0.0252000
2904.29, 0.0229600
2905.92, 0.0214200
2907.55, 0.0205100
2909.18, 0.0203700
2910.81, 0.0209300
2912.45, 0.0216300
2914.08, 0.0224000
2915.72, 0.0232400
2917.36, 0.0240800
2919.01, 0.0247100
2920.65, 0.0254800
2922.3, 0.0263900
2923.94, 0.0270200
2925.59, 0.0273700
2927.25, 0.0280700
2928.9, 0.0285600
2930.56, 0.0287700
2932.21, 0.0291200
2933.87, 0.0294700
2935.53, 0.0297500
2937.2, 0.0301000
2938.86, 0.0305200
2940.53, 0.0310100
2942.2, 0.0316400
2943.87, 0.0323400
2945.54, 0.0331100
2947.22, 0.0339500
2948.89, 0.0345800
2950.57, 0.0351400
2952.25, 0.0357000
2953.93, 0.0359800
2955.62, 0.0359800
2957.3, 0.0359800
2958.99, 0.0354900
2960.68, 0.0348600
2962.37, 0.0342300
2964.07, 0.0336000
2965.76, 0.0330400
2967.46, 0.0327600
2969.16, 0.0324800
2970.86, 0.0326200
2972.56, 0.0332500
2974.27, 0.0340200
2975.98, 0.0347200
2977.69, 0.0355600
2979.4, 0.0364000
2981.11, 0.0371700
2982.83, 0.0380100
2984.54, 0.0389200
2986.26, 0.0396900
2987.98, 0.0404600
2989.71, 0.0412300
2991.43, 0.0417900
2993.16, 0.0424200
2994.89, 0.0431200
2996.62, 0.0438200
2998.35, 0.0444500
3000.09, 0.0448700
3001.83, 0.0453600
3003.57, 0.0460600
3005.31, 0.0467600
3007.05, 0.0475300
3008.79, 0.0483000
3010.54, 0.0491400
3012.29, 0.0502600
3014.04, 0.0515900
3015.8, 0.0531300
3017.55, 0.0548100
3019.31, 0.0565600
3021.07, 0.0583100
3022.83, 0.0602700
3024.59, 0.0620200
3026.36, 0.0634200
3028.13, 0.0644000
3029.9, 0.0648200
3031.67, 0.0652400
3033.44, 0.0651700
3035.22, 0.0649600
3037.0, 0.0648900
3038.78, 0.0648200
3040.56, 0.0648900
3042.34, 0.0652400
3044.13, 0.0660800
3045.92, 0.0669200
3047.71, 0.0679000
3049.5, 0.0686700
3051.3, 0.0691600
3053.09, 0.0697900
3054.89, 0.0704900
3056.69, 0.0712600
3058.5, 0.0718900
3060.3, 0.0724500
3062.11, 0.0728700
3063.92, 0.0733600
3065.73, 0.0740600
3067.55, 0.0745500
3069.36, 0.0748300
3071.18, 0.0748300
3073.0, 0.0746900
3074.82, 0.0743400
3076.65, 0.0737800
3078.48, 0.0732900
3080.31, 0.0726600
3082.14, 0.0721000
3083.97, 0.0717500
3085.8, 0.0711900
3087.64, 0.0705600
3089.48, 0.0702100
3091.33, 0.0700700
3093.17, 0.0697900
3095.02, 0.0695800
3096.87, 0.0694400
3098.72, 0.0693700
3100.57, 0.0693000
3102.43, 0.0694400
3104.28, 0.0693700
3106.14, 0.0693000
3108.01, 0.0689500
3109.87, 0.0683200
3111.74, 0.0677600
3113.61, 0.0672000
3115.48, 0.0667100
3117.35, 0.0660800
3119.23, 0.0655200
3121.1, 0.0652400
3122.98, 0.0649600
3124.87, 0.0648200
3126.75, 0.0651000
3128.64, 0.0657300
3130.53, 0.0669200
3132.42, 0.0683900
3134.31, 0.0700700
3136.21, 0.0717500
3138.11, 0.0731500
3140.01, 0.0744800
3141.91, 0.0756000
3143.82, 0.0765100
3145.73, 0.0770700
3147.64, 0.0771400
3149.55, 0.0770000
3151.46, 0.0767200
3153.38, 0.0762300
3155.3, 0.0756700
3157.22, 0.0753900
3159.14, 0.0751800
3161.07, 0.0753900
3163.0, 0.0760200
3164.93, 0.0770000
3166.86, 0.0780500
3168.8, 0.0791000
3170.74, 0.0804300
3172.68, 0.0815500
3174.62, 0.0821800
3176.56, 0.0823900
3178.51, 0.0826000
3180.46, 0.0828100
3182.42, 0.0830900
3184.37, 0.0834400
3186.33, 0.0836500
3188.29, 0.0837200
3190.25, 0.0838600
3192.21, 0.0838600
3194.18, 0.0838600
3196.15, 0.0840000
3198.12, 0.0840700
3200.09, 0.0842100
3202.07, 0.0843500
3204.05, 0.0843500
3206.03, 0.0844900
3208.02, 0.0846300
3210.0, 0.0849800
3211.99, 0.0854700
3213.98, 0.0856800
3215.98, 0.0858900
3217.97, 0.0859600
3219.97, 0.0861000
3221.97, 0.0863100
3223.98, 0.0864500
3225.98, 0.0864500
3227.99, 0.0865900
3230.0, 0.0867300
3232.02, 0.0868000
3234.03, 0.0869400
3236.05, 0.0870800
3238.07, 0.0870800
3240.1, 0.0870800
3242.12, 0.0871500
3244.15, 0.0870800
3246.18, 0.0871500
3248.22, 0.0872900
3250.25, 0.0873600
3252.29, 0.0873600
3254.33, 0.0875000
3256.38, 0.0877100
3258.43, 0.0877800
3260.47, 0.0877100
3262.53, 0.0877100
3264.58, 0.0878500
3266.64, 0.0879900
3268.7, 0.0880600
3270.76, 0.0881300
3272.82, 0.0884100
3274.89, 0.0885500
3276.96, 0.0886200
3279.04, 0.0887600
3281.11, 0.0889000
3283.19, 0.0889700
3285.27, 0.0890400
3287.35, 0.0893900
3289.44, 0.0896700
3291.53, 0.0896000
3293.62, 0.0896000
3295.71, 0.0897400
3297.81, 0.0899500
3299.91, 0.0901600
3302.01, 0.0903000
3304.11, 0.0904400
3306.22, 0.0906500
3308.33, 0.0908600
3310.44, 0.0911400
3312.56, 0.0914900
3314.68, 0.0917700
3316.8, 0.0919800
3318.92, 0.0921900
3321.05, 0.0924700
3323.18, 0.0926100
3325.31, 0.0926800
3327.44, 0.0928200
3329.58, 0.0929600
3331.72, 0.0931000
3333.86, 0.0931700
3336.01, 0.0932400
3338.16, 0.0935200
3340.31, 0.0937300
3342.46, 0.0938700
3344.61, 0.0941500
3346.77, 0.0942200
3348.94, 0.0943600
3351.1, 0.0947800
3353.27, 0.0950600
3355.44, 0.0953400
3357.61, 0.0955500
3359.79, 0.0958300
3361.97, 0.0961100
3364.15, 0.0963900
3366.33, 0.0968100
3368.52, 0.0973000
3370.71, 0.0975800
3372.9, 0.0977200
3375.1, 0.0980000
3377.3, 0.0982100
3379.5, 0.0984900
3381.71, 0.0989100
3383.91, 0.0990500
3386.12, 0.0991200
3388.34, 0.0994000
3390.55, 0.0998200
3392.77, 0.100170
3394.99, 0.100380
3397.22, 0.100730
3399.45, 0.101220
3401.68, 0.101850
3403.91, 0.102480
3406.15, 0.102900
3408.39, 0.103390
3410.63, 0.104020
3412.87, 0.104790
3415.12, 0.105420
3417.37, 0.105840
3419.63, 0.106190
3421.88, 0.106750
3424.14, 0.107170
3426.41, 0.107590
3428.67, 0.108080
3430.94, 0.108640
3433.21, 0.109060
3435.49, 0.109480
3437.77, 0.110040
3440.05, 0.110320
3442.33, 0.110670
3444.62, 0.110950
3446.91, 0.111300
3449.2, 0.111720
3451.5, 0.112140
3453.8, 0.112420
3456.1, 0.112700
3458.41, 0.112980
3460.72, 0.113330
3463.03, 0.113750
3465.34, 0.114030
3467.66, 0.114240
3469.98, 0.114520
3472.31, 0.114940
3474.63, 0.115430
3476.96, 0.115710
3479.3, 0.116270
3481.64, 0.116830
3483.97, 0.117250
3486.32, 0.117600
3488.66, 0.118090
3491.01, 0.118720
3493.36, 0.119140
3495.72, 0.119490
3498.08, 0.119980
3500.44, 0.120610
3502.81, 0.121240
3505.18, 0.121660
3507.55, 0.122080
3509.92, 0.122710
3512.3, 0.123340
3514.68, 0.123970
3517.06, 0.124320
3519.45, 0.124740
3521.84, 0.125230
3524.24, 0.125580
3526.64, 0.126070
3529.04, 0.126630
3531.44, 0.127190
3533.85, 0.127610
3536.26, 0.128100
3538.67, 0.128520
3541.09, 0.128940
3543.51, 0.129360
3545.93, 0.129990
3548.36, 0.130550
3550.79, 0.131040
3553.22, 0.131460
3555.66, 0.131880
3558.1, 0.132370
3560.54, 0.132790
3562.99, 0.133280
3565.44, 0.134050
3567.9, 0.134680
3570.35, 0.135100
3572.81, 0.135520
3575.28, 0.136010
3577.75, 0.136570
3580.22, 0.137200
3582.69, 0.137620
3585.17, 0.138040
3587.65, 0.138670
3590.14, 0.139370
3592.62, 0.139930
3595.11, 0.140350
3597.61, 0.140910
3600.11, 0.141540
3602.61, 0.142100
3605.11, 0.142590
3607.62, 0.143080
3610.14, 0.143710
3612.65, 0.144340
3615.17, 0.144900
3617.69, 0.145390
3620.22, 0.145810
3622.75, 0.146370
3625.28, 0.147000
3627.82, 0.147420
3630.36, 0.147840
3632.9, 0.148330
3635.45, 0.148750
3638.0, 0.149310
3640.56, 0.149870
3643.12, 0.150360
3645.68, 0.150850
3648.24, 0.151200
3650.81, 0.151620
3653.39, 0.152040
3655.96, 0.152670
3658.54, 0.153160
3661.13, 0.153720
3663.71, 0.154280
3666.3, 0.154770
3668.9, 0.155050
3671.5, 0.155540
3674.1, 0.156030
3676.7, 0.156660
3679.31, 0.157150
3681.93, 0.157710
3684.54, 0.158130
3687.17, 0.158550
3689.79, 0.158900
3692.42, 0.159390
3695.05, 0.159880
3697.69, 0.160300
3700.32, 0.160650
3702.97, 0.161000
3705.61, 0.161420
3708.27, 0.161840
3710.92, 0.162330
3713.58, 0.162680
3716.24, 0.162960
3718.91, 0.163310
3721.58, 0.163590
3724.25, 0.163800
3726.93, 0.164080
3729.61, 0.164500
3732.29, 0.164780
3734.98, 0.165060
3737.67, 0.165270
3740.37, 0.165480
3743.07, 0.165760
3745.78, 0.165970
3748.49, 0.166110
3751.2, 0.166460
3753.91, 0.166670
3756.63, 0.166740
3759.36, 0.166880
3762.09, 0.167020
3764.82, 0.167300
3767.55, 0.167510
3770.29, 0.167720
3773.04, 0.167790
3775.78, 0.167860
3778.54, 0.167930
3781.29, 0.168140
3784.05, 0.168210
3786.82, 0.168210
3789.59, 0.168350
3792.36, 0.168420
3795.13, 0.168560
3797.92, 0.168560
3800.7, 0.168630
3803.49, 0.168630
3806.28, 0.168560
3809.08, 0.168420
3811.88, 0.168420
3814.68, 0.168490
3817.49, 0.168490
3820.31, 0.168420
3823.12, 0.168420
3825.94, 0.168420
3828.77, 0.168420
3831.6, 0.168210
3834.43, 0.168140
3837.27, 0.168070
3840.11, 0.168070
3842.96, 0.168000
3845.81, 0.167860
3848.67, 0.167650
3851.53, 0.167510
3854.39, 0.167440
3857.26, 0.167370
3860.13, 0.167300
3863.01, 0.167160
3865.89, 0.166880
3868.77, 0.166810
3871.66, 0.166740
3874.55, 0.166460
3877.45, 0.166180
3880.35, 0.165970
3883.26, 0.165690
3886.17, 0.165340
3889.09, 0.164850
3892.01, 0.164150
3894.93, 0.162820
3897.86, 0.160580
3900.79, 0.158060
3903.73, 0.157640
3906.67, 0.159740
3909.62, 0.161840
3912.57, 0.162960
3915.52, 0.163450
3918.48, 0.163590
3921.45, 0.163660
3924.42, 0.163520
3927.39, 0.163380
3930.37, 0.163170
3933.35, 0.163030
3936.34, 0.162890
3939.33, 0.162960
3942.32, 0.162820
3945.32, 0.162680
3948.33, 0.162610
3951.34, 0.162470
3954.35, 0.162330
3957.37, 0.162190
3960.39, 0.162050
3963.42, 0.161910
3966.45, 0.161700
3969.49, 0.161560
3972.53, 0.161420
3975.58, 0.161350
3978.63, 0.161140
3981.68, 0.161000
3984.75, 0.160930
3987.81, 0.160720
3990.88, 0.160650
3993.95, 0.160580
3997.03, 0.160510
4000.12, 0.160440
4003.21, 0.160370
4006.3, 0.160370
4009.4, 0.160300
4012.5, 0.160160
4015.61, 0.160020
4018.72, 0.160020
4021.84, 0.159950
4024.96, 0.159880
4028.09, 0.159950
4031.22, 0.159810
4034.36, 0.159670
4037.5, 0.159600
4040.65, 0.159530
4043.8, 0.159460
4046.96, 0.159320
4050.12, 0.159180
4053.29, 0.158970
4056.46, 0.158900
4059.64, 0.158760
4062.82, 0.158620
4066.0, 0.158410
4069.19, 0.158200
4072.39, 0.158060
4075.59, 0.157850
4078.8, 0.157710
4082.01, 0.157430
4085.23, 0.157220
4088.45, 0.157150
4091.68, 0.156940
4094.91, 0.156660
4098.15, 0.156520
4101.39, 0.156310
4104.63, 0.156240
4107.89, 0.156100
4111.14, 0.155820
4114.41, 0.155610
4117.67, 0.155470
4120.95, 0.155260
4124.23, 0.155120
4127.51, 0.155050
4130.8, 0.154910
4134.09, 0.154770
4137.39, 0.154630
4140.7, 0.154350
4144.01, 0.154140
4147.32, 0.154070
4150.64, 0.154000
4153.97, 0.153860
4157.3, 0.153790
4160.64, 0.153650
4163.98, 0.153510
4167.33, 0.153370
4170.68, 0.153230
4174.04, 0.153020
4177.4, 0.152880
4180.77, 0.152740
4184.14, 0.152320
4187.52, 0.151900
4190.91, 0.151410
4194.3, 0.150780
4197.69, 0.150080
4201.1, 0.149240
4204.5, 0.148120
4207.92, 0.146860
4211.34, 0.145390
4214.76, 0.143710
4218.19, 0.141960
4221.62, 0.140070
4225.06, 0.138110
4228.51, 0.136150
4231.96, 0.134190
4235.42, 0.132230
4238.88, 0.130270
4242.35, 0.128450
4245.83, 0.126630
4249.31, 0.124810
4252.79, 0.123060
4256.28, 0.121100
4259.78, 0.119070
4263.29, 0.116970
4266.79, 0.114730
4270.31, 0.112420
4273.83, 0.110040
4277.35, 0.107380
4280.89, 0.104510
4284.42, 0.101710
4287.97, 0.0991900
4291.52, 0.0968800
4295.07, 0.0949900
4298.63, 0.0933800
4302.2, 0.0921900
4305.78, 0.0910700
4309.35, 0.0900900
4312.94, 0.0891100
4316.53, 0.0882700
4320.13, 0.0871500
4323.73, 0.0861700
4327.34, 0.0854700
4330.96, 0.0849800
4334.58, 0.0850500
4338.21, 0.0858200
4341.84, 0.0870800
4345.48, 0.0884800
4349.12, 0.0898800
4352.77, 0.0912800
4356.43, 0.0924000
4360.1, 0.0929600
4363.76, 0.0927500
4367.44, 0.0921200
4371.12, 0.0910000
4374.81, 0.0896000
4378.51, 0.0880600
4382.21, 0.0865900
4385.92, 0.0853300
4389.63, 0.0842100
4393.35, 0.0833000
4397.08, 0.0826700
4400.81, 0.0820400
4404.55, 0.0816200
4408.29, 0.0814100
4412.04, 0.0814800
4415.8, 0.0815500
4419.57, 0.0815500
4423.34, 0.0813400
4427.12, 0.0809200
4430.9, 0.0801500
4434.69, 0.0791700
4438.49, 0.0781900
4442.29, 0.0774200
4446.1, 0.0768600
4449.92, 0.0765100
4453.74, 0.0761600
4457.57, 0.0756000
4461.41, 0.0746200
4465.25, 0.0732900
4469.1, 0.0718900
4472.95, 0.0707000
4476.82, 0.0699300
4480.69, 0.0697900
4484.56, 0.0700000
4488.44, 0.0702800
4492.33, 0.0704200
4496.23, 0.0705600
4500.13, 0.0703500
4504.04, 0.0701400
4507.96, 0.0698600
4511.88, 0.0695800
4515.81, 0.0690900
4519.75, 0.0686000
4523.69, 0.0683900
4527.65, 0.0686000
4531.6, 0.0690200
4535.57, 0.0697900
4539.54, 0.0708400
4543.52, 0.0718200
4547.5, 0.0725900
4551.5, 0.0730100
4555.5, 0.0732900
4559.5, 0.0734300
4563.52, 0.0735000
4567.54, 0.0737100
4571.56, 0.0742000
4575.6, 0.0749700
4579.64, 0.0760200
4583.69, 0.0768600
4587.75, 0.0775600
4591.81, 0.0777000
4595.88, 0.0771400
4599.96, 0.0761600
4604.04, 0.0749700
4608.14, 0.0741300
4612.24, 0.0746200
4616.34, 0.0765800
4620.46, 0.0794500
4624.58, 0.0826000
4628.71, 0.0855400
4632.84, 0.0877100
4636.99, 0.0889700
4641.14, 0.0893900
4645.3, 0.0891100
4649.47, 0.0880600
4653.64, 0.0865900
4657.82, 0.0848400
4662.01, 0.0830900
4666.21, 0.0817600
4670.41, 0.0811300
4674.62, 0.0816200
4678.84, 0.0835800
4683.07, 0.0870100
4687.3, 0.0914900
4691.54, 0.0968100
4695.79, 0.102340
4700.05, 0.107590
4704.31, 0.112350
4708.59, 0.116340
4712.87, 0.119560
4717.15, 0.122430
4721.45, 0.125510
4725.76, 0.129010
4730.07, 0.133140
4734.39, 0.138180
4738.72, 0.144270
4743.05, 0.151130
4747.39, 0.158270
4751.75, 0.165060
4756.1, 0.170940
4760.47, 0.175840
4764.85, 0.179830
4769.23, 0.182840
4773.62, 0.185220
4778.02, 0.186900
4782.43, 0.187950
4786.85, 0.188370
4791.27, 0.188020
4795.7, 0.186900
4800.14, 0.184800
4804.59, 0.182000
4809.05, 0.179130
4813.51, 0.177800
4817.99, 0.178990
4822.47, 0.182420
4826.96, 0.187110
4831.46, 0.191660
4835.96, 0.195720
4840.48, 0.198870
4845.0, 0.201390
4849.54, 0.203210
4854.08, 0.204540
4858.63, 0.205100
4863.18, 0.205170
4867.75, 0.204750
4872.33, 0.204330
4876.91, 0.204610
4881.5, 0.205870
4886.1, 0.207550
4890.71, 0.208950
4895.33, 0.210070
4899.96, 0.211120
4904.59, 0.211820
4909.24, 0.212380
4913.89, 0.212800
4918.55, 0.213220
4923.22, 0.213500
4927.9, 0.213710
4932.59, 0.213990
4937.29, 0.214130
4942.0, 0.214200
4946.71, 0.214340
4951.44, 0.214410
4956.17, 0.214340
4960.91, 0.214340
4965.67, 0.214340
4970.43, 0.214270
4975.2, 0.214270
4979.98, 0.214130
4984.76, 0.213920
4989.56, 0.213850
4994.37, 0.213710
4999.18, 0.213500
5004.01, 0.213360
5008.84, 0.213150
5013.69, 0.213010
5018.54, 0.212730
5023.4, 0.212520
5028.28, 0.212310
5033.16, 0.212030
5038.05, 0.211890
5042.95, 0.211750
5047.86, 0.211470
5052.78, 0.211190
5057.71, 0.210840
5062.65, 0.210560
5067.6, 0.210280
5072.56, 0.209930
5077.53, 0.209650
5082.5, 0.209300
5087.49, 0.209020
5092.49, 0.208810
5097.5, 0.208460
5102.51, 0.208110
5107.54, 0.207690
5112.58, 0.207410
5117.62, 0.207200
5122.68, 0.206990
5127.75, 0.206430
5132.82, 0.206080
5137.91, 0.205730
5143.01, 0.205170
5148.12, 0.204610
5153.23, 0.204330
5158.36, 0.204050
5163.5, 0.203770
5168.65, 0.203350
5173.81, 0.203000
5178.98, 0.202720
5184.15, 0.202440
5189.34, 0.202020
5194.54, 0.201600
5199.75, 0.201110
5204.98, 0.200760
5210.21, 0.200200
5215.45, 0.199710
5220.7, 0.199570
5225.96, 0.199360
5231.23, 0.198940
5236.52, 0.198520
5241.81, 0.198100
5247.12, 0.197750
5252.44, 0.197400
5257.76, 0.196840
5263.1, 0.196420
5268.45, 0.196000
5273.81, 0.195580
5279.18, 0.195300
5284.56, 0.194810
5289.95, 0.194110
5295.36, 0.193550
5300.77, 0.192990
