Database of Origin,USGS Spectral Database
Sample Description,See USGS database for additional info
Date Added,2017-02-22 02:49:13.222319

Data ID,USGS_top29          
Sample ID,topaz_8.22249
Mineral Name,topaz

Wavelength
221.1, 0.148140
229.1, 0.308859
236.1, 0.376297
242.1, 0.415197
248.1, 0.431624
253.6, 0.460027
258.6, 0.485991
263.6, 0.523175
268.6, 0.559186
273.1, 0.591333
277.1, 0.632492
281.1, 0.663671
285.1, 0.690576
289.1, 0.707836
293.1, 0.727272
297.1, 0.736668
301.1, 0.748186
305.1, 0.758072
309.1, 0.761172
313.1, 0.770416
317.1, 0.776121
321.1, 0.783099
325.1, 0.788671
329.1, 0.797591
333.1, 0.797710
337.1, 0.812795
341.1, 0.812280
345.1, 0.822214
349.1, 0.828882
353.1, 0.831245
357.1, 0.832865
360.6, 0.838717
363.6, 0.837489
366.6, 0.840521
369.6, 0.843308
372.6, 0.845076
375.6, 0.846301
378.6, 0.847442
381.1, 0.844615
383.1, 0.847942
385.1, 0.847461
387.1, 0.850163
389.1, 0.847122
391.1, 0.848368
393.1, 0.852342
395.1, 0.850420
397.1, 0.849875
399.1, 0.849149
401.1, 0.847829
403.1, 0.851561
405.1, 0.849595
407.1, 0.850258
409.1, 0.850340
411.1, 0.852929
412.8, 0.851820
415.8, 0.856459
418.8, 0.854310
421.8, 0.858410
424.8, 0.857618
427.8, 0.858746
430.8, 0.860565
433.8, 0.859727
436.8, 0.861652
439.8, 0.863569
442.8, 0.864868
445.8, 0.866621
448.8, 0.867797
451.3, 0.865793
453.3, 0.868356
455.3, 0.869756
457.3, 0.869784
459.3, 0.869701
461.3, 0.870918
463.3, 0.874338
465.3, 0.874968
467.3, 0.875523
469.3, 0.873485
471.3, 0.874813
473.3, 0.876188
475.3, 0.876049
477.3, 0.877985
479.3, 0.877366
481.3, 0.878012
483.3, 0.879389
485.3, 0.881470
487.3, 0.880730
489.3, 0.879461
491.3, 0.882837
493.3, 0.882889
495.3, 0.882858
497.3, 0.884126
499.3, 0.882681
501.3, 0.882594
503.3, 0.884043
505.3, 0.886112
507.3, 0.886141
509.3, 0.887473
511.3, 0.886009
513.3, 0.888008
515.3, 0.889363
517.3, 0.887237
519.3, 0.888584
521.3, 0.886539
523.3, 0.889188
525.3, 0.889930
527.3, 0.888415
529.3, 0.891145
531.3, 0.889726
533.3, 0.889720
535.3, 0.890327
537.3, 0.891666
539.3, 0.892288
541.3, 0.889501
543.3, 0.891555
545.3, 0.893571
547.3, 0.892951
549.3, 0.896389
551.3, 0.898618
553.3, 0.897891
555.3, 0.898697
557.3, 0.897275
559.3, 0.898034
561.3, 0.898049
563.3, 0.900159
565.3, 0.898021
567.3, 0.900799
569.3, 0.902142
571.3, 0.903551
573.3, 0.902138
575.3, 0.904262
577.3, 0.905550
579.3, 0.906193
581.3, 0.905417
583.3, 0.908120
585.3, 0.908197
587.3, 0.908840
589.3, 0.913838
591.3, 0.913862
593.3, 0.917361
595.3, 0.920337
597.3, 0.919634
599.3, 0.921770
601.1, 0.924614
602.7, 0.926807
604.3, 0.926861
605.9, 0.926942
607.5, 0.929061
609.1, 0.927636
610.7, 0.930549
612.3, 0.931260
613.9, 0.931967
615.5, 0.932679
617.1, 0.933388
618.7, 0.934166
620.3, 0.935629
621.9, 0.934866
623.5, 0.936339
625.1, 0.937771
626.7, 0.939184
628.3, 0.939170
629.9, 0.939829
631.7, 0.939878
633.7, 0.940589
635.7, 0.939171
637.7, 0.942674
639.7, 0.943336
641.7, 0.944047
643.7, 0.944801
645.7, 0.941908
647.7, 0.944693
649.7, 0.945413
651.7, 0.947546
653.7, 0.948257
655.7, 0.950347
657.7, 0.949587
659.7, 0.950306
661.7, 0.952476
663.7, 0.948876
665.7, 0.952399
667.7, 0.953113
670.2, 0.953058
673.2, 0.954419
676.2, 0.956533
679.2, 0.953702
682.2, 0.958600
685.2, 0.957191
688.2, 0.957115
691.2, 0.960583
694.2, 0.958397
697.2, 0.964075
700.2, 0.961851
702.0, 0.956889
704.0, 0.957605
706.0, 0.959645
708.0, 0.958925
710.0, 0.961739
712.0, 0.959537
714.0, 0.956612
716.0, 0.957938
718.0, 0.959387
720.0, 0.960072
722.0, 0.959313
724.0, 0.960688
726.0, 0.959927
728.0, 0.961275
730.0, 0.962725
732.0, 0.959769
734.0, 0.959734
736.0, 0.958199
738.0, 0.960351
740.0, 0.961049
742.0, 0.962436
744.0, 0.960935
746.0, 0.962327
748.0, 0.960130
750.5, 0.963766
753.5, 0.959313
756.5, 0.959236
759.5, 0.961410
762.5, 0.959863
765.5, 0.960516
768.5, 0.961962
771.5, 0.961891
774.5, 0.959628
777.5, 0.960964
781.0, 0.960927
785.0, 0.962338
789.0, 0.962265
793.0, 0.962941
797.0, 0.962082
801.5, 0.961220
806.5, 0.958884
811.5, 0.962497
816.5, 0.963113
822.0, 0.962172
828.0, 0.961184
835.0, 0.960724
843.0, 0.960457
851.0, 0.953876
859.0, 0.961533
871.0, 0.963732
883.0, 0.962919
894.0, 0.955111
904.0, 0.958136
914.0, 0.959677
924.0, 0.953391
933.0, 0.954856
941.0, 0.960325
949.0, 0.959490
957.0, 0.958643
964.0, 0.957898
970.0, 0.960210
976.0, 0.961780
982.0, 0.960148
988.0, 0.968009
994.0, 0.964071
1000.0, 0.961651
1006.0, 0.967968
1012.0, 0.966374
1018.0, 0.967151
1023.5, 0.967136
1028.5, 0.968704
1033.5, 0.967890
1038.5, 0.967880
1043.5, 0.973420
1048.5, 0.969449
1053.5, 0.971003
1058.5, 0.971797
1063.5, 0.971786
1068.5, 0.970205
1073.5, 0.972565
1078.5, 0.968577
1083.5, 0.974899
1088.5, 0.973303
1093.5, 0.971727
1098.5, 0.974120
1103.5, 0.974921
1108.5, 0.975751
1113.5, 0.972579
1118.5, 0.976562
1123.5, 0.973388
1128.5, 0.974976
1133.5, 0.975791
1138.5, 0.975765
1143.5, 0.978112
1148.5, 0.976469
1153.5, 0.977999
1158.5, 0.975502
1163.5, 0.976990
1168.5, 0.979272
1173.5, 0.978343
1178.5, 0.978224
1183.5, 0.974931
1188.5, 0.974811
1193.5, 0.976300
1198.5, 0.979414
1203.5, 0.974571
1208.5, 0.973756
1213.5, 0.981733
1218.5, 0.978545
1223.5, 0.976967
1228.5, 0.977782
1233.5, 0.979404
1238.5, 0.981002
1243.5, 0.985014
1248.5, 0.984191
1253.5, 0.980951
1258.5, 0.974484
1263.5, 0.980807
1268.5, 0.980727
1273.5, 0.979819
1278.5, 0.980513
1283.5, 0.981201
1288.5, 0.986677
1293.5, 0.977717
1298.5, 0.980813
1303.5, 0.979083
1308.5, 0.984562
1313.5, 0.982038
1318.5, 0.980318
1323.5, 0.980215
1328.5, 0.976893
1333.5, 0.982418
1338.5, 0.970261
1343.5, 0.967001
1348.5, 0.971731
1353.5, 0.970066
1358.5, 0.977253
1363.5, 0.972393
1368.5, 0.969152
1373.5, 0.970731
1378.5, 0.972338
1383.5, 0.967525
1388.5, 0.966729
1393.5, 0.963562
1398.5, 0.937068
1403.5, 0.833321
1408.5, 0.890480
1413.5, 0.951746
1418.5, 0.968786
1423.5, 0.972123
1428.5, 0.973033
1433.5, 0.976380
1438.5, 0.974877
1443.5, 0.979793
1448.5, 0.976640
1453.5, 0.976700
1458.5, 0.976721
1463.5, 0.976743
1468.5, 0.977558
1473.5, 0.980793
1478.5, 0.981583
1483.5, 0.981560
1488.5, 0.976692
1493.5, 0.983127
1498.5, 0.979871
1503.5, 0.978301
1508.5, 0.981490
1513.5, 0.979065
1518.5, 0.979868
1523.5, 0.981476
1528.5, 0.981481
1534.0, 0.979856
1540.0, 0.980665
1546.0, 0.987145
1552.0, 0.983937
1558.0, 0.986374
1564.0, 0.986400
1570.5, 0.983991
1577.5, 0.980766
1584.5, 0.984804
1591.5, 0.982354
1598.5, 0.980695
1605.5, 0.982216
1612.5, 0.982923
1619.5, 0.988466
1626.5, 0.986707
1633.5, 0.982495
1640.5, 0.982330
1647.5, 0.982970
1654.5, 0.982797
1661.5, 0.981820
1668.5, 0.980043
1676.0, 0.980701
1684.0, 0.959493
1692.0, 0.969898
1700.0, 0.972201
1708.0, 0.973757
1716.0, 0.980148
1724.0, 0.977686
1732.0, 0.970425
1740.0, 0.969637
1748.0, 0.968913
1756.0, 0.964995
1764.0, 0.972403
1772.0, 0.979832
1780.0, 0.977453
1788.0, 0.975765
1796.0, 0.984487
1805.0, 0.983218
1815.0, 0.980844
1825.0, 0.981577
1835.0, 0.980658
1845.0, 0.974185
1855.0, 0.974403
1865.0, 0.973256
1875.0, 0.970637
1885.0, 0.966508
1895.0, 0.966423
1905.0, 0.963845
1915.0, 0.962015
1925.0, 0.955251
1935.0, 0.954201
1945.0, 0.956487
1955.0, 0.959685
1965.0, 0.960470
1975.0, 0.963533
1985.0, 0.961302
1995.0, 0.960087
2005.0, 0.962122
2015.0, 0.959989
2025.0, 0.960895
2035.0, 0.961816
2045.0, 0.953972
2055.0, 0.943553
2065.0, 0.908223
2075.0, 0.777160
2085.0, 0.609453
2095.0, 0.813560
2105.0, 0.908442
2115.0, 0.927555
2125.0, 0.928335
2135.0, 0.908086
2145.0, 0.884895
2155.0, 0.872655
2165.0, 0.899689
2175.0, 0.897790
2185.0, 0.911214
2195.0, 0.915617
2205.0, 0.893097
2215.0, 0.900623
2225.0, 0.924805
2235.0, 0.932973
2245.0, 0.925281
2255.0, 0.914354
2265.0, 0.888941
2275.0, 0.930448
2285.0, 0.923192
2295.0, 0.921656
2305.0, 0.912710
2315.0, 0.874439
2325.0, 0.887395
2335.0, 0.876678
2345.0, 0.872959
2355.0, 0.873004
2365.0, 0.861694
2375.0, 0.851659
2386.0, 0.862932
2400.0, 0.852870
2418.0, 0.836807
2440.0, 0.829415
2466.0, 0.791507
2496.0, 0.738952
2528.0, 0.655028
2560.0, 0.641505
2592.0, 0.715614
2624.0, 0.719643
2656.0, 0.769912
2688.0, 0.745685
2720.0, 0.599567
2752.0, 0.204453
2784.0, 0.521302
2816.0, 0.514579
2848.0, 0.590103
2880.0, 0.580391
2912.0, 0.504593
2944.0, 0.544559
2976.0, 0.510477
