Database of Origin,USGS Spectral Database
Sample Description,See USGS database for additional info
Date Added,2017-02-22 02:48:43.717124

Data ID,USGS_wit01          
Sample ID,witherite_hs273.23583
Mineral Name,witherite

Wavelength
253.6, 0.489055
258.6, 0.483939
263.6, 0.479642
268.6, 0.483065
273.1, 0.487325
277.1, 0.485638
281.1, 0.488931
285.1, 0.491314
289.1, 0.493869
293.1, 0.494826
297.1, 0.501867
301.1, 0.510058
305.1, 0.517837
309.1, 0.529311
313.1, 0.537520
317.1, 0.547667
321.1, 0.553900
325.1, 0.564385
329.1, 0.566749
333.1, 0.573053
337.1, 0.582327
341.1, 0.589030
345.1, 0.588033
349.1, 0.595420
353.1, 0.603854
357.1, 0.610378
360.6, 0.615810
363.6, 0.622285
366.6, 0.627958
369.6, 0.632221
372.6, 0.637062
375.6, 0.643189
378.6, 0.645598
381.1, 0.652867
383.1, 0.654772
385.1, 0.655542
387.1, 0.660491
389.1, 0.663128
391.1, 0.665260
393.1, 0.669142
395.1, 0.672751
397.1, 0.676548
399.1, 0.680472
401.1, 0.683434
403.1, 0.687088
405.1, 0.689547
407.1, 0.692266
409.1, 0.695580
411.1, 0.697211
412.8, 0.698500
415.8, 0.704482
418.8, 0.706357
421.8, 0.710769
424.8, 0.714257
427.8, 0.717378
430.8, 0.721395
433.8, 0.723946
436.8, 0.727237
439.8, 0.729916
442.8, 0.731678
445.8, 0.733749
448.8, 0.737334
451.3, 0.741599
453.3, 0.744286
455.3, 0.744988
457.3, 0.745793
459.3, 0.748960
461.3, 0.750480
463.3, 0.752458
465.3, 0.754789
467.3, 0.756792
469.3, 0.758052
471.3, 0.760696
473.3, 0.761373
475.3, 0.761101
477.3, 0.764002
479.3, 0.765786
481.3, 0.766100
483.3, 0.769580
485.3, 0.771310
487.3, 0.772103
489.3, 0.773410
491.3, 0.774258
493.3, 0.776915
495.3, 0.775548
497.3, 0.777654
499.3, 0.780793
501.3, 0.780927
503.3, 0.782896
505.3, 0.782988
507.3, 0.785401
509.3, 0.786233
511.3, 0.788220
513.3, 0.789657
515.3, 0.790986
517.3, 0.794601
519.3, 0.794491
521.3, 0.797151
523.3, 0.797178
525.3, 0.798474
527.3, 0.800493
529.3, 0.801877
531.3, 0.802651
533.3, 0.802482
535.3, 0.806006
537.3, 0.804355
539.3, 0.806249
541.3, 0.809920
543.3, 0.809324
545.3, 0.809254
547.3, 0.812130
549.3, 0.810316
551.3, 0.811553
553.3, 0.813195
555.3, 0.813080
557.3, 0.813933
559.3, 0.815414
561.3, 0.813892
563.3, 0.815243
565.3, 0.815995
567.3, 0.816699
569.3, 0.817227
571.3, 0.817849
573.3, 0.817883
575.3, 0.818657
577.3, 0.818499
579.3, 0.819590
581.3, 0.821729
583.3, 0.822886
585.3, 0.823051
587.3, 0.823627
589.3, 0.823185
591.3, 0.825112
593.3, 0.822642
595.3, 0.823955
597.3, 0.825430
599.3, 0.824236
601.1, 0.825757
602.7, 0.825577
604.3, 0.825674
605.9, 0.823811
607.5, 0.823800
609.1, 0.827235
610.7, 0.826691
612.3, 0.828823
613.9, 0.827392
615.5, 0.827485
617.1, 0.828112
618.7, 0.828217
620.3, 0.827590
621.9, 0.827649
623.5, 0.829132
625.1, 0.829085
626.7, 0.829820
628.3, 0.830526
629.9, 0.827705
631.7, 0.830645
633.7, 0.830529
635.7, 0.831941
637.7, 0.829785
639.7, 0.831264
641.7, 0.832671
643.7, 0.832601
645.7, 0.834125
647.7, 0.834571
649.7, 0.835273
651.7, 0.833855
653.7, 0.833144
655.7, 0.837332
657.7, 0.836697
659.7, 0.836981
661.7, 0.836414
663.7, 0.836426
665.7, 0.836547
667.7, 0.837030
670.2, 0.838384
673.2, 0.836942
676.2, 0.840424
679.2, 0.840938
682.2, 0.841574
685.2, 0.840979
688.2, 0.840895
691.2, 0.842839
694.2, 0.843974
697.2, 0.843159
700.2, 0.842955
702.0, 0.843133
704.0, 0.842885
706.0, 0.845553
708.0, 0.845601
710.0, 0.844650
712.0, 0.845949
714.0, 0.844395
716.0, 0.845815
718.0, 0.844113
720.0, 0.847000
722.0, 0.846800
724.0, 0.847305
726.0, 0.847100
728.0, 0.846266
730.0, 0.846921
732.0, 0.850354
734.0, 0.847430
736.0, 0.848746
738.0, 0.848544
740.0, 0.847710
742.0, 0.849757
744.0, 0.849648
746.0, 0.848169
748.0, 0.848922
750.5, 0.849490
753.5, 0.850025
756.5, 0.848285
759.5, 0.851139
762.5, 0.851554
765.5, 0.851309
768.5, 0.851246
771.5, 0.851915
774.5, 0.851680
777.5, 0.852249
781.0, 0.850784
785.0, 0.850407
789.0, 0.851728
793.0, 0.852860
797.0, 0.852669
801.5, 0.853265
806.5, 0.852889
811.5, 0.853346
816.5, 0.853773
822.0, 0.853635
828.0, 0.854710
835.0, 0.854421
843.0, 0.856703
851.0, 0.860952
859.0, 0.859742
871.0, 0.860898
883.0, 0.858541
894.0, 0.860187
904.0, 0.863784
914.0, 0.859603
924.0, 0.862126
933.0, 0.862055
941.0, 0.862151
949.0, 0.864317
957.0, 0.860397
964.0, 0.864484
970.0, 0.865378
976.0, 0.863734
982.0, 0.866452
988.0, 0.864681
994.0, 0.865042
1000.0, 0.864694
1006.0, 0.864173
1012.0, 0.863825
1018.0, 0.863847
1023.5, 0.864605
1028.5, 0.862341
1033.5, 0.868528
1038.5, 0.863947
1043.5, 0.866840
1048.5, 0.869174
1053.5, 0.866412
1058.5, 0.868035
1063.5, 0.867486
1068.5, 0.866982
1073.5, 0.865704
1078.5, 0.869011
1083.5, 0.866278
1088.5, 0.870138
1093.5, 0.869831
1098.5, 0.867133
1103.5, 0.867315
1108.5, 0.869575
1113.5, 0.868810
1118.5, 0.868870
1123.5, 0.867533
1128.5, 0.868985
1133.5, 0.869116
1138.5, 0.869563
1143.5, 0.868458
1148.5, 0.868016
1153.5, 0.869209
1158.5, 0.868599
1163.5, 0.867600
1168.5, 0.870031
1173.5, 0.869143
1178.5, 0.869831
1183.5, 0.868962
1188.5, 0.871464
1193.5, 0.870285
1198.5, 0.870745
1203.5, 0.868254
1208.5, 0.870353
1213.5, 0.869328
1218.5, 0.869867
1223.5, 0.869094
1228.5, 0.869173
1233.5, 0.869717
1238.5, 0.868640
1243.5, 0.869864
1248.5, 0.870674
1253.5, 0.871110
1258.5, 0.872127
1263.5, 0.869553
1268.5, 0.870279
1273.5, 0.870894
1278.5, 0.870003
1283.5, 0.868197
1288.5, 0.869534
1293.5, 0.870574
1298.5, 0.870622
1303.5, 0.868718
1308.5, 0.868665
1313.5, 0.870035
1318.5, 0.871579
1323.5, 0.868872
1328.5, 0.870232
1333.5, 0.867705
1338.5, 0.870896
1343.5, 0.870092
1348.5, 0.869144
1353.5, 0.870615
1358.5, 0.870601
1363.5, 0.870174
1368.5, 0.869949
1373.5, 0.867730
1378.5, 0.869540
1383.5, 0.868570
1388.5, 0.869241
1393.5, 0.864223
1398.5, 0.866638
1403.5, 0.865129
1408.5, 0.864959
1413.5, 0.866419
1418.5, 0.865035
1423.5, 0.865448
1428.5, 0.865376
1433.5, 0.864409
1438.5, 0.864735
1443.5, 0.864041
1448.5, 0.865589
1453.5, 0.865511
1458.5, 0.863977
1463.5, 0.867749
1468.5, 0.866991
1473.5, 0.865784
1478.5, 0.865071
1483.5, 0.867597
1488.5, 0.865196
1493.5, 0.865635
1498.5, 0.864220
1503.5, 0.866494
1508.5, 0.866834
1513.5, 0.866988
1518.5, 0.866239
1523.5, 0.869039
1528.5, 0.867427
1534.0, 0.867554
1540.0, 0.868924
1546.0, 0.870492
1552.0, 0.869508
1558.0, 0.872240
1564.0, 0.869613
1570.5, 0.870331
1577.5, 0.868649
1584.5, 0.869406
1591.5, 0.870344
1598.5, 0.869557
1605.5, 0.867778
1612.5, 0.867410
1619.5, 0.868729
1626.5, 0.868878
1633.5, 0.869646
1640.5, 0.868869
1647.5, 0.869435
1654.5, 0.867798
1661.5, 0.869872
1668.5, 0.868058
1676.0, 0.865526
1684.0, 0.864883
1692.0, 0.865629
1700.0, 0.867302
1708.0, 0.868850
1716.0, 0.865990
1724.0, 0.862034
1732.0, 0.863735
1740.0, 0.859558
1748.0, 0.858808
1756.0, 0.859747
1764.0, 0.857772
1772.0, 0.860776
1780.0, 0.861197
1788.0, 0.864529
1796.0, 0.858192
1805.0, 0.857803
1815.0, 0.863217
1825.0, 0.861402
1835.0, 0.862948
1845.0, 0.859855
1855.0, 0.855991
1865.0, 0.851649
1875.0, 0.843135
1885.0, 0.833069
1895.0, 0.829538
1905.0, 0.810082
1915.0, 0.780057
1925.0, 0.791070
1935.0, 0.822761
1945.0, 0.828391
1955.0, 0.832749
1965.0, 0.837996
1975.0, 0.839426
1985.0, 0.841370
1995.0, 0.832205
2005.0, 0.825679
2015.0, 0.829449
2025.0, 0.823531
2035.0, 0.801849
2045.0, 0.771350
2055.0, 0.810277
2065.0, 0.842907
2075.0, 0.853692
2085.0, 0.855549
2095.0, 0.860047
2105.0, 0.861095
2115.0, 0.860733
2125.0, 0.864057
2135.0, 0.861877
2145.0, 0.855958
2155.0, 0.841844
2165.0, 0.842461
2175.0, 0.838601
2185.0, 0.827255
2195.0, 0.807565
2205.0, 0.766403
2215.0, 0.773513
2225.0, 0.813594
2235.0, 0.821298
2245.0, 0.814331
2255.0, 0.799350
2265.0, 0.784220
2275.0, 0.770181
2285.0, 0.755602
2295.0, 0.734069
2305.0, 0.700536
2315.0, 0.673956
2325.0, 0.641842
2335.0, 0.621026
2345.0, 0.606336
2355.0, 0.594573
2365.0, 0.573773
2375.0, 0.516774
2386.0, 0.442249
2400.0, 0.501636
2418.0, 0.668554
2440.0, 0.726298
2466.0, 0.728428
2496.0, 0.681836
2528.0, 0.540602
2560.0, 0.461985
2592.0, 0.347467
2624.0, 0.596496
2656.0, 0.716653
2688.0, 0.725816
2720.0, 0.703689
2752.0, 0.571148
2784.0, 0.479959
2816.0, 0.426067
2848.0, 0.286579
2880.0, 0.349865
2912.0, 0.392774
2944.0, 0.388930
2976.0, 0.384635
