Database of Origin, USGS Spectral Database
Sample Description, See USGS database for additional info
Date Added,2016-08-10 02:51:31.451657

Data ID,USGS_gro03          
Sample ID, gross_ws483.8629
Mineral Name, gross
Material Class,Nesosilicate

Wavelength
221.1, 0.0243540
229.1, 0.0280030
236.1, 0.0281740
242.1, 0.0264480
248.1, 0.0244550
253.6, 0.0272370
258.6, 0.0258210
263.6, 0.0253030
268.6, 0.0278400
273.1, 0.0272420
277.1, 0.0270400
281.1, 0.0303340
285.1, 0.0314420
289.1, 0.0340410
293.1, 0.0399290
297.1, 0.0460370
301.1, 0.0539730
305.1, 0.0685770
309.1, 0.0834630
313.1, 0.106031
317.1, 0.140135
321.1, 0.178617
325.1, 0.222601
329.1, 0.270904
333.1, 0.321160
337.1, 0.368642
341.1, 0.407658
345.1, 0.440087
349.1, 0.465615
353.1, 0.495580
357.1, 0.515759
360.6, 0.532352
363.6, 0.540765
366.6, 0.553296
369.6, 0.556197
372.6, 0.557087
375.6, 0.566027
378.6, 0.573305
381.1, 0.581118
383.1, 0.591430
385.1, 0.601348
387.1, 0.614889
389.1, 0.626371
391.1, 0.635450
393.1, 0.652035
395.1, 0.660220
397.1, 0.668558
399.1, 0.677180
401.1, 0.688428
403.1, 0.690010
405.1, 0.697296
407.1, 0.700274
409.1, 0.700986
411.1, 0.704330
412.8, 0.713882
415.8, 0.717826
418.8, 0.717780
421.8, 0.720828
424.8, 0.717187
427.8, 0.718002
430.8, 0.715678
433.8, 0.715314
436.8, 0.723317
439.8, 0.729206
442.8, 0.739145
445.8, 0.749971
448.8, 0.758782
451.3, 0.764357
453.3, 0.765883
455.3, 0.769898
457.3, 0.773249
459.3, 0.772870
461.3, 0.778673
463.3, 0.779501
465.3, 0.782504
467.3, 0.786527
469.3, 0.786319
471.3, 0.787174
473.3, 0.790734
475.3, 0.786755
477.3, 0.788611
479.3, 0.791120
481.3, 0.789673
483.3, 0.795849
485.3, 0.793184
487.3, 0.792614
489.3, 0.794807
491.3, 0.795426
493.3, 0.793076
495.3, 0.791631
497.3, 0.794290
499.3, 0.794248
501.3, 0.794940
503.3, 0.792135
505.3, 0.793214
507.3, 0.791392
509.3, 0.794308
511.3, 0.796504
513.3, 0.799018
515.3, 0.797903
517.3, 0.791209
519.3, 0.795990
521.3, 0.792260
523.3, 0.797163
525.3, 0.799028
527.3, 0.798017
529.3, 0.799695
531.3, 0.799153
533.3, 0.798626
535.3, 0.803096
537.3, 0.805891
539.3, 0.803429
541.3, 0.807161
543.3, 0.809210
545.3, 0.805056
547.3, 0.805070
549.3, 0.808169
551.3, 0.810033
553.3, 0.808426
555.3, 0.810376
557.3, 0.810756
559.3, 0.814828
561.3, 0.816830
563.3, 0.813717
565.3, 0.810985
567.3, 0.812138
569.3, 0.817646
571.3, 0.814788
573.3, 0.817824
575.3, 0.815869
577.3, 0.822581
579.3, 0.819288
581.3, 0.819395
583.3, 0.825501
585.3, 0.821294
587.3, 0.817895
589.3, 0.823033
591.3, 0.828214
593.3, 0.831115
595.3, 0.825674
597.3, 0.829922
599.3, 0.833648
601.1, 0.833484
602.7, 0.836467
604.3, 0.835360
605.9, 0.833051
607.5, 0.832039
609.1, 0.838876
610.7, 0.844187
612.3, 0.838719
613.9, 0.843088
615.5, 0.843401
617.1, 0.843566
618.7, 0.846440
620.3, 0.846641
621.9, 0.848140
623.5, 0.844508
625.1, 0.851514
626.7, 0.846859
628.3, 0.847757
629.9, 0.853150
631.7, 0.854342
633.7, 0.853199
635.7, 0.858589
637.7, 0.855846
639.7, 0.858357
641.7, 0.859659
643.7, 0.857534
645.7, 0.859040
647.7, 0.862848
649.7, 0.859426
651.7, 0.861571
653.7, 0.865591
655.7, 0.865347
657.7, 0.863412
659.7, 0.867083
661.7, 0.864355
663.7, 0.867320
665.7, 0.869066
667.7, 0.872017
670.2, 0.870484
673.2, 0.871861
676.2, 0.879331
679.2, 0.872887
682.2, 0.876832
685.2, 0.878465
688.2, 0.879623
691.2, 0.883202
694.2, 0.880145
697.2, 0.877471
700.2, 0.884658
702.0, 0.882753
704.0, 0.882738
706.0, 0.882774
708.0, 0.882319
710.0, 0.882398
712.0, 0.881931
714.0, 0.883584
716.0, 0.886660
718.0, 0.884671
720.0, 0.880509
722.0, 0.888307
724.0, 0.887036
726.0, 0.884541
728.0, 0.887595
730.0, 0.885581
732.0, 0.885951
734.0, 0.888318
736.0, 0.888791
738.0, 0.887060
740.0, 0.889164
742.0, 0.883955
744.0, 0.891593
746.0, 0.890539
748.0, 0.887614
750.5, 0.887779
753.5, 0.888059
756.5, 0.886122
759.5, 0.888825
762.5, 0.884574
765.5, 0.888761
768.5, 0.885785
771.5, 0.886321
774.5, 0.887626
777.5, 0.892320
781.0, 0.887365
785.0, 0.886540
789.0, 0.887762
793.0, 0.889368
797.0, 0.885614
801.5, 0.882314
806.5, 0.882605
811.5, 0.884126
816.5, 0.879846
822.0, 0.877284
828.0, 0.873888
835.0, 0.872902
851.0, 0.876200
859.0, 0.870244
871.0, 0.873575
883.0, 0.875347
894.0, 0.864121
904.0, 0.870806
914.0, 0.870066
924.0, 0.878774
933.0, 0.873281
941.0, 0.877720
949.0, 0.878869
957.0, 0.880565
964.0, 0.887199
970.0, 0.880536
976.0, 0.886554
982.0, 0.890079
988.0, 0.891100
994.0, 0.887375
1000.0, 0.894338
1006.0, 0.894167
1012.0, 0.894666
1018.0, 0.894792
1023.5, 0.897109
1028.5, 0.902208
1033.5, 0.899182
1038.5, 0.898501
1043.5, 0.901123
1048.5, 0.898921
1053.5, 0.900232
1058.5, 0.897981
1063.5, 0.900548
1068.5, 0.897997
1073.5, 0.896618
1078.5, 0.901928
1083.5, 0.897193
1088.5, 0.896521
1093.5, 0.900141
1098.5, 0.901385
1103.5, 0.898054
1108.5, 0.898799
1113.5, 0.896164
1118.5, 0.897958
1123.5, 0.899359
1128.5, 0.900496
1133.5, 0.901878
1138.5, 0.898959
1143.5, 0.900839
1148.5, 0.900035
1153.5, 0.900965
1158.5, 0.901267
1163.5, 0.897258
1168.5, 0.897788
1173.5, 0.899228
1178.5, 0.899986
1183.5, 0.898974
1188.5, 0.897376
1193.5, 0.899439
1198.5, 0.898638
1203.5, 0.900649
1208.5, 0.898231
1213.5, 0.898490
1218.5, 0.896502
1223.5, 0.897663
1228.5, 0.896369
1233.5, 0.899201
1238.5, 0.897385
1243.5, 0.896498
1248.5, 0.899955
1253.5, 0.897261
1258.5, 0.898031
1263.5, 0.894977
1268.5, 0.900481
1273.5, 0.899597
1278.5, 0.896285
1283.5, 0.896940
1288.5, 0.897512
1293.5, 0.896768
1298.5, 0.894380
1303.5, 0.899467
1308.5, 0.894584
1313.5, 0.898386
1318.5, 0.895229
1323.5, 0.898872
1328.5, 0.896417
1333.5, 0.895783
1338.5, 0.894481
1343.5, 0.897089
1348.5, 0.899641
1353.5, 0.894631
1358.5, 0.895424
1363.5, 0.892187
1368.5, 0.894568
1373.5, 0.898132
1378.5, 0.894556
1383.5, 0.894933
1388.5, 0.898347
1393.5, 0.893448
1398.5, 0.893283
1403.5, 0.891207
1408.5, 0.892713
1413.5, 0.887876
1418.5, 0.894780
1423.5, 0.887716
1428.5, 0.892525
1433.5, 0.894039
1438.5, 0.893453
1443.5, 0.891288
1448.5, 0.888432
1453.5, 0.892734
1458.5, 0.897591
1463.5, 0.893116
1468.5, 0.894345
1473.5, 0.895258
1478.5, 0.891121
1483.5, 0.893367
1488.5, 0.895967
1493.5, 0.893518
1498.5, 0.890502
1503.5, 0.892290
1508.5, 0.891773
1513.5, 0.893229
1518.5, 0.896268
1523.5, 0.891562
1528.5, 0.892497
1534.0, 0.894924
1540.0, 0.894301
1546.0, 0.896606
1552.0, 0.892806
1558.0, 0.893659
1564.0, 0.893115
1570.5, 0.892263
1577.5, 0.894771
1584.5, 0.891618
1591.5, 0.892995
1598.5, 0.889433
1605.5, 0.892466
1612.5, 0.896245
1619.5, 0.892769
1626.5, 0.891755
1633.5, 0.896005
1640.5, 0.891417
1647.5, 0.890451
1654.5, 0.891175
1661.5, 0.888062
1668.5, 0.889752
1676.0, 0.890904
1684.0, 0.882723
1692.0, 0.886078
1700.0, 0.886114
1708.0, 0.888539
1716.0, 0.886387
1724.0, 0.882454
1732.0, 0.882928
1740.0, 0.881769
1748.0, 0.880499
1756.0, 0.883811
1764.0, 0.885143
1772.0, 0.883267
1780.0, 0.883410
1788.0, 0.877987
1796.0, 0.879686
1805.0, 0.879390
1815.0, 0.875472
1825.0, 0.872924
1835.0, 0.876601
1845.0, 0.872688
1855.0, 0.872777
1865.0, 0.866349
1875.0, 0.869167
1885.0, 0.861998
1895.0, 0.865656
1905.0, 0.858323
1915.0, 0.856366
1925.0, 0.857349
1935.0, 0.849426
1945.0, 0.848895
1955.0, 0.848509
1965.0, 0.850298
1975.0, 0.851820
1985.0, 0.853683
1995.0, 0.849720
2005.0, 0.850523
2015.0, 0.851031
2025.0, 0.852037
2035.0, 0.850677
2045.0, 0.850982
2055.0, 0.851962
2065.0, 0.848571
2075.0, 0.844882
2085.0, 0.850221
2095.0, 0.846241
2105.0, 0.845447
2115.0, 0.844855
2125.0, 0.843749
2135.0, 0.843381
2145.0, 0.840215
2155.0, 0.840743
2165.0, 0.833223
2175.0, 0.831631
2185.0, 0.824531
2195.0, 0.819288
2205.0, 0.823260
2215.0, 0.820608
2225.0, 0.820712
2235.0, 0.808259
2245.0, 0.807420
2255.0, 0.808998
2265.0, 0.804674
2275.0, 0.802764
2285.0, 0.811228
2295.0, 0.804279
2305.0, 0.803204
2315.0, 0.803226
2325.0, 0.803793
2335.0, 0.797339
2345.0, 0.804065
2355.0, 0.794019
2365.0, 0.795551
2375.0, 0.796697
2386.0, 0.793215
2400.0, 0.789130
2418.0, 0.788411
2440.0, 0.782783
2466.0, 0.775821
2496.0, 0.769415
2528.0, 0.760806
2560.0, 0.748576
2592.0, 0.745538
2624.0, 0.734933
2656.0, 0.722121
2688.0, 0.692045
2720.0, 0.620514
2752.0, 0.540543
2784.0, 0.536640
2816.0, 0.543147
2848.0, 0.522159
2880.0, 0.546641
2912.0, 0.519355
2944.0, 0.521181
2976.0, 0.522860
