Database of Origin, USGS Spectral Database
Sample Description, See USGS database for additional info
Date Added,2016-08-03 20:51:46.232455

Data ID,USGS_alb07          
Sample ID, albite_hs66.3b.457
Mineral Name, albite
Material Class,Tectosilicate

Wavelength
263.6, 0.606239
268.6, 0.615649
273.1, 0.630835
277.1, 0.635271
281.1, 0.644879
285.1, 0.654830
289.1, 0.661089
293.1, 0.670623
297.1, 0.674242
301.1, 0.680597
305.1, 0.689169
309.1, 0.692591
313.1, 0.698777
317.1, 0.702384
321.1, 0.709816
325.1, 0.717935
329.1, 0.721444
333.1, 0.724497
337.1, 0.728302
341.1, 0.734932
345.1, 0.741225
349.1, 0.744703
353.1, 0.743053
357.1, 0.745691
360.6, 0.751945
363.6, 0.752343
366.6, 0.757603
369.6, 0.757856
372.6, 0.761902
375.6, 0.766962
378.6, 0.764284
381.1, 0.772360
383.1, 0.773451
385.1, 0.776028
387.1, 0.777516
389.1, 0.776991
391.1, 0.783791
393.1, 0.787809
395.1, 0.784032
397.1, 0.788301
399.1, 0.793123
401.1, 0.794427
403.1, 0.795655
405.1, 0.794257
407.1, 0.800809
409.1, 0.799490
411.1, 0.798026
412.8, 0.805229
415.8, 0.802128
418.8, 0.808098
421.8, 0.811557
424.8, 0.810889
427.8, 0.817571
430.8, 0.821151
433.8, 0.817901
436.8, 0.822332
439.8, 0.827111
442.8, 0.829109
445.8, 0.829554
448.8, 0.832699
451.3, 0.830133
453.3, 0.831785
455.3, 0.831999
457.3, 0.839435
459.3, 0.838992
461.3, 0.840826
463.3, 0.837351
465.3, 0.843072
467.3, 0.843514
469.3, 0.841791
471.3, 0.845651
473.3, 0.849463
475.3, 0.846689
477.3, 0.843535
479.3, 0.846876
481.3, 0.845353
483.3, 0.854286
485.3, 0.851482
487.3, 0.844642
489.3, 0.851646
491.3, 0.850619
493.3, 0.856049
495.3, 0.851480
497.3, 0.861217
499.3, 0.855891
501.3, 0.856807
503.3, 0.857601
505.3, 0.856215
507.3, 0.857038
509.3, 0.860725
511.3, 0.864738
513.3, 0.866695
515.3, 0.866251
517.3, 0.865402
519.3, 0.866125
521.3, 0.867015
523.3, 0.868868
525.3, 0.865545
527.3, 0.866687
529.3, 0.869739
531.3, 0.869843
533.3, 0.869357
535.3, 0.871742
537.3, 0.876966
539.3, 0.873706
541.3, 0.874167
543.3, 0.877008
545.3, 0.870329
547.3, 0.876627
549.3, 0.883311
551.3, 0.880229
553.3, 0.872828
555.3, 0.878168
557.3, 0.876794
559.3, 0.875348
561.3, 0.881536
563.3, 0.878234
565.3, 0.876276
567.3, 0.878255
569.3, 0.882348
571.3, 0.879499
573.3, 0.876805
575.3, 0.877252
577.3, 0.880114
579.3, 0.879132
581.3, 0.879871
583.3, 0.881388
585.3, 0.878452
587.3, 0.879141
589.3, 0.879612
591.3, 0.884011
593.3, 0.882847
595.3, 0.879633
597.3, 0.884748
599.3, 0.881309
601.1, 0.881881
602.7, 0.881592
604.3, 0.882068
605.9, 0.882947
607.5, 0.880268
609.1, 0.881588
610.7, 0.882955
612.3, 0.881474
613.9, 0.881724
615.5, 0.884587
617.1, 0.882988
618.7, 0.879412
620.3, 0.879659
621.9, 0.881091
623.5, 0.882285
625.1, 0.880497
626.7, 0.881435
628.3, 0.880704
629.9, 0.883649
631.7, 0.882516
633.7, 0.880556
635.7, 0.882771
637.7, 0.881550
639.7, 0.884118
641.7, 0.883793
643.7, 0.881616
645.7, 0.882337
647.7, 0.886182
649.7, 0.885939
651.7, 0.884112
653.7, 0.886523
655.7, 0.881428
657.7, 0.884305
659.7, 0.887228
661.7, 0.886096
663.7, 0.885014
665.7, 0.886798
667.7, 0.893020
670.2, 0.891404
673.2, 0.890404
676.2, 0.893107
679.2, 0.889035
682.2, 0.889760
685.2, 0.893008
688.2, 0.890939
691.2, 0.893754
694.2, 0.895542
697.2, 0.892037
700.2, 0.891975
702.0, 0.893309
704.0, 0.894107
706.0, 0.894140
708.0, 0.894502
710.0, 0.897061
712.0, 0.894972
714.0, 0.895808
716.0, 0.896455
718.0, 0.897726
720.0, 0.899288
722.0, 0.902236
724.0, 0.891936
726.0, 0.900120
728.0, 0.901563
730.0, 0.899544
732.0, 0.904921
734.0, 0.905589
736.0, 0.906945
738.0, 0.901867
740.0, 0.902371
742.0, 0.899617
744.0, 0.899852
746.0, 0.908748
748.0, 0.902517
750.5, 0.906865
753.5, 0.904678
756.5, 0.905208
759.5, 0.905454
762.5, 0.907874
765.5, 0.910477
768.5, 0.909183
771.5, 0.904685
774.5, 0.911916
777.5, 0.911647
781.0, 0.909195
785.0, 0.913510
789.0, 0.913900
793.0, 0.916479
797.0, 0.915251
801.5, 0.912774
806.5, 0.914918
811.5, 0.913085
816.5, 0.920035
822.0, 0.918327
828.0, 0.915927
835.0, 0.915438
851.0, 0.920763
859.0, 0.913328
871.0, 0.919570
883.0, 0.915224
894.0, 0.908986
904.0, 0.911663
914.0, 0.911854
924.0, 0.912464
933.0, 0.912301
941.0, 0.903868
949.0, 0.909648
957.0, 0.904847
964.0, 0.910912
970.0, 0.906307
976.0, 0.909174
982.0, 0.909120
988.0, 0.906979
994.0, 0.905669
1000.0, 0.906908
1006.0, 0.905040
1012.0, 0.905374
1018.0, 0.904668
1023.5, 0.906123
1028.5, 0.906708
1033.5, 0.898283
1038.5, 0.905709
1043.5, 0.905632
1048.5, 0.905229
1053.5, 0.906543
1058.5, 0.904490
1063.5, 0.902354
1068.5, 0.904306
1073.5, 0.903012
1078.5, 0.905537
1083.5, 0.900794
1088.5, 0.900303
1093.5, 0.901945
1098.5, 0.902289
1103.5, 0.903204
1108.5, 0.898889
1113.5, 0.902763
1118.5, 0.901481
1123.5, 0.904603
1128.5, 0.901401
1133.5, 0.900972
1138.5, 0.900134
1143.5, 0.906637
1148.5, 0.901665
1153.5, 0.903410
1158.5, 0.904898
1163.5, 0.900158
1168.5, 0.900325
1173.5, 0.898865
1178.5, 0.898988
1183.5, 0.903141
1188.5, 0.900263
1193.5, 0.902884
1198.5, 0.903801
1203.5, 0.902644
1208.5, 0.905398
1213.5, 0.903657
1218.5, 0.903398
1223.5, 0.904186
1228.5, 0.905277
1233.5, 0.904196
1238.5, 0.905204
1243.5, 0.909702
1248.5, 0.909697
1253.5, 0.904519
1258.5, 0.906120
1263.5, 0.903891
1268.5, 0.907299
1273.5, 0.907063
1278.5, 0.905284
1283.5, 0.904753
1288.5, 0.904230
1293.5, 0.904400
1298.5, 0.904645
1303.5, 0.910772
1308.5, 0.904677
1313.5, 0.904217
1318.5, 0.906135
1323.5, 0.907255
1328.5, 0.904525
1333.5, 0.904429
1338.5, 0.901940
1343.5, 0.906115
1348.5, 0.908487
1353.5, 0.906774
1358.5, 0.904800
1363.5, 0.905284
1368.5, 0.902310
1373.5, 0.906451
1378.5, 0.906328
1383.5, 0.903876
1388.5, 0.901176
1393.5, 0.896828
1398.5, 0.892369
1403.5, 0.884186
1408.5, 0.880944
1413.5, 0.883679
1418.5, 0.884180
1423.5, 0.891641
1428.5, 0.893165
1433.5, 0.892395
1438.5, 0.891078
1443.5, 0.897142
1448.5, 0.890809
1453.5, 0.893192
1458.5, 0.896674
1463.5, 0.895860
1468.5, 0.892788
1473.5, 0.896634
1478.5, 0.890297
1483.5, 0.892818
1488.5, 0.898720
1493.5, 0.896732
1498.5, 0.900331
1503.5, 0.898263
1508.5, 0.895447
1513.5, 0.897538
1518.5, 0.896820
1523.5, 0.898988
1528.5, 0.899752
1534.0, 0.903302
1540.0, 0.902686
1546.0, 0.902872
1552.0, 0.901540
1558.0, 0.902760
1564.0, 0.906472
1570.5, 0.903599
1577.5, 0.904539
1584.5, 0.903118
1591.5, 0.904422
1598.5, 0.901784
1605.5, 0.904277
1612.5, 0.906025
1619.5, 0.902838
1626.5, 0.903908
1633.5, 0.904954
1640.5, 0.902046
1647.5, 0.903927
1654.5, 0.901303
1661.5, 0.906250
1668.5, 0.898615
1676.0, 0.901290
1684.0, 0.901600
1692.0, 0.899968
1700.0, 0.899725
1708.0, 0.907079
1716.0, 0.902489
1724.0, 0.902389
1732.0, 0.895495
1740.0, 0.897385
1748.0, 0.903283
1756.0, 0.901573
1764.0, 0.901982
1772.0, 0.903425
1780.0, 0.900366
1788.0, 0.897071
1796.0, 0.899766
1805.0, 0.900065
1815.0, 0.898355
1825.0, 0.895785
1835.0, 0.899433
1845.0, 0.899319
1855.0, 0.897499
1865.0, 0.892044
1875.0, 0.889342
1885.0, 0.881874
1895.0, 0.881694
1905.0, 0.858415
1915.0, 0.854510
1925.0, 0.851328
1935.0, 0.855157
1945.0, 0.854075
1955.0, 0.857474
1965.0, 0.857813
1975.0, 0.865535
1985.0, 0.870065
1995.0, 0.871709
2005.0, 0.877286
2015.0, 0.874856
2025.0, 0.878024
2035.0, 0.882616
2045.0, 0.884131
2055.0, 0.890731
2065.0, 0.887723
2075.0, 0.888064
2085.0, 0.891048
2095.0, 0.893224
2105.0, 0.893726
2115.0, 0.898748
2125.0, 0.895077
2135.0, 0.892873
2145.0, 0.893013
2155.0, 0.890752
2165.0, 0.886714
2175.0, 0.879302
2185.0, 0.866599
2195.0, 0.857422
2205.0, 0.867947
2215.0, 0.866301
2225.0, 0.873895
2235.0, 0.878144
2245.0, 0.874185
2255.0, 0.879384
2265.0, 0.876943
2275.0, 0.881217
2285.0, 0.875569
2295.0, 0.881001
2305.0, 0.871801
2315.0, 0.872545
2325.0, 0.876392
2335.0, 0.872275
2345.0, 0.871724
2355.0, 0.866921
2365.0, 0.866244
2375.0, 0.866848
2386.0, 0.868471
2400.0, 0.861592
2418.0, 0.857881
2440.0, 0.842856
2466.0, 0.835797
2496.0, 0.841710
2528.0, 0.835253
2560.0, 0.829733
2592.0, 0.824597
2624.0, 0.815785
2656.0, 0.798006
2688.0, 0.743440
2720.0, 0.616707
2752.0, 0.475084
2784.0, 0.445794
2816.0, 0.424687
2848.0, 0.389674
2880.0, 0.397126
2912.0, 0.389461
2944.0, 0.393606
2976.0, 0.399700
