Database of Origin,USGS Spectral Database
Sample Description,See USGS database for additional info
Date Added,2017-07-03 05:45:10.406542

Data ID,USGS_cop02          
Sample ID,copiapite_gds21.6298
Mineral Name,copiapite
Material Class,Sulfate

Wavelength
1280.99, 0.000000
1413.73, 0.162568
1414.12, 0.162047
1414.5, 0.161708
1414.89, 0.162047
1415.66, 0.161656
1416.05, 0.160875
1416.44, 0.162437
1416.82, 0.161995
1417.21, 0.161188
1417.6, 0.161552
1417.98, 0.161839
1418.37, 0.160302
1418.76, 0.158610
1419.15, 0.158558
1419.54, 0.158375
1419.93, 0.158636
1420.32, 0.160172
1420.71, 0.158870
1421.09, 0.157828
1421.48, 0.158427
1421.88, 0.158063
1422.27, 0.157412
1422.66, 0.156318
1423.05, 0.155875
1423.44, 0.156084
1423.83, 0.157907
1424.22, 0.156605
1424.61, 0.156162
1425.0, 0.156396
1425.39, 0.155146
1425.78, 0.154782
1426.18, 0.155615
1426.57, 0.155016
1426.96, 0.152959
1427.36, 0.152568
1427.75, 0.153740
1428.14, 0.153454
1428.54, 0.151553
1428.93, 0.152438
1429.32, 0.153766
1429.72, 0.152516
1430.11, 0.151397
1430.51, 0.151188
1430.9, 0.150589
1431.3, 0.149105
1431.69, 0.149053
1432.09, 0.150147
1432.48, 0.150433
1432.88, 0.151371
1433.28, 0.152230
1433.67, 0.150589
1434.07, 0.149027
1434.46, 0.148532
1434.86, 0.149652
1435.26, 0.149391
1435.66, 0.146996
1436.05, 0.146371
1436.45, 0.146475
1436.85, 0.144678
1437.25, 0.145251
1437.65, 0.146683
1438.05, 0.145824
1438.44, 0.144105
1438.84, 0.144183
1439.24, 0.143871
1439.64, 0.144183
1440.04, 0.142881
1440.44, 0.142100
1440.84, 0.142257
1441.24, 0.143402
1441.65, 0.144105
1442.05, 0.144079
1442.45, 0.141944
1442.85, 0.140277
1443.25, 0.139731
1443.65, 0.138611
1444.05, 0.139470
1444.46, 0.140590
1444.86, 0.139548
1445.26, 0.139548
1445.67, 0.140642
1446.07, 0.139366
1446.47, 0.138116
1446.88, 0.138403
1447.28, 0.136788
1447.68, 0.135955
1448.09, 0.137283
1448.49, 0.138194
1448.9, 0.137231
1449.3, 0.137022
1449.71, 0.136502
1450.11, 0.135564
1450.52, 0.135382
1450.93, 0.135434
1451.33, 0.136163
1451.74, 0.136424
1452.14, 0.135590
1452.55, 0.134288
1452.96, 0.134210
1453.36, 0.134262
1453.77, 0.134913
1454.18, 0.136059
1454.59, 0.135642
1455.0, 0.135330
1455.41, 0.135122
1455.81, 0.135747
1456.22, 0.136345
1456.63, 0.136892
1457.04, 0.137205
1457.45, 0.137856
1457.86, 0.137986
1458.27, 0.137543
1458.68, 0.137908
1459.09, 0.139054
1459.5, 0.140330
1459.91, 0.139991
1460.32, 0.138533
1460.74, 0.138168
1461.15, 0.139418
1461.56, 0.139626
1461.97, 0.140017
1462.39, 0.141553
1462.8, 0.141267
1463.21, 0.140121
1463.62, 0.139783
1464.04, 0.139496
1464.45, 0.139809
1464.86, 0.140121
1465.28, 0.138220
1465.69, 0.138090
1466.11, 0.139600
1466.52, 0.140538
1466.94, 0.142257
1467.35, 0.141866
1467.77, 0.140121
1468.18, 0.141918
1468.6, 0.142387
1469.02, 0.141397
1469.43, 0.140720
1469.85, 0.140876
1470.27, 0.140928
1470.68, 0.141111
1471.1, 0.141007
1471.52, 0.140590
1471.94, 0.142178
1472.35, 0.143324
1472.77, 0.143350
1473.19, 0.142543
1473.61, 0.142283
1474.03, 0.142543
1474.45, 0.142335
1474.87, 0.143454
1475.29, 0.144288
1475.71, 0.143168
1476.13, 0.141293
1476.55, 0.141033
1476.97, 0.142491
1477.39, 0.142230
1477.81, 0.141345
1478.23, 0.141970
1478.65, 0.142361
1479.07, 0.142569
1479.5, 0.142491
1479.92, 0.143350
1480.34, 0.143871
1480.76, 0.144027
1481.19, 0.142908
1481.61, 0.141553
1482.03, 0.141293
1482.46, 0.141684
1482.88, 0.142673
1483.31, 0.143454
1483.73, 0.143376
1484.16, 0.143689
1484.58, 0.144001
1485.01, 0.144288
1485.43, 0.142908
1485.86, 0.141710
1486.28, 0.141319
1486.71, 0.141553
1487.14, 0.142621
1487.56, 0.143220
1487.99, 0.142387
1488.42, 0.141033
1488.84, 0.139809
1489.27, 0.140460
1489.7, 0.141501
1490.13, 0.141293
1490.56, 0.140304
1490.98, 0.140824
1491.41, 0.141319
1491.84, 0.141788
1492.27, 0.142413
1492.7, 0.143142
1493.13, 0.142517
1493.56, 0.142048
1493.99, 0.142048
1494.42, 0.142126
1494.85, 0.143168
1495.29, 0.143012
1495.72, 0.141736
1496.15, 0.140564
1496.58, 0.140538
1497.01, 0.142283
1497.44, 0.142934
1497.88, 0.141189
1498.31, 0.139835
1498.74, 0.140356
1499.18, 0.140772
1499.61, 0.139731
1500.04, 0.139626
1500.48, 0.140564
1500.91, 0.141684
1501.35, 0.142204
1501.78, 0.141892
1502.22, 0.141970
1502.65, 0.141111
1503.09, 0.140720
1503.53, 0.140850
1503.96, 0.140850
1504.4, 0.140434
1504.83, 0.140304
1505.27, 0.141527
1505.71, 0.141970
1506.15, 0.140902
1506.58, 0.140694
1507.02, 0.142439
1507.46, 0.142829
1507.9, 0.142361
1508.34, 0.141944
1508.78, 0.141449
1509.21, 0.140902
1509.66, 0.140850
1510.09, 0.141007
1510.53, 0.141553
1510.97, 0.141111
1511.42, 0.141632
1511.86, 0.142126
1512.3, 0.140850
1512.74, 0.140902
1513.18, 0.141632
1513.62, 0.142387
1514.06, 0.142204
1514.51, 0.141371
1514.95, 0.140902
1515.39, 0.140798
1515.83, 0.141944
1516.28, 0.142074
1516.72, 0.141007
1517.16, 0.141189
1517.61, 0.140902
1518.05, 0.140981
1518.5, 0.141579
1518.94, 0.141579
1519.39, 0.141449
1519.83, 0.142283
1520.28, 0.141944
1520.73, 0.141345
1521.17, 0.141449
1521.62, 0.141527
1522.07, 0.140981
1522.51, 0.140538
1522.96, 0.140356
1523.41, 0.140955
1523.85, 0.141788
1524.3, 0.142829
1524.75, 0.143246
1525.2, 0.142048
1525.65, 0.141059
1526.1, 0.141970
1526.55, 0.142829
1527.0, 0.143194
1527.45, 0.142413
1527.9, 0.141788
1528.35, 0.142283
1528.8, 0.141658
1529.25, 0.141788
1529.7, 0.141710
1530.15, 0.141475
1530.6, 0.141814
1531.05, 0.142699
1531.51, 0.142725
1531.96, 0.141215
1532.41, 0.141085
1532.87, 0.141684
1533.32, 0.141501
1533.77, 0.140981
1534.23, 0.141345
1534.68, 0.141866
1535.14, 0.142647
1535.59, 0.142491
1536.05, 0.141762
1536.5, 0.141970
1536.96, 0.142126
1537.41, 0.141970
1537.87, 0.142048
1538.32, 0.141293
1538.78, 0.140616
1539.24, 0.141397
1539.7, 0.141527
1540.15, 0.141163
1540.61, 0.141215
1541.07, 0.141501
1541.53, 0.143090
1541.98, 0.143272
1542.44, 0.142986
1542.9, 0.142257
1543.36, 0.142881
1543.82, 0.142491
1544.28, 0.141866
1544.74, 0.141553
1545.2, 0.141111
1545.66, 0.141423
1546.12, 0.142387
1546.59, 0.142595
1547.05, 0.142777
1547.51, 0.142022
1547.97, 0.141241
1548.43, 0.141241
1548.9, 0.141553
1549.36, 0.142152
1549.82, 0.141788
1550.29, 0.141423
1550.75, 0.142569
1551.21, 0.143298
1551.68, 0.143220
1552.14, 0.142152
1552.61, 0.142022
1553.07, 0.142335
1553.54, 0.141632
1554.0, 0.141423
1554.47, 0.142309
1554.93, 0.142491
1555.4, 0.142387
1555.87, 0.141918
1556.34, 0.141475
1556.8, 0.141397
1557.27, 0.140772
1557.74, 0.141293
1558.21, 0.141241
1558.68, 0.141840
1559.14, 0.142309
1559.61, 0.140746
1560.08, 0.140356
1560.55, 0.141371
1561.02, 0.141840
1561.49, 0.141892
1561.96, 0.142569
1562.43, 0.142439
1562.9, 0.142465
1563.38, 0.142881
1563.85, 0.142699
1564.32, 0.143168
1564.79, 0.142673
1565.26, 0.141762
1565.74, 0.141866
1566.21, 0.143012
1566.68, 0.143350
1567.16, 0.142569
1567.63, 0.141579
1568.1, 0.140642
1568.58, 0.140902
1569.05, 0.141684
1569.53, 0.141892
1570.0, 0.141762
1570.48, 0.141632
1570.96, 0.141710
1571.43, 0.142178
1571.91, 0.142361
1572.39, 0.141762
1572.86, 0.141475
1573.34, 0.141996
1573.82, 0.142777
1574.3, 0.143715
1574.77, 0.142908
1575.25, 0.141579
1575.73, 0.141840
1576.21, 0.142699
1576.69, 0.142335
1577.17, 0.141944
1577.65, 0.142178
1578.13, 0.142074
1578.61, 0.141866
1579.09, 0.142569
1579.57, 0.142647
1580.05, 0.142100
1580.54, 0.142465
1581.02, 0.142257
1581.5, 0.141606
1581.98, 0.142283
1582.47, 0.143012
1582.95, 0.142986
1583.43, 0.142569
1583.92, 0.142751
1584.4, 0.142595
1584.88, 0.142335
1585.37, 0.142725
1585.85, 0.142439
1586.34, 0.142413
1586.82, 0.142725
1587.31, 0.142309
1587.8, 0.142152
1588.28, 0.142439
1588.77, 0.142699
1589.26, 0.143116
1589.74, 0.142960
1590.23, 0.142257
1590.72, 0.141996
1591.21, 0.142230
1591.7, 0.141710
1592.19, 0.141449
1592.67, 0.141423
1593.16, 0.141996
1593.65, 0.142204
1594.14, 0.141918
1594.63, 0.142283
1595.12, 0.142204
1595.61, 0.142022
1596.11, 0.141267
1596.6, 0.140981
1597.09, 0.141475
1597.58, 0.142152
1598.08, 0.142673
1598.57, 0.142335
1599.06, 0.142022
1599.55, 0.141918
1600.05, 0.141475
1600.54, 0.141658
1601.04, 0.141501
1601.53, 0.141788
1602.03, 0.142387
1602.52, 0.142230
1603.02, 0.141710
1603.51, 0.141475
1604.01, 0.141579
1604.5, 0.141762
1605.0, 0.141189
1605.5, 0.141085
1606.0, 0.141553
1606.49, 0.141293
1606.99, 0.140434
1607.49, 0.140043
1607.99, 0.140538
1608.49, 0.140876
1608.99, 0.140564
1609.49, 0.140330
1609.99, 0.140251
1610.49, 0.140330
1610.99, 0.141111
1611.49, 0.141085
1611.99, 0.140876
1612.49, 0.140434
1612.99, 0.139288
1613.49, 0.139158
1614.0, 0.139600
1614.5, 0.139288
1615.0, 0.139653
1615.51, 0.140876
1616.01, 0.141319
1616.51, 0.140199
1617.02, 0.139548
1617.52, 0.140121
1618.03, 0.140434
1618.53, 0.140512
1619.04, 0.140095
1619.54, 0.140043
1620.05, 0.139626
1620.55, 0.139783
1621.06, 0.139444
1621.57, 0.138845
1622.08, 0.139236
1622.58, 0.139366
1623.09, 0.138845
1623.6, 0.139054
1624.11, 0.139392
1624.62, 0.139522
1625.13, 0.139757
1625.64, 0.139679
1626.15, 0.138923
1626.66, 0.139679
1627.17, 0.140147
1627.68, 0.138767
1628.19, 0.138324
1628.7, 0.138637
1629.21, 0.138194
1629.72, 0.137908
1630.24, 0.137752
1630.75, 0.137361
1631.26, 0.137543
1631.78, 0.137700
1632.29, 0.137439
1632.8, 0.137231
1633.32, 0.137595
1633.83, 0.137335
1634.35, 0.137179
1634.86, 0.137700
1635.38, 0.137335
1635.9, 0.137439
1636.41, 0.137960
1636.93, 0.137700
1637.45, 0.137491
1637.96, 0.137647
1638.48, 0.137752
1639.0, 0.137830
1639.52, 0.136918
1640.04, 0.137335
1640.56, 0.137647
1641.08, 0.136424
1641.59, 0.136554
1642.11, 0.136814
1642.63, 0.135851
1643.16, 0.135851
1643.68, 0.135929
1644.2, 0.136293
1644.72, 0.136293
1645.24, 0.136554
1645.76, 0.136163
1646.29, 0.135694
1646.81, 0.135564
1647.33, 0.135460
1647.86, 0.136111
1648.38, 0.136059
1648.9, 0.135825
1649.43, 0.135747
1649.95, 0.136007
1650.48, 0.136554
1651.0, 0.136189
1651.53, 0.136528
1652.06, 0.136840
1652.58, 0.136632
1653.11, 0.135929
1653.64, 0.134809
1654.17, 0.135122
1654.69, 0.135981
1655.22, 0.135851
1655.75, 0.135825
1656.28, 0.136059
1656.81, 0.135877
1657.34, 0.135538
1657.87, 0.135174
1658.4, 0.134731
1658.93, 0.134002
1659.46, 0.134054
1659.99, 0.134679
1660.52, 0.134809
1661.05, 0.134861
1661.59, 0.135538
1662.12, 0.135538
1662.65, 0.134679
1663.19, 0.134445
1663.72, 0.134392
1664.26, 0.134679
1664.79, 0.134497
1665.32, 0.134028
1665.86, 0.134002
1666.39, 0.133820
1666.93, 0.134080
1667.47, 0.134340
1668.0, 0.134002
1668.54, 0.133507
1669.08, 0.133455
1669.61, 0.133012
1670.15, 0.133116
1670.69, 0.133247
1671.23, 0.133143
1671.77, 0.133585
1672.31, 0.133325
1672.85, 0.132700
1673.39, 0.132387
1673.93, 0.132570
1674.47, 0.132752
1675.01, 0.132439
1675.55, 0.132101
1676.09, 0.131971
1676.64, 0.131971
1677.18, 0.131788
1677.72, 0.131736
1678.26, 0.132335
1678.81, 0.132075
1679.35, 0.131424
1679.89, 0.131398
1680.44, 0.132179
1680.98, 0.132465
1681.53, 0.132127
1682.07, 0.131476
1682.62, 0.131346
1683.17, 0.132023
1683.71, 0.132179
1684.26, 0.132153
1684.81, 0.131658
1685.36, 0.131190
1685.9, 0.131007
1686.45, 0.130877
1687.0, 0.130226
1687.55, 0.129861
1688.1, 0.130434
1688.65, 0.131033
1689.2, 0.130773
1689.75, 0.130096
1690.3, 0.130096
1690.85, 0.129445
1691.41, 0.129263
1691.96, 0.130304
1692.51, 0.130539
1693.06, 0.130460
1693.61, 0.130226
1694.17, 0.130278
1694.72, 0.130148
1695.28, 0.129809
1695.83, 0.129419
1696.39, 0.128664
1696.94, 0.128898
1697.5, 0.129132
1698.05, 0.129757
1698.61, 0.130278
1699.17, 0.129757
1699.72, 0.128742
1700.28, 0.128247
1700.84, 0.127830
1701.4, 0.127961
1701.95, 0.128351
1702.51, 0.128117
1703.07, 0.127414
1703.63, 0.128299
1704.19, 0.129575
1704.75, 0.129289
1705.31, 0.128273
1705.88, 0.128898
1706.44, 0.129367
1707.0, 0.129080
1707.56, 0.128533
1708.12, 0.128455
1708.69, 0.128872
1709.25, 0.129627
1709.81, 0.128846
1710.38, 0.127856
1710.94, 0.128195
1711.51, 0.128716
1712.07, 0.128247
1712.64, 0.127935
1713.2, 0.128169
1713.77, 0.128273
1714.34, 0.128221
1714.9, 0.128325
1715.47, 0.128299
1716.04, 0.127388
1716.61, 0.126502
1717.18, 0.126789
1717.74, 0.127570
1718.31, 0.128664
1718.88, 0.129132
1719.45, 0.128533
1720.02, 0.127596
1720.59, 0.126867
1721.17, 0.126867
1721.74, 0.127362
1722.31, 0.127804
1722.88, 0.127596
1723.45, 0.127674
1724.03, 0.127830
1724.6, 0.127544
1725.18, 0.127362
1725.75, 0.127023
1726.33, 0.126997
1726.9, 0.126997
1727.48, 0.127101
1728.05, 0.127284
1728.63, 0.127388
1729.2, 0.127023
1729.78, 0.126606
1730.36, 0.127153
1730.94, 0.127596
1731.51, 0.127440
1732.09, 0.126711
1732.67, 0.126476
1733.25, 0.127127
1733.83, 0.127336
1734.41, 0.127179
1734.99, 0.126789
1735.57, 0.127284
1736.15, 0.127518
1736.73, 0.127153
1737.32, 0.126633
1737.9, 0.126528
1738.48, 0.126971
1739.07, 0.127726
1739.65, 0.127075
1740.23, 0.126737
1740.82, 0.126919
1741.4, 0.127257
1741.99, 0.126867
1742.57, 0.126711
1743.16, 0.127336
1743.74, 0.126971
1744.33, 0.126580
1744.92, 0.126398
1745.51, 0.126216
1746.09, 0.126528
1746.68, 0.126112
1747.27, 0.126190
1747.86, 0.126528
1748.45, 0.126502
1749.04, 0.126815
1749.63, 0.126580
1750.22, 0.125982
1750.81, 0.126060
1751.4, 0.126398
1751.99, 0.126034
1752.59, 0.125929
1753.18, 0.125955
1753.77, 0.125539
1754.37, 0.125877
1754.96, 0.125929
1755.56, 0.125929
1756.15, 0.126164
1756.74, 0.125903
1757.34, 0.125721
1757.94, 0.125435
1758.53, 0.125487
1759.13, 0.125773
1759.73, 0.125383
1760.32, 0.125695
1760.92, 0.126008
1761.52, 0.125851
1762.12, 0.125877
1762.72, 0.125929
1763.32, 0.126060
1763.92, 0.126190
1764.52, 0.125877
1765.12, 0.125461
1765.72, 0.125461
1766.32, 0.125331
1766.92, 0.124888
1767.53, 0.125331
1768.13, 0.125200
1768.73, 0.124810
1769.34, 0.125018
1769.94, 0.125487
1770.55, 0.125331
1771.15, 0.125148
1771.76, 0.124914
1772.36, 0.125252
1772.97, 0.125122
1773.57, 0.124966
1774.18, 0.125383
1774.79, 0.125591
1775.4, 0.125174
1776.0, 0.125122
1776.61, 0.125383
1777.22, 0.124888
1777.83, 0.124549
1778.44, 0.124940
1779.05, 0.125304
1779.66, 0.125409
1780.27, 0.125383
1780.88, 0.125331
1781.5, 0.125226
1782.11, 0.125461
1782.72, 0.125513
1783.33, 0.125643
1783.95, 0.125825
1784.56, 0.125695
1785.18, 0.125331
1785.79, 0.125304
1786.41, 0.125487
1787.02, 0.125643
1787.64, 0.125096
1788.26, 0.125383
1788.87, 0.125747
1789.49, 0.125591
1790.11, 0.125252
1790.73, 0.125200
1791.35, 0.125278
1791.96, 0.125435
1792.58, 0.125383
1793.21, 0.125643
1793.83, 0.126060
1794.45, 0.125982
1795.07, 0.125331
1795.69, 0.125252
1796.31, 0.125955
1796.93, 0.126190
1797.56, 0.126346
1798.18, 0.126606
1798.8, 0.126268
1799.43, 0.125721
1800.05, 0.125487
1800.68, 0.125851
1801.3, 0.126086
1801.93, 0.125982
1802.56, 0.125747
1803.18, 0.125200
1803.81, 0.125383
1804.44, 0.125773
1805.07, 0.125643
1805.7, 0.125695
1806.33, 0.126086
1806.95, 0.126554
1807.58, 0.126554
1808.22, 0.126268
1808.85, 0.126138
1809.48, 0.126216
1810.11, 0.126320
1810.74, 0.126398
1811.38, 0.125982
1812.01, 0.125461
1812.64, 0.125669
1813.28, 0.125799
1813.91, 0.125929
1814.55, 0.126034
1815.18, 0.126268
1815.82, 0.126867
1816.45, 0.126320
1817.09, 0.126086
1817.73, 0.126554
1818.36, 0.126372
1819.0, 0.126268
1819.64, 0.126476
1820.28, 0.126476
1820.92, 0.126190
1821.56, 0.126060
1822.2, 0.126112
1822.84, 0.125851
1823.48, 0.126190
1824.12, 0.126789
1824.76, 0.126554
1825.41, 0.125747
1826.05, 0.125539
1826.69, 0.125929
1827.34, 0.126476
1827.98, 0.126346
1828.63, 0.126372
1829.27, 0.126502
1829.92, 0.126164
1830.56, 0.125721
1831.21, 0.125982
1831.86, 0.126060
1832.5, 0.126034
1833.15, 0.126112
1833.8, 0.126476
1834.45, 0.126554
1835.1, 0.126086
1835.75, 0.125669
1836.4, 0.125747
1837.05, 0.126086
1837.7, 0.126320
1838.35, 0.126528
1839.01, 0.126320
1839.66, 0.125799
1840.31, 0.125669
1840.96, 0.126060
1841.62, 0.126450
1842.27, 0.126268
1842.93, 0.126138
1843.58, 0.126502
1844.24, 0.126502
1844.9, 0.126450
1845.55, 0.126659
1846.21, 0.126190
1846.87, 0.126060
1847.53, 0.126450
1848.18, 0.126476
1848.84, 0.126528
1849.5, 0.126450
1850.16, 0.126164
1850.82, 0.126060
1851.48, 0.125877
1852.14, 0.126008
1852.81, 0.125982
1853.47, 0.125695
1854.13, 0.125487
1854.8, 0.125747
1855.46, 0.125409
1856.12, 0.125773
1856.79, 0.126008
1857.45, 0.125617
1858.12, 0.125825
1858.79, 0.126008
1859.45, 0.125304
1860.12, 0.125174
1860.79, 0.125799
1861.46, 0.125877
1862.12, 0.125695
1862.79, 0.125669
1863.46, 0.125461
1864.13, 0.125252
1864.8, 0.125122
1865.48, 0.124862
1866.15, 0.124523
1866.82, 0.124653
1867.49, 0.124653
1868.16, 0.124523
1868.84, 0.124341
1869.51, 0.124107
1870.19, 0.123872
1870.86, 0.123950
1871.54, 0.123898
1872.21, 0.123404
1872.89, 0.123273
1873.56, 0.123378
1874.24, 0.122935
1874.92, 0.122518
1875.6, 0.122284
1876.28, 0.122076
1876.96, 0.122102
1877.64, 0.122232
1878.32, 0.121607
1879.0, 0.121398
1879.68, 0.121503
1880.36, 0.121372
1881.04, 0.120982
1881.73, 0.120591
1882.41, 0.120357
1883.09, 0.120435
1883.78, 0.120357
1884.46, 0.119810
1885.15, 0.119784
1885.83, 0.119940
1886.52, 0.119055
1887.21, 0.118196
1887.89, 0.117831
1888.58, 0.117336
1889.27, 0.117154
1889.96, 0.117154
1890.65, 0.116633
1891.34, 0.115670
1892.03, 0.114576
1892.72, 0.113977
1893.41, 0.113456
1894.1, 0.113092
1894.79, 0.112805
1895.49, 0.111842
1896.18, 0.111139
1896.87, 0.110670
1897.57, 0.110201
1898.26, 0.109993
1898.96, 0.109316
1899.65, 0.108300
1900.35, 0.107389
1901.05, 0.106608
1901.74, 0.106087
1902.44, 0.105254
1903.14, 0.104889
1903.84, 0.104811
1904.54, 0.104603
1905.24, 0.104108
1905.94, 0.103144
1906.64, 0.102207
1907.34, 0.101478
1908.04, 0.100853
1908.75, 0.100619
1909.45, 0.100176
1910.15, 0.0993690
1910.86, 0.0987700
1911.56, 0.0981450
1912.27, 0.0979890
1912.97, 0.0973640
1913.68, 0.0963480
1914.39, 0.0956450
1915.09, 0.0952280
1915.8, 0.0949940
1916.51, 0.0949940
1917.22, 0.0945510
1917.93, 0.0933010
1918.64, 0.0924680
1919.35, 0.0919730
1920.06, 0.0910620
1920.77, 0.0901500
1921.48, 0.0898900
1922.19, 0.0893950
1922.91, 0.0889010
1923.62, 0.0887180
1924.33, 0.0881450
1925.05, 0.0874160
1925.76, 0.0867650
1926.48, 0.0865830
1927.19, 0.0862440
1927.91, 0.0854890
1928.63, 0.0847080
1929.35, 0.0842910
1930.07, 0.0838750
1930.78, 0.0836400
1931.5, 0.0830940
1932.22, 0.0824170
1932.94, 0.0820520
1933.66, 0.0818960
1934.39, 0.0813230
1935.11, 0.0806720
1935.83, 0.0803590
1936.55, 0.0799430
1937.28, 0.0796560
1938.0, 0.0796820
1938.73, 0.0795260
1939.45, 0.0792140
1940.18, 0.0791100
1940.9, 0.0788230
1941.63, 0.0785630
1942.36, 0.0785890
1943.09, 0.0785630
1943.81, 0.0784060
1944.54, 0.0785890
1945.27, 0.0789530
1946.0, 0.0789270
1946.73, 0.0784320
1947.47, 0.0780680
1948.2, 0.0783540
1948.93, 0.0791880
1949.66, 0.0794220
1950.4, 0.0790050
1951.13, 0.0787970
1951.86, 0.0789270
1952.6, 0.0791620
1953.34, 0.0793960
1954.07, 0.0795000
1954.81, 0.0797080
1955.55, 0.0796820
1956.29, 0.0793700
1957.02, 0.0795000
1957.76, 0.0797610
1958.5, 0.0795520
1959.24, 0.0795780
1959.98, 0.0799170
1960.72, 0.0798910
1961.47, 0.0798130
1962.21, 0.0795260
1962.95, 0.0795780
1963.7, 0.0796560
1964.44, 0.0795780
1965.18, 0.0798650
1965.93, 0.0800470
1966.67, 0.0795780
1967.42, 0.0793180
1968.17, 0.0794740
1968.92, 0.0795260
1969.66, 0.0796560
1970.41, 0.0796820
1971.16, 0.0794220
1971.91, 0.0796300
1972.66, 0.0798130
1973.41, 0.0798130
1974.16, 0.0796560
1974.92, 0.0796040
1975.67, 0.0796300
1976.42, 0.0794740
1977.18, 0.0795520
1977.93, 0.0796560
1978.69, 0.0797340
1979.44, 0.0797080
1980.2, 0.0798650
1980.95, 0.0795520
1981.71, 0.0797870
1982.47, 0.0802030
1983.23, 0.0801250
1983.99, 0.0798130
1984.74, 0.0799170
1985.51, 0.0802290
1986.27, 0.0805680
1987.03, 0.0808540
1987.79, 0.0808020
1988.55, 0.0808540
1989.32, 0.0808280
1990.08, 0.0808280
1990.84, 0.0807760
1991.61, 0.0806980
1992.37, 0.0808800
1993.14, 0.0811410
1993.9, 0.0810890
1994.67, 0.0813490
1995.44, 0.0815310
1996.21, 0.0814790
1996.98, 0.0815310
1997.75, 0.0815050
1998.52, 0.0815310
1999.29, 0.0817140
2000.06, 0.0816350
2000.83, 0.0814790
2001.6, 0.0818440
2002.38, 0.0822080
2003.15, 0.0820260
2003.93, 0.0823910
2004.7, 0.0824950
2005.48, 0.0823120
2006.25, 0.0823650
2007.03, 0.0824950
2007.81, 0.0827550
2008.58, 0.0827030
2009.36, 0.0827030
2010.14, 0.0829890
2010.92, 0.0832500
2011.7, 0.0832500
2012.48, 0.0831720
2013.26, 0.0833020
2014.05, 0.0833280
2014.83, 0.0834840
2015.61, 0.0834580
2016.4, 0.0835100
2017.18, 0.0837710
2017.97, 0.0838750
2018.75, 0.0837450
2019.54, 0.0839010
2020.32, 0.0840830
2021.11, 0.0843180
2021.9, 0.0843700
2022.69, 0.0843180
2023.48, 0.0842650
2024.27, 0.0843960
2025.06, 0.0844480
2025.85, 0.0845520
2026.64, 0.0845000
2027.44, 0.0846300
2028.23, 0.0846560
2029.02, 0.0847080
2029.82, 0.0846040
2030.61, 0.0849950
2031.41, 0.0855410
2032.2, 0.0856200
2033.0, 0.0854630
2033.8, 0.0855670
2034.6, 0.0859060
2035.4, 0.0860360
2036.2, 0.0859840
2037.0, 0.0858020
2037.8, 0.0852810
2038.6, 0.0853850
2039.4, 0.0859580
2040.2, 0.0864010
2041.01, 0.0865050
2041.81, 0.0866350
2042.61, 0.0868950
2043.42, 0.0869480
2044.22, 0.0869740
2045.03, 0.0869480
2045.84, 0.0869220
2046.65, 0.0875200
2047.46, 0.0878850
2048.26, 0.0879630
2049.07, 0.0874940
2049.88, 0.0873900
2050.69, 0.0877030
2051.51, 0.0877810
2052.32, 0.0882240
2053.13, 0.0885360
2053.94, 0.0885880
2054.76, 0.0888480
2055.57, 0.0891090
2056.39, 0.0891610
2057.2, 0.0890310
2058.02, 0.0892910
2058.84, 0.0893690
2059.66, 0.0890050
2060.48, 0.0890050
2061.29, 0.0895260
2062.11, 0.0897600
2062.94, 0.0896820
2063.76, 0.0897340
2064.58, 0.0898120
2065.4, 0.0899420
2066.22, 0.0900200
2067.05, 0.0903070
2067.87, 0.0905410
2068.7, 0.0903330
2069.52, 0.0903850
2070.35, 0.0906710
2071.18, 0.0910880
2072.0, 0.0912700
2072.83, 0.0910880
2073.66, 0.0910100
2074.49, 0.0912700
2075.32, 0.0917650
2076.15, 0.0921030
2076.98, 0.0920250
2077.82, 0.0919470
2078.65, 0.0922080
2079.48, 0.0922600
2080.32, 0.0922860
2081.15, 0.0926760
2081.99, 0.0930150
2082.83, 0.0932230
2083.66, 0.0931970
2084.5, 0.0930670
2085.34, 0.0931970
2086.18, 0.0935100
2087.02, 0.0936400
2087.86, 0.0937440
2088.7, 0.0937700
2089.54, 0.0934580
2090.39, 0.0934050
2091.23, 0.0937700
2092.07, 0.0940830
2092.92, 0.0942910
2093.76, 0.0942130
2094.61, 0.0944210
2095.45, 0.0945510
2096.3, 0.0946290
2097.15, 0.0948640
2098.0, 0.0949420
2098.85, 0.0947600
2099.7, 0.0949160
2100.55, 0.0952280
2101.4, 0.0951240
2102.25, 0.0950460
2103.1, 0.0953320
2103.96, 0.0953580
2104.81, 0.0952800
2105.67, 0.0953850
2106.52, 0.0953850
2107.38, 0.0956450
2108.24, 0.0957750
2109.09, 0.0957230
2109.95, 0.0956710
2110.81, 0.0956970
2111.67, 0.0958790
2112.53, 0.0962440
2113.39, 0.0960880
2114.25, 0.0959310
2115.12, 0.0961660
2115.98, 0.0964000
2116.84, 0.0965560
2117.71, 0.0964780
2118.58, 0.0966080
2119.44, 0.0967390
2120.31, 0.0968950
2121.18, 0.0971030
2122.04, 0.0971030
2122.91, 0.0969990
2123.78, 0.0971290
2124.65, 0.0972590
2125.52, 0.0972590
2126.4, 0.0973900
2127.27, 0.0975980
2128.14, 0.0976500
2129.02, 0.0977020
2129.89, 0.0978840
2130.77, 0.0978840
2131.64, 0.0974940
2132.52, 0.0975200
2133.4, 0.0977280
2134.27, 0.0979620
2135.15, 0.0979890
2136.03, 0.0978840
2136.91, 0.0979890
2137.79, 0.0982490
2138.68, 0.0985870
2139.56, 0.0985090
2140.44, 0.0980670
2141.33, 0.0984310
2142.21, 0.0986400
2143.1, 0.0984050
2143.99, 0.0984050
2144.87, 0.0987180
2145.76, 0.0988220
2146.65, 0.0989260
2147.54, 0.0990300
2148.43, 0.0988480
2149.32, 0.0987440
2150.21, 0.0988740
2151.1, 0.0990560
2151.99, 0.0990820
2152.89, 0.0991600
2153.78, 0.0993170
2154.68, 0.0992910
2155.57, 0.0993690
2156.47, 0.0992640
2157.37, 0.0994470
2158.27, 0.0994210
2159.16, 0.0993430
2160.06, 0.0993690
2160.96, 0.0993430
2161.86, 0.0993690
2162.77, 0.0997070
2163.67, 0.100176
2164.57, 0.100150
2165.48, 0.0999680
2166.38, 0.100098
2167.29, 0.100254
2168.2, 0.100540
2169.1, 0.100384
2170.01, 0.100228
2170.92, 0.100358
2171.83, 0.100593
2172.74, 0.101009
2173.65, 0.101139
2174.56, 0.100957
2175.47, 0.100983
2176.39, 0.100957
2177.3, 0.100983
2178.22, 0.101113
2179.13, 0.101165
2180.05, 0.101217
2180.96, 0.101426
2181.88, 0.101634
2182.8, 0.101556
2183.72, 0.101504
2184.64, 0.101764
2185.56, 0.101790
2186.48, 0.101660
2187.41, 0.101712
2188.33, 0.101712
2189.25, 0.101582
2190.18, 0.101738
2191.1, 0.101921
2192.03, 0.101973
2192.96, 0.102181
2193.89, 0.102259
2194.82, 0.102285
2195.74, 0.102259
2196.68, 0.102051
2197.61, 0.102207
2198.54, 0.102441
2199.47, 0.102415
2200.4, 0.102103
2201.34, 0.102077
2202.28, 0.102129
2203.21, 0.101973
2204.15, 0.102077
2205.08, 0.102285
2206.02, 0.102129
2206.96, 0.102285
2207.9, 0.102207
2208.84, 0.101999
2209.78, 0.102025
2210.73, 0.102233
2211.67, 0.102363
2212.61, 0.102181
2213.56, 0.102103
2214.5, 0.102077
2215.45, 0.101999
2216.4, 0.101999
2217.35, 0.101999
2218.3, 0.102155
2219.24, 0.102285
2220.2, 0.102051
2221.15, 0.101947
2222.1, 0.102207
2223.05, 0.102389
2224.0, 0.102572
2224.96, 0.102546
2225.91, 0.102624
2226.87, 0.102676
2227.83, 0.102493
2228.79, 0.102441
2229.74, 0.102624
2230.7, 0.102832
2231.66, 0.102676
2232.63, 0.102650
2233.59, 0.102858
2234.55, 0.102806
2235.51, 0.102650
2236.48, 0.102858
2237.44, 0.102910
2238.41, 0.102884
2239.38, 0.102858
2240.34, 0.102988
2241.31, 0.103170
2242.28, 0.102832
2243.25, 0.102493
2244.22, 0.102598
2245.19, 0.102650
2246.17, 0.102519
2247.14, 0.102572
2248.12, 0.102598
2249.09, 0.102415
2250.07, 0.102519
2251.04, 0.102702
2252.02, 0.102493
2253.0, 0.102311
2253.98, 0.102181
2254.96, 0.101921
2255.94, 0.101868
2256.92, 0.101947
2257.91, 0.101895
2258.89, 0.101634
2259.88, 0.101608
2260.86, 0.101634
2261.85, 0.101686
2262.83, 0.101530
2263.82, 0.101244
2264.81, 0.100983
2265.8, 0.100749
2266.79, 0.100619
2267.78, 0.100514
2268.78, 0.100306
2269.77, 0.100046
2270.76, 0.100072
2271.76, 0.100020
2272.75, 0.0998370
2273.75, 0.0998890
2274.75, 0.0998370
2275.75, 0.0995770
2276.75, 0.0994210
2277.75, 0.0993430
2278.75, 0.0990040
2279.75, 0.0985870
2280.75, 0.0984310
2281.76, 0.0982230
2282.76, 0.0980930
2283.77, 0.0978060
2284.77, 0.0977280
2285.78, 0.0977280
2286.79, 0.0976240
2287.8, 0.0971550
2288.81, 0.0969990
2289.82, 0.0968950
2290.83, 0.0967390
2291.84, 0.0965820
2292.86, 0.0964000
2293.87, 0.0961140
2294.89, 0.0960620
2295.91, 0.0958270
2296.92, 0.0954630
2297.94, 0.0953580
2298.96, 0.0952020
2299.98, 0.0950200
2301.0, 0.0946810
2302.02, 0.0942130
2303.04, 0.0941610
2304.07, 0.0939780
2305.09, 0.0939520
2306.12, 0.0939260
2307.15, 0.0936660
2308.17, 0.0933790
2309.2, 0.0929890
2310.23, 0.0927020
2311.26, 0.0925720
2312.29, 0.0924160
2313.32, 0.0920510
2314.35, 0.0917130
2315.39, 0.0916870
2316.42, 0.0916090
2317.46, 0.0913740
2318.5, 0.0911400
2319.53, 0.0908010
2320.57, 0.0903850
2321.61, 0.0899420
2322.65, 0.0897080
2323.69, 0.0894210
2324.73, 0.0892130
2325.78, 0.0891350
2326.82, 0.0886920
2327.86, 0.0881970
2328.91, 0.0877550
2329.96, 0.0876250
2331.01, 0.0873900
2332.05, 0.0872600
2333.1, 0.0869740
2334.15, 0.0866610
2335.21, 0.0862180
2336.26, 0.0856720
2337.31, 0.0852030
2338.36, 0.0850470
2339.42, 0.0848380
2340.48, 0.0844480
2341.53, 0.0841350
2342.59, 0.0837450
2343.65, 0.0835360
2344.71, 0.0832240
2345.77, 0.0825990
2346.83, 0.0821300
2347.9, 0.0818440
2348.96, 0.0815570
2350.02, 0.0812450
2351.09, 0.0808540
2352.16, 0.0805680
2353.23, 0.0802290
2354.29, 0.0799690
2355.36, 0.0795780
2356.43, 0.0790310
2357.51, 0.0786670
2358.58, 0.0783800
2359.65, 0.0781980
2360.73, 0.0777810
2361.8, 0.0772350
2362.88, 0.0767920
2363.96, 0.0761930
2365.03, 0.0757240
2366.11, 0.0754900
2367.19, 0.0750990
2368.27, 0.0749170
2369.36, 0.0745790
2370.44, 0.0741620
2371.53, 0.0736670
2372.61, 0.0733550
2373.7, 0.0731200
2374.78, 0.0727300
2375.87, 0.0722350
2376.96, 0.0718180
2378.05, 0.0715580
2379.14, 0.0712980
2380.24, 0.0708290
2381.33, 0.0705420
2382.42, 0.0703340
2383.52, 0.0701260
2384.61, 0.0697870
2385.71, 0.0693970
2386.81, 0.0689280
2387.91, 0.0684070
2389.01, 0.0684070
2390.11, 0.0681990
2391.22, 0.0677300
2392.32, 0.0672870
2393.42, 0.0670010
2394.53, 0.0666880
2395.64, 0.0664020
2396.74, 0.0661940
2397.85, 0.0660900
2398.96, 0.0659330
2400.07, 0.0655430
2401.18, 0.0653600
2402.3, 0.0651780
2403.41, 0.0648400
2404.52, 0.0644490
2405.64, 0.0641370
2406.76, 0.0640580
2407.88, 0.0639540
2408.99, 0.0636680
2410.11, 0.0634330
2411.23, 0.0634070
2412.36, 0.0633030
2413.48, 0.0631470
2414.6, 0.0628350
2415.73, 0.0624960
2416.85, 0.0623920
2417.98, 0.0621840
2419.11, 0.0620010
2420.24, 0.0618970
2421.37, 0.0618450
2422.5, 0.0617930
2423.64, 0.0617150
2424.77, 0.0614540
2425.9, 0.0610900
2427.04, 0.0607510
2428.18, 0.0606210
2429.31, 0.0606210
2430.45, 0.0603610
2431.59, 0.0601260
2432.73, 0.0599700
2433.88, 0.0599960
2435.02, 0.0598660
2436.16, 0.0596580
2437.31, 0.0594750
2438.45, 0.0592150
2439.6, 0.0591630
2440.75, 0.0591890
2441.9, 0.0590070
2443.05, 0.0587980
2444.2, 0.0585380
2445.35, 0.0584860
2446.51, 0.0584080
2447.67, 0.0581990
2448.82, 0.0578350
2449.98, 0.0576000
2451.14, 0.0574180
2452.3, 0.0574440
2453.46, 0.0574180
2454.62, 0.0571840
2455.78, 0.0571840
2456.94, 0.0570020
2458.11, 0.0566630
2459.28, 0.0563510
2460.44, 0.0561680
2461.61, 0.0561940
2462.78, 0.0560120
2463.95, 0.0558040
2465.12, 0.0557780
2466.3, 0.0559080
2467.47, 0.0559860
2468.65, 0.0559860
2469.82, 0.0559600
2471.0, 0.0559080
2472.18, 0.0559600
2473.36, 0.0559860
2474.54, 0.0557520
2475.72, 0.0555430
2476.9, 0.0555950
2478.08, 0.0557260
2479.27, 0.0557000
2480.46, 0.0556210
2481.64, 0.0557000
2482.83, 0.0557780
2484.02, 0.0555950
2485.21, 0.0553870
2486.4, 0.0552830
2487.6, 0.0551010
2488.79, 0.0551010
2489.99, 0.0551530
2491.18, 0.0549960
2492.38, 0.0548140
2493.58, 0.0547360
2494.78, 0.0547100
2495.98, 0.0545020
2497.18, 0.0542930
2498.39, 0.0540850
2499.59, 0.0539030
2500.8, 0.0539290
2502.01, 0.0537990
2503.21, 0.0535120
2504.42, 0.0532780
2505.63, 0.0529910
2506.84, 0.0527570
2508.06, 0.0526530
2509.27, 0.0524450
2510.49, 0.0524190
2511.7, 0.0523400
2512.92, 0.0520280
2514.14, 0.0516630
2515.36, 0.0515330
2516.58, 0.0513250
2517.8, 0.0510900
2519.03, 0.0508560
2520.25, 0.0505700
2521.48, 0.0503350
2522.7, 0.0500750
2523.93, 0.0497880
2525.16, 0.0496320
2526.39, 0.0493720
2527.62, 0.0490590
2528.86, 0.0488770
2530.09, 0.0486690
2531.33, 0.0484340
2532.56, 0.0482260
2533.8, 0.0481740
2535.04, 0.0480440
2536.28, 0.0476790
2537.52, 0.0475230
2538.76, 0.0476790
2540.01, 0.0476010
2541.25, 0.0473410
2542.5, 0.0471320
2543.75, 0.0470280
2544.99, 0.0470540
2546.24, 0.0470020
2547.49, 0.0467680
2548.75, 0.0467420
2550.0, 0.0466380
2551.26, 0.0465070
2552.51, 0.0465600
2553.77, 0.0465330
2555.03, 0.0465070
2556.29, 0.0464810
2557.55, 0.0465070
2558.81, 0.0465860
2560.08, 0.0464550
2561.34, 0.0460650
2562.61, 0.0458820
2563.88, 0.0458300
2565.14, 0.0460390
2566.41, 0.0461690
2567.68, 0.0460650
2568.96, 0.0458300
2570.23, 0.0457520
2571.51, 0.0456740
2572.78, 0.0453100
2574.06, 0.0454660
2575.34, 0.0457000
2576.62, 0.0453620
2577.9, 0.0452310
2579.18, 0.0452840
2580.47, 0.0452580
2581.75, 0.0452580
2583.04, 0.0448670
2584.32, 0.0446850
2585.61, 0.0448670
2586.9, 0.0445540
2588.2, 0.0446070
2589.49, 0.0445540
2590.78, 0.0446590
2592.08, 0.0446590
2593.37, 0.0438250
2594.67, 0.0429140
2595.97, 0.0434090
2597.27, 0.0441640
2598.57, 0.0444500
2599.88, 0.0442160
2601.18, 0.0438770
2602.49, 0.0438770
2603.79, 0.0436690
2605.1, 0.0432000
2606.41, 0.0432520
2607.72, 0.0432260
2609.03, 0.0432000
2610.35, 0.0433830
2611.66, 0.0434090
2612.98, 0.0432000
2614.3, 0.0430700
2615.62, 0.0427060
2616.94, 0.0424190
2618.26, 0.0425750
2619.58, 0.0423930
2620.91, 0.0423150
2622.23, 0.0424450
2623.56, 0.0424970
2624.89, 0.0423150
2626.22, 0.0417160
2627.55, 0.0418460
2628.88, 0.0417940
2630.21, 0.0412730
2631.55, 0.0414040
2632.89, 0.0414560
2634.22, 0.0414040
2635.56, 0.0415860
2636.9, 0.0414040
2638.25, 0.0409090
2639.59, 0.0408050
2640.93, 0.0408050
2642.28, 0.0406480
2643.63, 0.0405700
2644.98, 0.0404140
2646.33, 0.0403620
2647.68, 0.0401800
2649.03, 0.0400760
2650.39, 0.0398670
2651.74, 0.0395030
2653.1, 0.0394250
2654.46, 0.0393200
2655.82, 0.0390340
2657.18, 0.0389040
2658.54, 0.0386430
2659.9, 0.0385910
2661.27, 0.0384350
2662.64, 0.0381490
2664.01, 0.0375500
2665.38, 0.0371070
2666.74, 0.0367160
2668.12, 0.0366380
2669.49, 0.0360650
2670.87, 0.0358050
2672.24, 0.0362480
2673.62, 0.0360650
2675.0, 0.0355450
2676.38, 0.0351280
2677.76, 0.0351020
2679.15, 0.0350240
2680.54, 0.0349200
2681.92, 0.0345550
2683.31, 0.0341640
2684.7, 0.0339300
2686.09, 0.0336180
2687.48, 0.0332790
2688.88, 0.0330190
2690.27, 0.0327840
2691.67, 0.0323160
2693.07, 0.0316390
2694.47, 0.0312740
2695.87, 0.0310660
2697.27, 0.0310140
2698.67, 0.0306490
2700.08, 0.0299980
2701.49, 0.0296860
2702.9, 0.0293990
2704.31, 0.0289830
2705.72, 0.0285140
2707.13, 0.0280970
2708.54, 0.0275760
2709.96, 0.0268990
2711.38, 0.0264830
2712.8, 0.0263000
2714.22, 0.0258840
2715.64, 0.0254670
2717.06, 0.0248940
2718.49, 0.0241390
2719.91, 0.0234360
2721.34, 0.0231500
2722.77, 0.0227330
2724.2, 0.0221080
2725.63, 0.0217950
2727.07, 0.0215350
2728.5, 0.0211970
2729.94, 0.0207020
2731.38, 0.0202070
2732.82, 0.0198160
2734.26, 0.0195040
2735.7, 0.0191910
2737.15, 0.0188790
2738.59, 0.0183840
2740.04, 0.0179940
2741.49, 0.0178890
2742.94, 0.0177850
2744.39, 0.0176030
2745.84, 0.0173950
2747.3, 0.0172380
2748.76, 0.0170300
2750.21, 0.0167440
2751.67, 0.0163790
2753.14, 0.0160150
2754.6, 0.0156500
2756.06, 0.0154680
2757.53, 0.0153900
2759.0, 0.0151550
2760.46, 0.0148690
2761.94, 0.0147130
2763.41, 0.0146080
2764.88, 0.0142700
2766.36, 0.0139310
2767.83, 0.0137750
2769.31, 0.0136190
2770.79, 0.0134630
2772.27, 0.0132800
2773.76, 0.0130200
2775.24, 0.0126550
2776.73, 0.0124470
2778.22, 0.0122650
2779.71, 0.0121090
2781.2, 0.0120300
2782.69, 0.0119000
2784.18, 0.0115360
2785.68, 0.0113010
2787.18, 0.0111450
2788.68, 0.0109370
2790.18, 0.0106760
2791.68, 0.0104680
2793.19, 0.0102860
2794.69, 0.0100770
2796.2, 0.00992100
2797.71, 0.00989500
2799.22, 0.00976500
2800.73, 0.00942600
2802.24, 0.00914000
2803.76, 0.00911400
2805.28, 0.00908800
2806.8, 0.00901000
2808.32, 0.00893200
2809.84, 0.00880200
2811.36, 0.00869700
2812.89, 0.00859300
2814.42, 0.00861900
2815.94, 0.00859300
2817.48, 0.00864500
2819.01, 0.00882800
2820.54, 0.00893200
2822.08, 0.00911400
2823.61, 0.00942600
2825.15, 0.00955700
2826.69, 0.00955700
2828.23, 0.00971300
2829.78, 0.00992100
2831.32, 0.0101300
2832.87, 0.0101040
2834.42, 0.00999900
2835.97, 0.0100770
2837.52, 0.0100250
2839.08, 0.00997300
2840.63, 0.00994700
2842.19, 0.00979100
2843.75, 0.00973900
2845.31, 0.00971300
2846.87, 0.00976500
2848.44, 0.00973900
2850.0, 0.00971300
2851.57, 0.00960900
2853.14, 0.00942600
2854.71, 0.00934800
2856.28, 0.00942600
2857.86, 0.00947900
2859.43, 0.00950500
2861.01, 0.00942600
2862.59, 0.00927000
2864.17, 0.00924400
2865.76, 0.00921800
2867.34, 0.00919200
2868.93, 0.00924400
2870.52, 0.00929600
2872.11, 0.00929600
2873.7, 0.00927000
2875.29, 0.00934800
2876.89, 0.00942600
2878.49, 0.00945300
2880.08, 0.00937400
2881.69, 0.00934800
2883.29, 0.00934800
2884.89, 0.00940000
2886.5, 0.00934800
2888.11, 0.00929600
2889.72, 0.00934800
2891.33, 0.00947900
2892.94, 0.00958300
2894.56, 0.00958300
2896.17, 0.00955700
2897.79, 0.00953100
2899.42, 0.00953100
2901.04, 0.00953100
2902.66, 0.00953100
2904.29, 0.00947900
2905.92, 0.00950500
2907.55, 0.00960900
2909.18, 0.00973900
2910.81, 0.00968700
2912.45, 0.00960900
2914.08, 0.00960900
2915.72, 0.00958300
2917.36, 0.00960900
2919.01, 0.00963500
2920.65, 0.00955700
2922.3, 0.00947900
2923.94, 0.00953100
2925.59, 0.00979100
2927.25, 0.00986900
2928.9, 0.00986900
2930.56, 0.00992100
2932.21, 0.00989500
2933.87, 0.00981700
2935.53, 0.00984300
2937.2, 0.00994700
2938.86, 0.00999900
2940.53, 0.0100770
2942.2, 0.0100770
2943.87, 0.0100250
2945.54, 0.0100510
2947.22, 0.0101300
2948.89, 0.0101560
2950.57, 0.0102340
2952.25, 0.0103900
2953.93, 0.0104420
2955.62, 0.0105200
2957.3, 0.0105720
2958.99, 0.0105720
2960.68, 0.0107020
2962.37, 0.0107020
2964.07, 0.0105720
2965.76, 0.0105460
2967.46, 0.0107280
2969.16, 0.0108330
2970.86, 0.0108850
2972.56, 0.0109370
2974.27, 0.0109370
2975.98, 0.0109370
2977.69, 0.0109630
2979.4, 0.0108590
2981.11, 0.0109110
2982.83, 0.0111190
2984.54, 0.0110930
2986.26, 0.0111970
2987.98, 0.0114060
2989.71, 0.0114320
2991.43, 0.0114320
2993.16, 0.0113270
2994.89, 0.0113790
2996.62, 0.0114840
2998.35, 0.0115880
3000.09, 0.0115880
3001.83, 0.0116140
3003.57, 0.0116400
3005.31, 0.0116920
3007.05, 0.0117700
3008.79, 0.0118740
3010.54, 0.0119000
3012.29, 0.0119260
3014.04, 0.0119520
3015.8, 0.0120300
3017.55, 0.0120570
3019.31, 0.0120830
3021.07, 0.0121350
3022.83, 0.0122130
3024.59, 0.0122130
3026.36, 0.0122910
3028.13, 0.0122910
3029.9, 0.0123690
3031.67, 0.0125510
3033.44, 0.0125510
3035.22, 0.0125510
3037.0, 0.0126290
3038.78, 0.0126290
3040.56, 0.0126030
3042.34, 0.0126550
3044.13, 0.0126810
3045.92, 0.0127860
3047.71, 0.0128640
3049.5, 0.0129160
3051.3, 0.0129940
3053.09, 0.0129420
3054.89, 0.0129160
3056.69, 0.0129940
3058.5, 0.0130980
3060.3, 0.0130980
3062.11, 0.0132540
3063.92, 0.0133590
3065.73, 0.0133320
3067.55, 0.0133060
3069.36, 0.0134110
3071.18, 0.0134890
3073.0, 0.0135410
3074.82, 0.0136450
3076.65, 0.0137230
3078.48, 0.0136970
3080.31, 0.0136970
3082.14, 0.0137230
3083.97, 0.0138010
3085.8, 0.0139830
3087.64, 0.0140620
3089.48, 0.0140100
3091.33, 0.0140360
3093.17, 0.0142180
3095.02, 0.0144000
3096.87, 0.0142960
3098.72, 0.0141660
3100.57, 0.0143480
3102.43, 0.0145820
3104.28, 0.0146610
3106.14, 0.0146340
3108.01, 0.0146870
3109.87, 0.0148690
3111.74, 0.0149210
3113.61, 0.0149210
3115.48, 0.0150770
3117.35, 0.0151810
3119.23, 0.0151550
3121.1, 0.0152850
3122.98, 0.0154160
3124.87, 0.0153640
3126.75, 0.0153900
3128.64, 0.0154420
3130.53, 0.0154680
3132.42, 0.0155720
3134.31, 0.0156240
3136.21, 0.0158060
3138.11, 0.0158840
3140.01, 0.0159360
3141.91, 0.0159630
3143.82, 0.0160150
3145.73, 0.0160670
3147.64, 0.0162230
3149.55, 0.0163010
3151.46, 0.0161970
3153.38, 0.0162490
3155.3, 0.0164830
3157.22, 0.0166140
3159.14, 0.0166400
3161.07, 0.0166400
3163.0, 0.0166140
3164.93, 0.0167700
3166.86, 0.0169520
3168.8, 0.0170040
3170.74, 0.0170300
3172.68, 0.0171080
3174.62, 0.0172120
3176.56, 0.0171860
3178.51, 0.0172380
3180.46, 0.0173430
3182.42, 0.0174470
3184.37, 0.0174470
3186.33, 0.0175510
3188.29, 0.0176550
3190.25, 0.0176810
3192.21, 0.0178110
3194.18, 0.0178110
3196.15, 0.0177330
3198.12, 0.0177850
3200.09, 0.0177850
3202.07, 0.0177850
3204.05, 0.0179160
3206.03, 0.0179160
3208.02, 0.0179680
3210.0, 0.0181240
3211.99, 0.0180460
3213.98, 0.0180460
3215.98, 0.0181240
3217.97, 0.0181500
3219.97, 0.0182280
3221.97, 0.0182540
3223.98, 0.0182280
3225.98, 0.0183060
3227.99, 0.0182800
3230.0, 0.0183060
3232.02, 0.0183840
3234.03, 0.0184620
3236.05, 0.0184880
3238.07, 0.0184100
3240.1, 0.0184360
3242.12, 0.0184880
3244.15, 0.0184880
3246.18, 0.0184880
3248.22, 0.0185400
3250.25, 0.0186190
3252.29, 0.0186190
3254.33, 0.0185930
3256.38, 0.0185930
3258.43, 0.0185930
3260.47, 0.0185140
3262.53, 0.0185930
3264.58, 0.0186970
3266.64, 0.0186710
3268.7, 0.0186190
3270.76, 0.0185670
3272.82, 0.0185400
3274.89, 0.0185140
3276.96, 0.0185140
3279.04, 0.0185930
3281.11, 0.0186710
3283.19, 0.0186450
3285.27, 0.0186450
3287.35, 0.0186710
3289.44, 0.0187490
3291.53, 0.0187750
3293.62, 0.0187490
3295.71, 0.0187230
3297.81, 0.0185670
3299.91, 0.0186190
3302.01, 0.0187230
3304.11, 0.0186970
3306.22, 0.0187230
3308.33, 0.0186450
3310.44, 0.0186710
3312.56, 0.0186710
3314.68, 0.0185930
3316.8, 0.0185140
3318.92, 0.0184880
3321.05, 0.0185670
3323.18, 0.0186190
3325.31, 0.0186190
3327.44, 0.0185400
3329.58, 0.0185400
3331.72, 0.0186190
3333.86, 0.0186190
3336.01, 0.0185140
3338.16, 0.0184360
3340.31, 0.0183840
3342.46, 0.0184100
3344.61, 0.0184620
3346.77, 0.0184620
3348.94, 0.0184100
3351.1, 0.0183580
3353.27, 0.0183580
3355.44, 0.0184100
3357.61, 0.0183840
3359.79, 0.0183580
3361.97, 0.0183060
3364.15, 0.0182280
3366.33, 0.0182280
3368.52, 0.0183320
3370.71, 0.0183320
3372.9, 0.0183060
3375.1, 0.0182800
3377.3, 0.0182800
3379.5, 0.0182020
3381.71, 0.0181760
3383.91, 0.0182280
3386.12, 0.0182540
3388.34, 0.0181500
3390.55, 0.0181240
3392.77, 0.0181760
3394.99, 0.0180980
3397.22, 0.0179940
3399.45, 0.0180460
3401.68, 0.0180980
3403.91, 0.0180720
3406.15, 0.0182020
3408.39, 0.0182280
3410.63, 0.0181760
3412.87, 0.0182280
3415.12, 0.0181500
3417.37, 0.0180460
3419.63, 0.0180720
3421.88, 0.0181760
3424.14, 0.0182280
3426.41, 0.0182280
3428.67, 0.0180980
3430.94, 0.0181240
3433.21, 0.0182020
3435.49, 0.0182020
3437.77, 0.0180720
3440.05, 0.0180460
3442.33, 0.0181240
3444.62, 0.0180980
3446.91, 0.0180200
3449.2, 0.0179940
3451.5, 0.0180460
3453.8, 0.0180720
3456.1, 0.0180720
3458.41, 0.0181240
3460.72, 0.0181760
3463.03, 0.0181500
3465.34, 0.0181500
3467.66, 0.0182020
3469.98, 0.0181760
3472.31, 0.0182540
3474.63, 0.0182540
3476.96, 0.0181760
3479.3, 0.0182540
3481.64, 0.0183320
3483.97, 0.0182020
3486.32, 0.0182020
3488.66, 0.0183580
3491.01, 0.0184360
3493.36, 0.0183840
3495.72, 0.0183320
3498.08, 0.0183840
3500.44, 0.0184880
3502.81, 0.0184360
3505.18, 0.0184880
3507.55, 0.0185670
3509.92, 0.0185400
3512.3, 0.0185930
3514.68, 0.0185930
3517.06, 0.0185930
3519.45, 0.0186190
3521.84, 0.0186970
3524.24, 0.0186970
3526.64, 0.0186450
3529.04, 0.0186710
3531.44, 0.0188010
3533.85, 0.0189310
3536.26, 0.0188530
3538.67, 0.0188270
3541.09, 0.0189050
3543.51, 0.0189050
3545.93, 0.0189050
3548.36, 0.0188270
3550.79, 0.0188010
3553.22, 0.0189050
3555.66, 0.0190090
3558.1, 0.0190090
3560.54, 0.0190350
3562.99, 0.0191130
3565.44, 0.0191650
3567.9, 0.0191910
3570.35, 0.0191910
3572.81, 0.0192440
3575.28, 0.0192440
3577.75, 0.0192700
3580.22, 0.0193220
3582.69, 0.0193220
3585.17, 0.0193740
3587.65, 0.0194000
3590.14, 0.0193740
3592.62, 0.0194260
3595.11, 0.0194260
3597.61, 0.0194780
3600.11, 0.0195560
3602.61, 0.0195560
3605.11, 0.0194780
3607.62, 0.0195560
3610.14, 0.0195820
3612.65, 0.0195560
3615.17, 0.0195300
3617.69, 0.0196080
3620.22, 0.0197380
3622.75, 0.0197380
3625.28, 0.0196600
3627.82, 0.0196340
3630.36, 0.0196860
3632.9, 0.0198420
3635.45, 0.0198950
3638.0, 0.0198690
3640.56, 0.0197900
3643.12, 0.0197640
3645.68, 0.0198420
3648.24, 0.0199210
3650.81, 0.0199210
3653.39, 0.0199730
3655.96, 0.0199470
3658.54, 0.0198420
3661.13, 0.0198690
3663.71, 0.0199730
3666.3, 0.0200250
3668.9, 0.0200250
3671.5, 0.0199470
3674.1, 0.0199210
3676.7, 0.0199730
3679.31, 0.0200250
3681.93, 0.0201030
3684.54, 0.0200250
3687.17, 0.0200250
3689.79, 0.0200510
3692.42, 0.0201550
3695.05, 0.0201030
3697.69, 0.0200510
3700.32, 0.0201550
3702.97, 0.0201290
3705.61, 0.0201030
3708.27, 0.0201550
3710.92, 0.0202070
3713.58, 0.0202850
3716.24, 0.0203110
3718.91, 0.0203110
3721.58, 0.0203110
3724.25, 0.0202850
3726.93, 0.0203110
3729.61, 0.0203370
3732.29, 0.0203110
3734.98, 0.0203630
3737.67, 0.0204410
3740.37, 0.0204670
3743.07, 0.0204410
3745.78, 0.0203890
3748.49, 0.0204410
3751.2, 0.0204410
3753.91, 0.0203890
3756.63, 0.0204670
3759.36, 0.0204930
3762.09, 0.0205460
3764.82, 0.0205720
3767.55, 0.0205460
3770.29, 0.0205200
3773.04, 0.0205720
3775.78, 0.0205720
3778.54, 0.0205980
3781.29, 0.0206240
3784.05, 0.0207020
3786.82, 0.0207540
3789.59, 0.0207800
3792.36, 0.0208320
3795.13, 0.0208060
3797.92, 0.0207540
3800.7, 0.0207280
3803.49, 0.0207280
3806.28, 0.0207540
3809.08, 0.0208060
3811.88, 0.0208060
3814.68, 0.0208580
3817.49, 0.0209100
3820.31, 0.0209360
3823.12, 0.0209620
3825.94, 0.0210140
3828.77, 0.0210140
3831.6, 0.0210400
3834.43, 0.0209880
3837.27, 0.0210140
3840.11, 0.0210400
3842.96, 0.0211180
3845.81, 0.0211440
3848.67, 0.0211180
3851.53, 0.0211440
3854.39, 0.0211440
3857.26, 0.0210920
3860.13, 0.0211440
3863.01, 0.0211180
3865.89, 0.0210660
3868.77, 0.0211180
3871.66, 0.0212230
3874.55, 0.0212750
3877.45, 0.0212750
3880.35, 0.0212750
3883.26, 0.0213530
3886.17, 0.0213790
3889.09, 0.0213530
3892.01, 0.0213530
3894.93, 0.0213790
3897.86, 0.0213530
3900.79, 0.0212750
3903.73, 0.0212750
3906.67, 0.0213270
3909.62, 0.0213270
3912.57, 0.0213270
3915.52, 0.0212750
3918.48, 0.0213530
3921.45, 0.0214310
3924.42, 0.0214050
3927.39, 0.0213530
3930.37, 0.0213270
3933.35, 0.0213010
3936.34, 0.0213010
3939.33, 0.0213270
3942.32, 0.0214050
3945.32, 0.0214050
3948.33, 0.0213010
3951.34, 0.0212750
3954.35, 0.0212750
3957.37, 0.0212750
3960.39, 0.0212750
3963.42, 0.0212230
3966.45, 0.0211970
3969.49, 0.0211710
3972.53, 0.0211180
3975.58, 0.0210660
3978.63, 0.0210400
3981.68, 0.0210140
3984.75, 0.0209880
3987.81, 0.0209620
3990.88, 0.0209620
3993.95, 0.0209100
3997.03, 0.0208320
4000.12, 0.0208840
4003.21, 0.0209620
4006.3, 0.0209620
4009.4, 0.0209360
4012.5, 0.0208580
4015.61, 0.0208060
4018.72, 0.0207800
4021.84, 0.0207800
4024.96, 0.0207280
4028.09, 0.0206760
4031.22, 0.0206500
4034.36, 0.0206760
4037.5, 0.0207020
4040.65, 0.0206760
4043.8, 0.0207020
4046.96, 0.0207540
4050.12, 0.0207540
4053.29, 0.0207020
4056.46, 0.0206240
4059.64, 0.0205720
4062.82, 0.0205200
4066.0, 0.0204930
4069.19, 0.0205460
4072.39, 0.0205980
4075.59, 0.0205720
4078.8, 0.0205460
4082.01, 0.0204930
4085.23, 0.0204410
4088.45, 0.0204930
4091.68, 0.0205720
4094.91, 0.0205200
4098.15, 0.0204410
4101.39, 0.0204670
4104.63, 0.0205200
4107.89, 0.0205720
4111.14, 0.0205460
4114.41, 0.0204150
4117.67, 0.0203890
4120.95, 0.0204670
4124.23, 0.0205460
4127.51, 0.0205980
4130.8, 0.0205200
4134.09, 0.0204670
4137.39, 0.0205200
4140.7, 0.0204410
4144.01, 0.0203630
4147.32, 0.0203630
4150.64, 0.0204670
4153.97, 0.0204930
4157.3, 0.0204670
4160.64, 0.0205200
4163.98, 0.0205720
4167.33, 0.0205980
4170.68, 0.0206240
4174.04, 0.0205460
4177.4, 0.0205460
4180.77, 0.0205460
4184.14, 0.0205200
4187.52, 0.0205720
4190.91, 0.0206240
4194.3, 0.0205720
4197.69, 0.0204930
4201.1, 0.0204670
4204.5, 0.0204670
4207.92, 0.0204150
4211.34, 0.0203630
4214.76, 0.0203370
4218.19, 0.0203110
4221.62, 0.0202590
4225.06, 0.0201550
4228.51, 0.0200770
4231.96, 0.0200250
4235.42, 0.0199470
4238.88, 0.0199730
4242.35, 0.0200770
4245.83, 0.0202330
4249.31, 0.0203890
4252.79, 0.0205200
4256.28, 0.0205460
4259.78, 0.0205720
4263.29, 0.0205460
4266.79, 0.0204930
4270.31, 0.0204410
4273.83, 0.0204150
4277.35, 0.0203890
4280.89, 0.0203630
4284.42, 0.0204670
4287.97, 0.0205200
4291.52, 0.0205720
4295.07, 0.0206240
4298.63, 0.0206500
4302.2, 0.0207020
4305.78, 0.0207280
4309.35, 0.0207800
4312.94, 0.0208580
4316.53, 0.0209360
4320.13, 0.0209880
4323.73, 0.0209620
4327.34, 0.0209360
4330.96, 0.0210400
4334.58, 0.0211180
4338.21, 0.0211440
4341.84, 0.0210920
4345.48, 0.0210920
4349.12, 0.0210660
4352.77, 0.0211180
4356.43, 0.0211440
4360.1, 0.0211440
4363.76, 0.0211180
4367.44, 0.0211970
4371.12, 0.0211710
4374.81, 0.0210920
4378.51, 0.0211440
4382.21, 0.0212750
4385.92, 0.0213270
4389.63, 0.0212490
4393.35, 0.0211970
4397.08, 0.0211970
4400.81, 0.0212230
4404.55, 0.0211970
4408.29, 0.0211710
4412.04, 0.0211440
4415.8, 0.0211440
4419.57, 0.0211710
4423.34, 0.0212230
4427.12, 0.0212230
4430.9, 0.0212750
4434.69, 0.0213010
4438.49, 0.0212490
4442.29, 0.0212230
4446.1, 0.0212490
4449.92, 0.0211970
4453.74, 0.0211970
4457.57, 0.0211970
4461.41, 0.0211970
4465.25, 0.0212230
4469.1, 0.0211970
4472.95, 0.0211970
4476.82, 0.0212230
4480.69, 0.0211710
4484.56, 0.0211710
4488.44, 0.0211970
4492.33, 0.0211180
4496.23, 0.0210920
4500.13, 0.0211710
4504.04, 0.0211970
4507.96, 0.0210400
4511.88, 0.0210660
4515.81, 0.0211440
4519.75, 0.0211440
4523.69, 0.0211710
4527.65, 0.0211710
4531.6, 0.0211180
4535.57, 0.0210660
4539.54, 0.0210660
4543.52, 0.0211180
4547.5, 0.0211180
4551.5, 0.0210920
4555.5, 0.0210400
4559.5, 0.0210660
4563.52, 0.0210660
4567.54, 0.0210920
4571.56, 0.0211970
4575.6, 0.0211970
4579.64, 0.0210400
4583.69, 0.0210660
4587.75, 0.0210920
4591.81, 0.0210920
4595.88, 0.0211710
4599.96, 0.0211440
4604.04, 0.0210140
4608.14, 0.0209880
4612.24, 0.0210660
4616.34, 0.0211440
4620.46, 0.0211440
4624.58, 0.0211710
4628.71, 0.0211710
4632.84, 0.0211970
4636.99, 0.0211970
4641.14, 0.0211440
4645.3, 0.0211970
4649.47, 0.0212230
4653.64, 0.0212230
4657.82, 0.0212750
4662.01, 0.0212750
4666.21, 0.0212750
4670.41, 0.0213010
4674.62, 0.0213270
4678.84, 0.0213790
4683.07, 0.0214050
4687.3, 0.0214050
4691.54, 0.0215090
4695.79, 0.0215870
4700.05, 0.0215870
4704.31, 0.0215870
4708.59, 0.0215610
4712.87, 0.0216130
4717.15, 0.0216650
4721.45, 0.0216650
4725.76, 0.0217170
4730.07, 0.0217950
4734.39, 0.0217690
4738.72, 0.0217430
4743.05, 0.0218480
4747.39, 0.0219260
4751.75, 0.0219520
4756.1, 0.0219000
4760.47, 0.0219520
4764.85, 0.0219260
4769.23, 0.0219260
4773.62, 0.0219260
4778.02, 0.0220040
4782.43, 0.0220560
4786.85, 0.0220820
4791.27, 0.0221600
4795.7, 0.0222120
4800.14, 0.0221600
4804.59, 0.0221860
4809.05, 0.0222380
4813.51, 0.0223160
4817.99, 0.0223420
4822.47, 0.0223940
4826.96, 0.0224730
4831.46, 0.0225250
4835.96, 0.0224460
4840.48, 0.0224460
4845.0, 0.0224460
4849.54, 0.0223680
4854.08, 0.0223420
4858.63, 0.0223940
4863.18, 0.0224730
4867.75, 0.0225250
4872.33, 0.0224990
4876.91, 0.0224200
4881.5, 0.0223160
4886.1, 0.0223420
4890.71, 0.0224200
4895.33, 0.0223940
4899.96, 0.0224200
4904.59, 0.0225250
4909.24, 0.0224990
4913.89, 0.0224460
4918.55, 0.0224200
4923.22, 0.0224730
4927.9, 0.0224990
4932.59, 0.0224990
4937.29, 0.0224990
4942.0, 0.0226030
4946.71, 0.0226550
4951.44, 0.0226030
4956.17, 0.0226030
4960.91, 0.0226810
4965.67, 0.0227590
4970.43, 0.0227850
4975.2, 0.0227590
4979.98, 0.0228110
4984.76, 0.0228370
4989.56, 0.0228890
4994.37, 0.0228890
4999.18, 0.0229410
5004.01, 0.0229930
5008.84, 0.0230450
5013.69, 0.0230450
5018.54, 0.0230450
5023.4, 0.0230450
5028.28, 0.0230450
5033.16, 0.0230450
5038.05, 0.0230710
5042.95, 0.0231760
5047.86, 0.0233320
5052.78, 0.0233320
5057.71, 0.0233320
5062.65, 0.0234360
5067.6, 0.0235400
5072.56, 0.0235400
5077.53, 0.0235140
5082.5, 0.0235400
5087.49, 0.0236440
5092.49, 0.0236960
5097.5, 0.0236700
5102.51, 0.0236700
5107.54, 0.0236960
5112.58, 0.0236700
5117.62, 0.0236960
5122.68, 0.0236440
5127.75, 0.0236700
5132.82, 0.0237220
5137.91, 0.0237480
5143.01, 0.0237220
5148.12, 0.0236700
5153.23, 0.0236700
5158.36, 0.0237220
5163.5, 0.0236700
5168.65, 0.0235920
5173.81, 0.0235920
5178.98, 0.0236180
5184.15, 0.0236180
5189.34, 0.0235920
5194.54, 0.0234880
5199.75, 0.0233840
5204.98, 0.0234360
5210.21, 0.0233580
5215.45, 0.0232540
5220.7, 0.0233320
5225.96, 0.0233060
5231.23, 0.0232020
5236.52, 0.0231240
5241.81, 0.0230970
5247.12, 0.0230710
5252.44, 0.0230450
5257.76, 0.0230450
5263.1, 0.0229930
5268.45, 0.0228890
5273.81, 0.0228370
5279.18, 0.0228370
5284.56, 0.0228110
5289.95, 0.0227330
5295.36, 0.0227070
5300.77, 0.0227330
5306.2, 0.0226810
5311.63, 0.0225770
5317.08, 0.0224990
5322.54, 0.0224730
5328.01, 0.0224990
5333.49, 0.0223940
5338.98, 0.0222900
5344.49, 0.0221860
5350.0, 0.0220820
5355.53, 0.0220820
5361.07, 0.0220040
5366.62, 0.0219260
5372.18, 0.0219260
5377.75, 0.0219260
5383.34, 0.0218740
5388.93, 0.0217950
5394.54, 0.0216650
5400.16, 0.0215610
5405.79, 0.0214830
5411.44, 0.0214050
5417.09, 0.0212230
5422.76, 0.0210400
5428.43, 0.0211970
5434.12, 0.0212750
5439.83, 0.0211440
5445.54, 0.0209620
5451.26, 0.0208580
5457.0, 0.0208060
5462.75, 0.0207800
5468.52, 0.0207540
5474.29, 0.0206760
5480.08, 0.0205200
5485.88, 0.0205200
5491.69, 0.0205200
5497.51, 0.0204410
5503.35, 0.0202850
5509.2, 0.0201290
5515.06, 0.0200770
5520.93, 0.0199470
5526.82, 0.0198690
5532.71, 0.0197640
5538.63, 0.0196860
5544.55, 0.0195560
5550.49, 0.0193740
5556.44, 0.0192700
5562.4, 0.0191910
5568.37, 0.0191130
5574.36, 0.0189050
5580.36, 0.0186970
5586.37, 0.0186710
5592.4, 0.0186450
5598.44, 0.0184880
5604.49, 0.0183320
5610.56, 0.0182280
5616.63, 0.0180980
5622.73, 0.0179680
5628.83, 0.0178630
5634.95, 0.0176810
5641.08, 0.0174470
5647.23, 0.0173690
5653.39, 0.0173170
5659.56, 0.0172910
5665.74, 0.0171340
5671.94, 0.0168480
5678.15, 0.0166920
5684.38, 0.0165610
5690.62, 0.0164050
5696.87, 0.0163530
5703.14, 0.0161970
5709.42, 0.0159630
5715.72, 0.0158840
5722.03, 0.0157540
5728.35, 0.0155980
5734.69, 0.0154680
5741.03, 0.0153120
5747.4, 0.0150510
5753.78, 0.0149210
5760.17, 0.0146080
5766.58, 0.0142440
5773.0, 0.0142700
5779.44, 0.0142700
5785.88, 0.0141920
5792.35, 0.0141140
5798.83, 0.0138530
5805.32, 0.0136190
5811.83, 0.0134630
5818.35, 0.0130980
5824.89, 0.0128380
5831.45, 0.0128640
5838.01, 0.0127600
5844.59, 0.0126550
5851.19, 0.0124470
5857.8, 0.0122390
5864.43, 0.0120300
5871.07, 0.0118480
5877.73, 0.0115360
5884.4, 0.0113270
5891.09, 0.0113010
5897.79, 0.0112490
5904.5, 0.0111970
5911.23, 0.0109890
5917.98, 0.0108590
5924.75, 0.0107550
5931.53, 0.0104420
5938.32, 0.0102600
5945.13, 0.0102600
5951.96, 0.0101300
5958.8, 0.00999900
5965.65, 0.00984300
5972.53, 0.00976500
5979.42, 0.00968700
5986.32, 0.00953100
5993.24, 0.00947900
6000.18, 0.00947900
6007.13, 0.00942600
6014.1, 0.00934800
6021.08, 0.00940000
6028.09, 0.00963500
6035.1, 0.00989500
6042.14, 0.0100510
6049.19, 0.0102860
6056.25, 0.0109370
6063.34, 0.0114840
6070.44, 0.0117960
6077.55, 0.0121350
6084.69, 0.0124470
6091.84, 0.0126810
6099.0, 0.0128380
6106.19, 0.0129160
6113.39, 0.0129420
6120.61, 0.0131240
6127.84, 0.0133060
6135.09, 0.0133850
6142.36, 0.0135150
6149.65, 0.0137490
6156.95, 0.0138530
6164.27, 0.0139830
6171.61, 0.0140620
6178.97, 0.0139830
6186.34, 0.0139830
6193.73, 0.0142180
6201.14, 0.0144000
6208.57, 0.0144780
6216.01, 0.0144780
6223.47, 0.0145040
6230.95, 0.0145040
6238.45, 0.0145040
6245.97, 0.0145300
6253.5, 0.0145040
6261.06, 0.0144520
6268.63, 0.0145560
6276.21, 0.0145820
6283.82, 0.0145560
6291.45, 0.0144780
6299.1, 0.0145040
6306.76, 0.0145040
6314.44, 0.0144260
6322.14, 0.0145040
6329.86, 0.0145300
6337.6, 0.0143220
6345.35, 0.0141660
6353.13, 0.0143740
6360.92, 0.0144000
6368.74, 0.0142960
6376.57, 0.0144260
6384.43, 0.0144520
6392.3, 0.0144260
6400.19, 0.0143220
6408.1, 0.0139830
6416.03, 0.0138270
6423.98, 0.0140360
6431.95, 0.0141140
6439.94, 0.0142700
6447.95, 0.0142960
6455.98, 0.0141660
6464.03, 0.0140880
6472.1, 0.0140880
6480.19, 0.0140620
6488.31, 0.0138270
6496.44, 0.0137490
6504.59, 0.0140100
6512.76, 0.0141140
6520.95, 0.0140620
6529.16, 0.0140880
6537.4, 0.0140360
6545.65, 0.0139830
6553.92, 0.0139310
6562.22, 0.0138270
6570.54, 0.0136450
6578.88, 0.0137490
6587.23, 0.0138270
6595.61, 0.0137490
6604.02, 0.0137750
6612.44, 0.0137490
6620.89, 0.0136450
6629.35, 0.0133320
6637.84, 0.0131760
6646.35, 0.0134110
6654.88, 0.0135410
6663.44, 0.0134630
6672.01, 0.0133850
6680.61, 0.0132800
6689.23, 0.0132280
6697.88, 0.0132280
6706.54, 0.0131240
6715.23, 0.0130980
6723.94, 0.0131240
6732.67, 0.0131240
6741.42, 0.0131240
6750.2, 0.0131500
6759.0, 0.0130720
6767.82, 0.0129940
6776.67, 0.0128640
6785.54, 0.0127080
6794.44, 0.0127340
6803.35, 0.0128120
6812.29, 0.0127340
6821.26, 0.0126030
6830.24, 0.0125510
6839.25, 0.0126550
6848.29, 0.0125770
6857.35, 0.0123690
6866.43, 0.0123690
6875.54, 0.0125250
6884.67, 0.0124990
6893.82, 0.0124210
6903.0, 0.0123950
6912.2, 0.0124210
6921.43, 0.0123950
6930.69, 0.0123430
6939.96, 0.0121610
6949.27, 0.0120830
6958.59, 0.0120300
6967.95, 0.0120040
6977.33, 0.0119520
6986.73, 0.0119000
6996.16, 0.0118480
7005.61, 0.0119000
7015.09, 0.0119260
7024.6, 0.0118480
7034.13, 0.0117700
7043.69, 0.0116920
7053.27, 0.0117180
7062.88, 0.0116660
7072.52, 0.0115880
7082.18, 0.0115620
7091.87, 0.0115100
7101.58, 0.0114580
7111.32, 0.0113530
7121.09, 0.0113010
7130.88, 0.0112750
7140.71, 0.0111450
7150.56, 0.0110150
7160.43, 0.0108850
7170.33, 0.0108590
7180.27, 0.0109110
7190.23, 0.0108850
7200.21, 0.0107020
7210.23, 0.0105460
7220.27, 0.0104680
7230.34, 0.0104420
7240.44, 0.0104420
7250.56, 0.0102860
7260.72, 0.0101300
7270.9, 0.00994700
7281.12, 0.00986900
7291.36, 0.00973900
7301.63, 0.00971300
7311.93, 0.00968700
7322.25, 0.00953100
7332.61, 0.00940000
7343.0, 0.00937400
7353.41, 0.00932200
7363.86, 0.00916600
7374.33, 0.00898400
7384.83, 0.00890600
7395.37, 0.00880200
7405.93, 0.00867100
7416.53, 0.00848900
7427.15, 0.00838500
7437.81, 0.00830700
7448.5, 0.00815100
7459.22, 0.00796800
7469.96, 0.00789000
7480.74, 0.00778600
7491.55, 0.00760400
7502.39, 0.00744700
7513.27, 0.00739500
7524.17, 0.00729100
7535.11, 0.00716100
7546.08, 0.00705700
7557.08, 0.00695300
7568.11, 0.00674400
7579.17, 0.00656200
7590.27, 0.00645800
7601.4, 0.00632800
7612.56, 0.00625000
7623.76, 0.00611900
7634.98, 0.00588500
7646.24, 0.00578100
7657.54, 0.00567700
7668.87, 0.00562500
7680.23, 0.00549400
7691.62, 0.00526000
7703.05, 0.00505200
7714.51, 0.00489600
7726.01, 0.00481700
7737.54, 0.00466100
7749.11, 0.00458300
7760.71, 0.00447900
7772.35, 0.00427100
7784.02, 0.00421800
7795.72, 0.00432300
7807.46, 0.00427100
7819.23, 0.00416600
7831.04, 0.00419200
7842.89, 0.00429700
7854.77, 0.00434900
7866.69, 0.00447900
7878.65, 0.00473900
7890.64, 0.00502600
7902.67, 0.00528600
7914.74, 0.00565100
7926.84, 0.00609300
7938.98, 0.00653600
7951.16, 0.00697900
7963.37, 0.00742100
7975.62, 0.00796800
7987.91, 0.00864500
8000.24, 0.00940000
8012.6, 0.0101820
8025.01, 0.0110150
8037.45, 0.0119520
8049.93, 0.0128900
8062.45, 0.0138790
8075.01, 0.0149990
8087.61, 0.0161450
8100.24, 0.0173170
8112.91, 0.0185400
8125.63, 0.0198420
8138.39, 0.0211180
8151.18, 0.0222120
8164.02, 0.0232800
8176.9, 0.0242950
8189.81, 0.0252070
8202.77, 0.0259360
8215.77, 0.0265350
8228.82, 0.0270560
8241.9, 0.0274720
8255.02, 0.0275500
8268.19, 0.0274460
8281.39, 0.0273680
8294.65, 0.0271860
8307.94, 0.0266910
8321.28, 0.0258060
8334.66, 0.0246340
8348.08, 0.0234100
8361.54, 0.0222120
8375.05, 0.0210660
8388.6, 0.0199730
8402.2, 0.0190350
8415.84, 0.0182020
8429.52, 0.0175510
8443.25, 0.0171080
8457.02, 0.0169520
8470.84, 0.0169260
8484.7, 0.0172380
8498.61, 0.0179160
8512.57, 0.0188270
8526.57, 0.0200250
8540.62, 0.0215870
8554.71, 0.0234100
8568.85, 0.0253110
8583.04, 0.0270560
8597.27, 0.0285920
8611.55, 0.0300760
8625.88, 0.0315600
8640.26, 0.0328620
8654.68, 0.0340080
8669.16, 0.0351540
8683.68, 0.0361440
8698.25, 0.0371330
8712.87, 0.0382270
8727.53, 0.0392680
8742.25, 0.0402840
8757.02, 0.0412470
8771.83, 0.0423670
8786.7, 0.0436170
8801.62, 0.0448410
8816.59, 0.0461170
8831.61, 0.0473930
8846.68, 0.0483560
8861.8, 0.0491110
8876.97, 0.0498670
8892.2, 0.0505960
8907.48, 0.0514030
8922.81, 0.0520280
8938.2, 0.0523140
8953.63, 0.0527830
8969.13, 0.0534080
8984.67, 0.0539030
9000.27, 0.0543450
9015.92, 0.0547100
9031.63, 0.0548400
9047.39, 0.0547360
9063.21, 0.0544760
9079.08, 0.0538510
9095.01, 0.0527570
9111.0, 0.0515590
9127.04, 0.0504920
9143.13, 0.0493460
9159.28, 0.0481220
9175.49, 0.0470800
9191.76, 0.0464290
9208.09, 0.0459610
9224.47, 0.0457000
9240.92, 0.0459090
9257.42, 0.0465070
9273.98, 0.0474710
9290.6, 0.0488770
9307.28, 0.0505180
9324.02, 0.0522360
9340.82, 0.0539810
9357.68, 0.0556740
9374.6, 0.0572880
9391.58, 0.0586680
9408.62, 0.0595800
9425.73, 0.0603870
9442.9, 0.0614280
9460.13, 0.0625220
9477.42, 0.0636160
9494.78, 0.0647350
9512.2, 0.0655690
9529.69, 0.0661420
9547.24, 0.0666620
9564.86, 0.0666360
9582.54, 0.0661420
9600.28, 0.0652560
9618.1, 0.0640320
9635.97, 0.0626260
9653.92, 0.0611680
9671.93, 0.0596060
9690.01, 0.0581990
9708.16, 0.0571320
9726.37, 0.0561420
9744.65, 0.0546060
9763.0, 0.0527830
9781.43, 0.0512990
9799.92, 0.0504920
9818.48, 0.0507780
9837.1, 0.0519500
9855.8, 0.0531740
9874.58, 0.0538770
9893.42, 0.0542930
9912.34, 0.0537210
9931.33, 0.0535380
9950.39, 0.0541110
9969.52, 0.0546320
9988.74, 0.0551010
10008.0, 0.0554130
10027.4, 0.0551010
10046.8, 0.0546060
10066.3, 0.0538510
10085.9, 0.0526270
10105.6, 0.0512470
10125.3, 0.0500490
10145.1, 0.0488770
10165.0, 0.0476530
10185.0, 0.0462210
10205.0, 0.0449970
10225.2, 0.0438510
10245.4, 0.0427580
10265.7, 0.0417420
10286.0, 0.0408570
10306.5, 0.0399450
10327.0, 0.0391380
10347.6, 0.0383050
10368.3, 0.0377580
10389.1, 0.0371590
10409.9, 0.0363000
10430.9, 0.0355190
10451.9, 0.0351020
10473.0, 0.0345550
10494.2, 0.0338780
10515.5, 0.0330970
10536.9, 0.0324460
10558.4, 0.0320290
10579.9, 0.0315080
10601.5, 0.0310140
10623.3, 0.0306230
10645.1, 0.0301280
10667.0, 0.0296860
10689.0, 0.0293730
10711.1, 0.0292170
10733.2, 0.0288780
10755.5, 0.0286440
10777.9, 0.0284100
10800.3, 0.0280450
10822.9, 0.0276020
10845.5, 0.0272380
10868.2, 0.0270030
10891.1, 0.0267170
10914.0, 0.0264830
10937.0, 0.0263260
10960.2, 0.0259880
10983.4, 0.0255450
11006.7, 0.0252070
11030.1, 0.0250770
11053.6, 0.0248680
11077.3, 0.0246080
11101.0, 0.0241910
11124.8, 0.0238270
11148.7, 0.0237480
11172.7, 0.0236180
11196.9, 0.0233320
11221.1, 0.0231500
11245.4, 0.0227070
11269.9, 0.0223680
11294.4, 0.0221860
11319.1, 0.0219520
11343.9, 0.0214830
11368.8, 0.0212230
11393.7, 0.0210140
11418.8, 0.0207280
11444.0, 0.0204930
11469.4, 0.0203370
11494.8, 0.0202590
11520.3, 0.0201030
11546.0, 0.0197900
11571.8, 0.0195040
11597.7, 0.0193740
11623.7, 0.0191910
11649.8, 0.0188270
11676.0, 0.0184880
11702.4, 0.0183840
11728.9, 0.0183840
11755.5, 0.0184360
11782.2, 0.0182280
11809.0, 0.0180980
11836.0, 0.0180460
11863.0, 0.0177330
11890.3, 0.0175250
11917.6, 0.0176550
11945.0, 0.0177850
11972.6, 0.0176810
12000.4, 0.0175770
12028.2, 0.0175770
12056.2, 0.0174470
12084.3, 0.0173950
12112.5, 0.0174210
12140.9, 0.0173430
12169.4, 0.0171860
12198.0, 0.0172120
12226.8, 0.0173430
12255.7, 0.0170040
12284.7, 0.0168740
12313.9, 0.0171600
12343.2, 0.0170300
12372.7, 0.0169520
12402.3, 0.0171080
12432.0, 0.0171080
12461.9, 0.0168480
12491.9, 0.0166400
12522.1, 0.0164830
12552.4, 0.0166920
12582.9, 0.0167700
12613.5, 0.0167440
12644.3, 0.0167700
12675.2, 0.0166400
12706.3, 0.0165350
12737.5, 0.0163790
12768.9, 0.0163270
12800.4, 0.0161710
12832.1, 0.0159630
12863.9, 0.0160150
12895.9, 0.0161970
12928.1, 0.0162230
12960.4, 0.0160150
12992.9, 0.0159360
13025.5, 0.0163010
13058.3, 0.0166140
13091.3, 0.0166920
13124.4, 0.0168740
13157.8, 0.0168740
13191.2, 0.0165090
13224.9, 0.0160930
13258.7, 0.0158840
13292.7, 0.0161710
13326.9, 0.0166660
13361.2, 0.0166920
13395.7, 0.0166140
13430.4, 0.0169780
13465.3, 0.0171600
13500.4, 0.0170300
13535.7, 0.0169260
13571.1, 0.0170300
13606.7, 0.0171340
13642.5, 0.0172910
13678.5, 0.0174470
13714.7, 0.0175250
13751.1, 0.0175770
13787.6, 0.0176290
13824.4, 0.0176810
13861.4, 0.0178890
13898.5, 0.0179680
13935.9, 0.0179160
13973.5, 0.0178110
14011.2, 0.0174210
14049.2, 0.0173430
14087.4, 0.0178110
14125.8, 0.0181500
14164.3, 0.0179680
14203.2, 0.0174730
14242.2, 0.0171860
14281.4, 0.0174210
14320.9, 0.0173950
14360.5, 0.0173430
14400.4, 0.0174470
14440.5, 0.0175250
14480.9, 0.0176030
14521.4, 0.0173950
14562.2, 0.0168740
14603.3, 0.0168220
14644.5, 0.0171080
14686.0, 0.0169000
14727.7, 0.0163270
14769.7, 0.0159360
14811.9, 0.0161190
14854.3, 0.0163790
14897.0, 0.0161710
14939.9, 0.0159890
14983.1, 0.0160410
15026.5, 0.0161450
15070.2, 0.0157540
15114.2, 0.0155980
15158.3, 0.0156240
15202.8, 0.0152590
15247.5, 0.0149730
15292.5, 0.0146080
15337.7, 0.0143480
15383.2, 0.0146340
15429.0, 0.0152850
15475.1, 0.0155460
15521.4, 0.0155980
15568.0, 0.0159100
15614.9, 0.0161710
15662.1, 0.0165350
15709.6, 0.0165090
15757.3, 0.0161970
15805.4, 0.0162750
15853.7, 0.0166920
15902.3, 0.0169260
15951.2, 0.0173430
16000.5, 0.0185670
16050.0, 0.0201030
16099.8, 0.0215610
16150.0, 0.0231500
16200.5, 0.0246860
16251.3, 0.0257540
16302.4, 0.0259620
16353.8, 0.0257540
16405.5, 0.0257010
16457.6, 0.0255710
16510.0, 0.0251810
16562.8, 0.0245560
16615.9, 0.0247120
16669.3, 0.0245040
16723.1, 0.0241910
16777.2, 0.0241390
16831.7, 0.0240870
16886.5, 0.0242430
16941.7, 0.0242950
16997.2, 0.0239310
17053.1, 0.0236960
17109.4, 0.0231760
17166.1, 0.0230190
17223.1, 0.0235400
17280.5, 0.0239310
17338.3, 0.0241130
17396.5, 0.0246080
17455.1, 0.0258060
17514.0, 0.0270030
17573.4, 0.0275500
17633.2, 0.0280970
17693.4, 0.0296070
17754.0, 0.0313260
17815.0, 0.0315080
17876.4, 0.0309880
17938.3, 0.0306750
18000.5, 0.0307010
18063.3, 0.0309360
18126.4, 0.0309090
18190.0, 0.0302850
18254.1, 0.0300760
18318.6, 0.0295550
18383.5, 0.0293730
18449.0, 0.0291650
18514.9, 0.0288000
18581.2, 0.0284620
18648.0, 0.0282270
18715.4, 0.0276540
18783.2, 0.0276540
18851.5, 0.0275500
18920.3, 0.0273940
18989.6, 0.0274980
19059.4, 0.0275500
19129.7, 0.0266910
19200.6, 0.0264050
19272.0, 0.0256490
19343.9, 0.0243210
19416.3, 0.0236700
19489.3, 0.0250240
19562.8, 0.0260660
19637.0, 0.0248940
19711.6, 0.0227070
19786.8, 0.0227850
19862.6, 0.0240610
19939.0, 0.0244780
20016.0, 0.0232020
20093.6, 0.0217430
20171.8, 0.0223420
20250.6, 0.0233840
20330.0, 0.0231240
20410.0, 0.0217170
20490.7, 0.0215610
20572.0, 0.0229930
20654.0, 0.0233840
20736.6, 0.0227850
20819.9, 0.0226550
20903.8, 0.0240090
20988.5, 0.0243470
21073.8, 0.0234360
21159.8, 0.0229670
21246.5, 0.0237750
21334.0, 0.0248160
21422.1, 0.0261440
21511.0, 0.0257010
21600.7, 0.0257540
21691.0, 0.0273680
21782.1, 0.0277330
21874.0, 0.0266390
21966.7, 0.0257280
22060.2, 0.0266390
22154.5, 0.0287220
22249.6, 0.0291130
22345.5, 0.0290610
22442.2, 0.0288780
22539.8, 0.0292170
22638.2, 0.0297640
22737.5, 0.0293730
22837.7, 0.0294510
22938.7, 0.0286440
23040.7, 0.0281750
23143.5, 0.0289300
23247.3, 0.0268470
23352.1, 0.0246080
23457.7, 0.0266650
23564.4, 0.0316910
23672.0, 0.0309090
23780.5, 0.0261180
23890.1, 0.0262480
24000.7, 0.0302850
24112.3, 0.0286700
