Database of Origin, USGS Spectral Database
Sample Description, See USGS database for additional info
Date Added,2016-08-03 20:51:37.946296

Data ID,USGS_alb05          
Sample ID, albite_hs324.3b.402
Mineral Name, albite
Material Class,Tectosilicate

Wavelength
248.1, 0.532922
253.6, 0.534233
258.6, 0.538864
263.6, 0.541949
268.6, 0.553439
273.1, 0.561442
277.1, 0.566717
281.1, 0.574970
285.1, 0.580261
289.1, 0.586031
293.1, 0.599981
297.1, 0.606018
301.1, 0.618124
305.1, 0.626941
309.1, 0.637196
313.1, 0.644402
317.1, 0.652254
321.1, 0.662678
325.1, 0.669825
329.1, 0.676601
333.1, 0.682434
337.1, 0.682557
341.1, 0.695668
345.1, 0.700609
349.1, 0.708734
353.1, 0.717341
357.1, 0.726082
360.6, 0.733216
363.6, 0.732453
366.6, 0.741225
369.6, 0.741400
372.6, 0.746728
375.6, 0.750753
378.6, 0.752969
381.1, 0.751561
383.1, 0.758883
385.1, 0.762207
387.1, 0.766771
389.1, 0.767765
391.1, 0.766077
393.1, 0.770056
395.1, 0.772468
397.1, 0.775185
399.1, 0.773799
401.1, 0.778908
403.1, 0.780906
405.1, 0.783372
407.1, 0.782912
409.1, 0.783941
411.1, 0.780113
412.8, 0.786475
415.8, 0.786531
418.8, 0.789314
421.8, 0.790421
424.8, 0.792117
427.8, 0.797940
430.8, 0.799128
433.8, 0.799063
436.8, 0.799543
439.8, 0.804232
442.8, 0.803878
445.8, 0.805128
448.8, 0.805849
451.3, 0.808788
453.3, 0.809660
455.3, 0.806684
457.3, 0.812453
459.3, 0.808901
461.3, 0.812286
463.3, 0.816747
465.3, 0.815289
467.3, 0.816453
469.3, 0.815565
471.3, 0.818601
473.3, 0.822296
475.3, 0.816483
477.3, 0.819620
479.3, 0.822912
481.3, 0.815880
483.3, 0.823867
485.3, 0.821933
487.3, 0.823063
489.3, 0.823627
491.3, 0.824222
493.3, 0.827206
495.3, 0.821076
497.3, 0.829040
499.3, 0.827071
501.3, 0.824710
503.3, 0.823988
505.3, 0.824154
507.3, 0.826580
509.3, 0.827877
511.3, 0.829375
513.3, 0.832816
515.3, 0.828324
517.3, 0.825167
519.3, 0.832306
521.3, 0.833218
523.3, 0.829390
525.3, 0.833294
527.3, 0.831307
529.3, 0.834315
531.3, 0.834337
533.3, 0.830600
535.3, 0.832170
537.3, 0.835775
539.3, 0.835740
541.3, 0.835417
543.3, 0.833424
545.3, 0.832455
547.3, 0.833210
549.3, 0.837256
551.3, 0.832625
553.3, 0.834992
555.3, 0.832974
557.3, 0.830084
559.3, 0.830967
561.3, 0.835433
563.3, 0.831459
565.3, 0.829525
567.3, 0.831489
569.3, 0.836248
571.3, 0.833392
573.3, 0.831559
575.3, 0.832022
577.3, 0.830685
579.3, 0.831419
581.3, 0.830684
583.3, 0.831980
585.3, 0.828539
587.3, 0.826759
589.3, 0.832733
591.3, 0.832258
593.3, 0.832732
595.3, 0.826480
597.3, 0.831535
599.3, 0.832032
601.1, 0.831871
602.7, 0.830826
604.3, 0.828918
605.9, 0.831441
607.5, 0.828020
609.1, 0.830011
610.7, 0.828841
612.3, 0.832265
613.9, 0.829405
615.5, 0.830480
617.1, 0.829085
618.7, 0.827944
620.3, 0.828925
621.9, 0.824832
623.5, 0.829236
625.1, 0.828168
626.7, 0.827560
628.3, 0.826864
629.9, 0.827466
631.7, 0.831802
633.7, 0.828256
635.7, 0.831183
637.7, 0.830142
639.7, 0.830986
641.7, 0.831504
643.7, 0.827831
645.7, 0.829317
647.7, 0.830663
649.7, 0.831307
651.7, 0.830980
653.7, 0.830974
655.7, 0.830772
657.7, 0.829660
659.7, 0.833239
661.7, 0.829730
663.7, 0.831126
665.7, 0.835214
667.7, 0.834858
670.2, 0.832665
673.2, 0.834777
676.2, 0.839624
679.2, 0.833324
682.2, 0.838046
685.2, 0.835645
688.2, 0.839208
691.2, 0.841805
694.2, 0.838818
697.2, 0.841056
700.2, 0.844824
702.0, 0.842964
704.0, 0.843755
706.0, 0.845428
708.0, 0.844956
710.0, 0.844111
712.0, 0.845254
714.0, 0.844470
716.0, 0.846662
718.0, 0.847956
720.0, 0.847849
722.0, 0.852257
724.0, 0.848660
726.0, 0.851745
728.0, 0.855550
730.0, 0.855191
732.0, 0.859557
734.0, 0.855421
736.0, 0.854959
738.0, 0.854155
740.0, 0.855319
742.0, 0.857578
744.0, 0.861862
746.0, 0.859087
748.0, 0.862777
750.5, 0.860393
753.5, 0.862302
756.5, 0.859568
759.5, 0.862220
762.5, 0.865435
765.5, 0.867045
768.5, 0.869072
771.5, 0.867957
774.5, 0.869199
777.5, 0.872152
781.0, 0.873930
785.0, 0.871369
789.0, 0.874271
793.0, 0.880048
797.0, 0.873760
801.5, 0.875545
806.5, 0.882605
811.5, 0.881571
816.5, 0.881556
822.0, 0.878139
828.0, 0.882467
835.0, 0.880715
851.0, 0.894132
859.0, 0.886733
871.0, 0.891046
883.0, 0.887631
894.0, 0.890293
904.0, 0.893861
914.0, 0.890424
924.0, 0.894544
933.0, 0.893550
941.0, 0.886555
949.0, 0.893496
957.0, 0.888270
964.0, 0.888546
970.0, 0.888590
976.0, 0.894813
982.0, 0.893851
988.0, 0.891728
994.0, 0.889976
1000.0, 0.894338
1006.0, 0.895155
1012.0, 0.893497
1018.0, 0.890213
1023.5, 0.895036
1028.5, 0.892128
1033.5, 0.891183
1038.5, 0.894807
1043.5, 0.893277
1048.5, 0.893333
1053.5, 0.894913
1058.5, 0.899789
1063.5, 0.894680
1068.5, 0.894392
1073.5, 0.892835
1078.5, 0.893175
1083.5, 0.892512
1088.5, 0.894539
1093.5, 0.892742
1098.5, 0.898584
1103.5, 0.893175
1108.5, 0.895094
1113.5, 0.894266
1118.5, 0.892718
1123.5, 0.896466
1128.5, 0.895793
1133.5, 0.898073
1138.5, 0.894437
1143.5, 0.894315
1148.5, 0.897409
1153.5, 0.896438
1158.5, 0.895548
1163.5, 0.891550
1168.5, 0.894799
1173.5, 0.891068
1178.5, 0.890917
1183.5, 0.894354
1188.5, 0.891422
1193.5, 0.892911
1198.5, 0.894834
1203.5, 0.896114
1208.5, 0.894239
1213.5, 0.895317
1218.5, 0.896139
1223.5, 0.896757
1228.5, 0.893733
1233.5, 0.895932
1238.5, 0.893476
1243.5, 0.898684
1248.5, 0.897770
1253.5, 0.892453
1258.5, 0.899395
1263.5, 0.895977
1268.5, 0.895390
1273.5, 0.899141
1278.5, 0.894467
1283.5, 0.894396
1288.5, 0.893971
1293.5, 0.894315
1298.5, 0.894198
1303.5, 0.895182
1308.5, 0.895493
1313.5, 0.893376
1318.5, 0.892958
1323.5, 0.897961
1328.5, 0.895870
1333.5, 0.891596
1338.5, 0.890661
1343.5, 0.893077
1348.5, 0.890431
1353.5, 0.895270
1358.5, 0.892238
1363.5, 0.889731
1368.5, 0.884457
1373.5, 0.889630
1378.5, 0.892914
1383.5, 0.881427
1388.5, 0.876630
1393.5, 0.858918
1398.5, 0.831447
1403.5, 0.814793
1408.5, 0.804675
1413.5, 0.806305
1418.5, 0.837485
1423.5, 0.859242
1428.5, 0.871759
1433.5, 0.874396
1438.5, 0.877288
1443.5, 0.874092
1448.5, 0.876369
1453.5, 0.878534
1458.5, 0.880895
1463.5, 0.879393
1468.5, 0.880785
1473.5, 0.883703
1478.5, 0.877768
1483.5, 0.879736
1488.5, 0.884955
1493.5, 0.884705
1498.5, 0.884072
1503.5, 0.885766
1508.5, 0.885803
1513.5, 0.884795
1518.5, 0.889367
1523.5, 0.889362
1528.5, 0.890936
1534.0, 0.891425
1540.0, 0.890154
1546.0, 0.890155
1552.0, 0.891978
1558.0, 0.893935
1564.0, 0.895049
1570.5, 0.894014
1577.5, 0.896614
1584.5, 0.892630
1591.5, 0.895391
1598.5, 0.894595
1605.5, 0.897910
1612.5, 0.895322
1619.5, 0.896372
1626.5, 0.889730
1633.5, 0.896927
1640.5, 0.897794
1647.5, 0.897096
1654.5, 0.893293
1661.5, 0.897018
1668.5, 0.895845
1676.0, 0.897210
1684.0, 0.893735
1692.0, 0.887641
1700.0, 0.897873
1708.0, 0.897486
1716.0, 0.891939
1724.0, 0.896176
1732.0, 0.892353
1740.0, 0.886851
1748.0, 0.897726
1756.0, 0.896577
1764.0, 0.895228
1772.0, 0.894414
1780.0, 0.896011
1788.0, 0.889235
1796.0, 0.892733
1805.0, 0.891628
1815.0, 0.890758
1825.0, 0.889121
1835.0, 0.887738
1845.0, 0.888315
1855.0, 0.892684
1865.0, 0.884372
1875.0, 0.880272
1885.0, 0.872999
1895.0, 0.866768
1905.0, 0.834465
1915.0, 0.830292
1925.0, 0.822519
1935.0, 0.819383
1945.0, 0.822625
1955.0, 0.822725
1965.0, 0.824787
1975.0, 0.836716
1985.0, 0.841743
1995.0, 0.847411
2005.0, 0.852092
2015.0, 0.856734
2025.0, 0.859225
2035.0, 0.862608
2045.0, 0.867878
2055.0, 0.871484
2065.0, 0.874703
2075.0, 0.874890
2085.0, 0.873015
2095.0, 0.871335
2105.0, 0.863700
2115.0, 0.869610
2125.0, 0.868913
2135.0, 0.869940
2145.0, 0.863802
2155.0, 0.865200
2165.0, 0.842841
2175.0, 0.813133
2185.0, 0.769206
2195.0, 0.742559
2205.0, 0.766612
2215.0, 0.773433
2225.0, 0.817092
2235.0, 0.840343
2245.0, 0.842190
2255.0, 0.847937
2265.0, 0.839193
2275.0, 0.847356
2285.0, 0.840449
2295.0, 0.833560
2305.0, 0.827084
2315.0, 0.813326
2325.0, 0.799754
2335.0, 0.786946
2345.0, 0.780229
2355.0, 0.778873
2365.0, 0.787524
2375.0, 0.788417
2386.0, 0.787293
2400.0, 0.780118
2418.0, 0.764830
2440.0, 0.742856
2466.0, 0.741432
2496.0, 0.753793
2528.0, 0.761698
2560.0, 0.752761
2592.0, 0.739156
2624.0, 0.728571
2656.0, 0.705831
2688.0, 0.625366
2720.0, 0.462955
2752.0, 0.324135
2784.0, 0.312078
2816.0, 0.303154
2848.0, 0.253964
2880.0, 0.264335
2912.0, 0.251749
2944.0, 0.255251
2976.0, 0.273061
