Database of Origin, USGS Spectral Database
Sample Description, See USGS database for additional info
Date Added,2016-08-10 03:01:49.288912

Data ID,USGS_hyp18          
Sample ID, hypersthene_pyx02.10859
Mineral Name, hypersthene
Material Class,Inosilicate

Wavelength
1607.49, 0.109267
1607.99, 0.109412
1608.49, 0.109899
1608.99, 0.109406
1609.49, 0.109044
1609.99, 0.109108
1610.49, 0.108778
1610.99, 0.108607
1611.49, 0.108674
1611.99, 0.108197
1612.49, 0.108218
1612.99, 0.108466
1613.49, 0.108357
1614.0, 0.107928
1614.5, 0.107569
1615.0, 0.107696
1615.51, 0.107551
1616.01, 0.107302
1616.51, 0.107273
1617.02, 0.107189
1617.52, 0.107035
1618.03, 0.106904
1618.53, 0.106149
1619.04, 0.105973
1619.54, 0.106235
1620.05, 0.106513
1620.55, 0.106563
1621.06, 0.106392
1621.57, 0.105882
1622.08, 0.105006
1622.58, 0.105170
1623.09, 0.105941
1623.6, 0.105740
1624.11, 0.105175
1624.62, 0.104937
1625.13, 0.104615
1625.64, 0.104336
1626.15, 0.104749
1626.66, 0.104620
1627.17, 0.104079
1627.68, 0.104044
1628.19, 0.104235
1628.7, 0.103874
1629.21, 0.103432
1629.72, 0.103417
1630.24, 0.103350
1630.75, 0.103322
1631.26, 0.102979
1631.78, 0.102689
1632.29, 0.102799
1632.8, 0.102860
1633.32, 0.102534
1633.83, 0.102307
1634.35, 0.102585
1634.86, 0.102719
1635.38, 0.102250
1635.9, 0.102299
1636.41, 0.102283
1636.93, 0.101654
1637.45, 0.101482
1637.96, 0.101318
1638.48, 0.100708
1639.0, 0.100767
1639.52, 0.100937
1640.04, 0.100817
1640.56, 0.100856
1641.08, 0.100876
1641.59, 0.100500
1642.11, 0.100276
1642.63, 0.0999480
1643.16, 0.100006
1643.68, 0.100061
1644.2, 0.0997250
1644.72, 0.0993890
1645.24, 0.0989110
1645.76, 0.0989790
1646.29, 0.0991610
1646.81, 0.0991820
1647.33, 0.0990810
1647.86, 0.0985330
1648.38, 0.0982620
1648.9, 0.0984950
1649.43, 0.0983800
1649.95, 0.0980980
1650.48, 0.0981480
1651.0, 0.0981790
1651.53, 0.0979580
1652.06, 0.0975960
1652.58, 0.0973620
1653.11, 0.0973020
1653.64, 0.0972430
1654.17, 0.0970930
1654.69, 0.0971810
1655.22, 0.0972510
1655.75, 0.0971630
1656.28, 0.0968970
1656.81, 0.0966520
1657.34, 0.0968640
1657.87, 0.0973300
1658.4, 0.0971050
1658.93, 0.0965800
1659.46, 0.0964880
1659.99, 0.0964000
1660.52, 0.0963150
1661.05, 0.0958950
1661.59, 0.0955830
1662.12, 0.0957420
1662.65, 0.0956910
1663.19, 0.0952490
1663.72, 0.0949470
1664.26, 0.0952360
1664.79, 0.0952950
1665.32, 0.0949330
1665.86, 0.0945080
1666.39, 0.0941800
1666.93, 0.0940720
1667.47, 0.0943150
1668.0, 0.0946450
1668.54, 0.0943060
1669.08, 0.0941400
1669.61, 0.0939240
1670.15, 0.0937510
1670.69, 0.0935010
1671.23, 0.0936180
1671.77, 0.0934840
1672.31, 0.0935430
1672.85, 0.0936640
1673.39, 0.0933970
1673.93, 0.0932920
1674.47, 0.0930990
1675.01, 0.0929650
1675.55, 0.0928480
1676.09, 0.0928290
1676.64, 0.0929080
1677.18, 0.0924580
1677.72, 0.0921790
1678.26, 0.0923910
1678.81, 0.0924140
1679.35, 0.0922520
1679.89, 0.0924530
1680.44, 0.0924050
1680.98, 0.0920480
1681.53, 0.0915430
1682.07, 0.0913730
1682.62, 0.0913290
1683.17, 0.0914490
1683.71, 0.0915800
1684.26, 0.0913580
1684.81, 0.0911510
1685.36, 0.0909410
1685.9, 0.0910230
1686.45, 0.0908470
1687.0, 0.0904860
1687.55, 0.0903430
1688.1, 0.0902740
1688.65, 0.0902810
1689.2, 0.0901100
1689.75, 0.0896760
1690.3, 0.0896500
1690.85, 0.0896070
1691.41, 0.0893960
1691.96, 0.0893880
1692.51, 0.0897110
1693.06, 0.0897570
1693.61, 0.0893850
1694.17, 0.0888780
1694.72, 0.0889000
1695.28, 0.0891340
1695.83, 0.0888820
1696.39, 0.0887370
1696.94, 0.0888300
1697.5, 0.0887090
1698.05, 0.0883250
1698.61, 0.0881960
1699.17, 0.0882840
1699.72, 0.0882750
1700.28, 0.0882620
1700.84, 0.0880370
1701.4, 0.0879520
1701.95, 0.0879640
1702.51, 0.0878150
1703.07, 0.0882090
1703.63, 0.0879860
1704.19, 0.0872950
1704.75, 0.0870570
1705.31, 0.0873020
1705.88, 0.0871950
1706.44, 0.0867810
1707.0, 0.0865550
1707.56, 0.0863310
1708.12, 0.0862120
1708.69, 0.0862580
1709.25, 0.0862220
1709.81, 0.0861530
1710.38, 0.0860280
1710.94, 0.0859370
1711.51, 0.0859320
1712.07, 0.0859990
1712.64, 0.0859480
1713.2, 0.0856650
1713.77, 0.0854830
1714.34, 0.0856820
1714.9, 0.0857960
1715.47, 0.0855580
1716.04, 0.0852120
1716.61, 0.0849600
1717.18, 0.0850200
1717.74, 0.0852390
1718.31, 0.0851210
1718.88, 0.0848740
1719.45, 0.0847800
1720.02, 0.0847950
1720.59, 0.0847230
1721.17, 0.0845790
1721.74, 0.0845000
1722.31, 0.0843820
1722.88, 0.0842080
1723.45, 0.0840690
1724.03, 0.0841490
1724.6, 0.0840800
1725.18, 0.0838340
1725.75, 0.0839540
1726.33, 0.0840050
1726.9, 0.0839790
1727.48, 0.0839710
1728.05, 0.0837260
1728.63, 0.0836680
1729.2, 0.0837240
1729.78, 0.0836340
1730.36, 0.0835600
1730.94, 0.0833580
1731.51, 0.0831540
1732.09, 0.0829480
1732.67, 0.0830140
1733.25, 0.0830780
1733.83, 0.0826210
1734.41, 0.0823750
1734.99, 0.0825250
1735.57, 0.0827080
1736.15, 0.0825540
1736.73, 0.0824360
1737.32, 0.0822010
1737.9, 0.0818700
1738.48, 0.0819970
1739.07, 0.0823640
1739.65, 0.0822350
1740.23, 0.0820930
1740.82, 0.0822640
1741.4, 0.0823270
1741.99, 0.0820280
1742.57, 0.0817460
1743.16, 0.0816180
1743.74, 0.0815380
1744.33, 0.0816070
1744.92, 0.0814700
1745.51, 0.0811420
1746.09, 0.0813620
1746.68, 0.0814730
1747.27, 0.0816880
1747.86, 0.0817280
1748.45, 0.0813710
1749.04, 0.0809850
1749.63, 0.0809120
1750.22, 0.0807540
1750.81, 0.0807880
1751.4, 0.0805980
1751.99, 0.0804170
1752.59, 0.0803990
1753.18, 0.0802080
1753.77, 0.0802900
1754.37, 0.0803860
1754.96, 0.0802020
1755.56, 0.0799840
1756.15, 0.0803190
1756.74, 0.0802420
1757.34, 0.0800990
1757.94, 0.0800460
1758.53, 0.0799210
1759.13, 0.0799550
1759.73, 0.0799230
1760.32, 0.0798230
1760.92, 0.0796770
1761.52, 0.0797440
1762.12, 0.0799510
1762.72, 0.0799490
1763.32, 0.0796170
1763.92, 0.0794770
1764.52, 0.0793350
1765.12, 0.0793350
1765.72, 0.0793760
1766.32, 0.0793440
1766.92, 0.0793020
1767.53, 0.0791330
1768.13, 0.0788240
1768.73, 0.0788710
1769.34, 0.0791250
1769.94, 0.0791320
1770.55, 0.0788620
1771.15, 0.0788150
1771.76, 0.0788480
1772.36, 0.0785990
1772.97, 0.0784210
1773.57, 0.0783760
1774.18, 0.0783550
1774.79, 0.0782450
1775.4, 0.0782800
1776.0, 0.0783900
1776.61, 0.0783010
1777.22, 0.0782480
1777.83, 0.0781460
1778.44, 0.0780320
1779.05, 0.0780080
1779.66, 0.0778620
1780.27, 0.0777930
1780.88, 0.0776540
1781.5, 0.0778290
1782.11, 0.0779370
1782.72, 0.0777440
1783.33, 0.0776030
1783.95, 0.0774670
1784.56, 0.0773640
1785.18, 0.0773260
1785.79, 0.0772580
1786.41, 0.0773770
1787.02, 0.0772620
1787.64, 0.0772600
1788.26, 0.0771760
1788.87, 0.0771230
1789.49, 0.0771090
1790.11, 0.0773090
1790.73, 0.0773580
1791.35, 0.0771210
1791.96, 0.0768630
1792.58, 0.0768790
1793.21, 0.0771780
1793.83, 0.0771830
1794.45, 0.0769680
1795.07, 0.0767300
1795.69, 0.0765680
1796.31, 0.0767100
1796.93, 0.0767890
1797.56, 0.0765390
1798.18, 0.0763590
1798.8, 0.0765040
1799.43, 0.0764040
1800.05, 0.0763610
1800.68, 0.0764700
1801.3, 0.0762160
1801.93, 0.0761270
1802.56, 0.0762690
1803.18, 0.0763510
1803.81, 0.0763330
1804.44, 0.0762450
1805.07, 0.0761700
1805.7, 0.0759240
1806.33, 0.0757200
1806.95, 0.0759610
1807.58, 0.0759860
1808.22, 0.0758170
1808.85, 0.0757470
1809.48, 0.0757400
1810.11, 0.0758890
1810.74, 0.0759320
1811.38, 0.0758310
1812.01, 0.0757350
1812.64, 0.0757270
1813.28, 0.0756160
1813.91, 0.0754250
1814.55, 0.0754180
1815.18, 0.0754380
1815.82, 0.0754510
1816.45, 0.0754610
1817.09, 0.0754990
1817.73, 0.0755170
1818.36, 0.0754760
1819.0, 0.0754520
1819.64, 0.0755260
1820.28, 0.0755090
1820.92, 0.0753320
1821.56, 0.0753130
1822.2, 0.0753400
1822.84, 0.0752540
1823.48, 0.0751880
1824.12, 0.0752200
1824.76, 0.0752710
1825.41, 0.0753380
1826.05, 0.0752660
1826.69, 0.0752520
1827.34, 0.0752170
1827.98, 0.0750690
1828.63, 0.0752190
1829.27, 0.0752350
1829.92, 0.0751490
1830.56, 0.0752730
1831.21, 0.0750890
1831.86, 0.0749160
1832.5, 0.0752520
1833.15, 0.0752480
1833.8, 0.0749880
1834.45, 0.0748940
1835.1, 0.0750300
1835.75, 0.0750480
1836.4, 0.0748950
1837.05, 0.0748090
1837.7, 0.0748870
1838.35, 0.0749090
1839.01, 0.0748710
1839.66, 0.0750330
1840.31, 0.0749470
1840.96, 0.0746490
1841.62, 0.0745440
1842.27, 0.0747500
1842.93, 0.0749230
1843.58, 0.0748130
1844.24, 0.0748090
1844.9, 0.0750180
1845.55, 0.0749940
1846.21, 0.0749830
1846.87, 0.0749570
1847.53, 0.0747810
1848.18, 0.0748370
1848.84, 0.0749940
1849.5, 0.0749430
1850.16, 0.0747910
1850.82, 0.0747450
1851.48, 0.0746820
1852.14, 0.0746850
1852.81, 0.0747920
1853.47, 0.0747940
1854.13, 0.0748020
1854.8, 0.0748160
1855.46, 0.0748270
1856.12, 0.0748320
1856.79, 0.0748120
1857.45, 0.0747230
1858.12, 0.0747650
1858.79, 0.0749470
1859.45, 0.0750310
1860.12, 0.0747500
1860.79, 0.0746850
1861.46, 0.0748340
1862.12, 0.0748670
1862.79, 0.0747430
1863.46, 0.0746740
1864.13, 0.0745770
1864.8, 0.0745830
1865.48, 0.0746910
1866.15, 0.0748100
1866.82, 0.0748220
1867.49, 0.0748620
1868.16, 0.0747880
1868.84, 0.0747230
1869.51, 0.0748540
1870.19, 0.0749430
1870.86, 0.0747790
1871.54, 0.0746060
1872.21, 0.0745770
1872.89, 0.0745430
1873.56, 0.0745960
1874.24, 0.0745320
1874.92, 0.0744450
1875.6, 0.0745100
1876.28, 0.0747020
1876.96, 0.0747490
1877.64, 0.0747330
1878.32, 0.0745690
1879.0, 0.0742940
1879.68, 0.0743610
1880.36, 0.0745310
1881.04, 0.0744360
1881.73, 0.0745030
1882.41, 0.0743830
1883.09, 0.0742850
1883.78, 0.0743270
1884.46, 0.0744950
1885.15, 0.0745280
1885.83, 0.0742990
1886.52, 0.0740670
1887.21, 0.0740050
1887.89, 0.0741110
1888.58, 0.0740870
1889.27, 0.0741030
1889.96, 0.0741770
1890.65, 0.0741470
1891.34, 0.0741310
1892.03, 0.0741730
1892.72, 0.0740670
1893.41, 0.0740540
1894.1, 0.0739410
1894.79, 0.0739160
1895.49, 0.0738440
1896.18, 0.0737480
1896.87, 0.0736940
1897.57, 0.0736470
1898.26, 0.0736600
1898.96, 0.0736530
1899.65, 0.0736730
1900.35, 0.0735050
1901.05, 0.0733430
1901.74, 0.0736370
1902.44, 0.0735980
1903.14, 0.0733110
1903.84, 0.0733260
1904.54, 0.0734400
1905.24, 0.0735900
1905.94, 0.0735140
1906.64, 0.0733770
1907.34, 0.0734740
1908.04, 0.0736260
1908.75, 0.0737250
1909.45, 0.0738580
1910.15, 0.0739410
1910.86, 0.0738580
1911.56, 0.0738030
1912.27, 0.0738630
1912.97, 0.0739770
1913.68, 0.0739060
1914.39, 0.0739050
1915.09, 0.0741090
1915.8, 0.0742880
1916.51, 0.0742410
1917.22, 0.0741510
1917.93, 0.0741780
1918.64, 0.0743740
1919.35, 0.0744010
1920.06, 0.0744950
1920.77, 0.0746260
1921.48, 0.0746610
1922.19, 0.0746190
1922.91, 0.0747120
1923.62, 0.0748070
1924.33, 0.0749580
1925.05, 0.0750800
1925.76, 0.0751280
1926.48, 0.0751960
1927.19, 0.0752840
1927.91, 0.0753520
1928.63, 0.0753580
1929.35, 0.0754120
1930.07, 0.0755090
1930.78, 0.0755820
1931.5, 0.0755800
1932.22, 0.0756310
1932.94, 0.0757620
1933.66, 0.0758860
1934.39, 0.0759740
1935.11, 0.0762480
1935.83, 0.0763910
1936.55, 0.0763930
1937.28, 0.0762670
1938.0, 0.0762740
1938.73, 0.0764610
1939.45, 0.0768140
1940.18, 0.0768990
1940.9, 0.0767260
1941.63, 0.0766500
1942.36, 0.0766860
1943.09, 0.0767920
1943.81, 0.0769300
1944.54, 0.0769610
1945.27, 0.0770600
1946.0, 0.0773060
1946.73, 0.0774490
1947.47, 0.0774770
1948.2, 0.0775740
1948.93, 0.0775170
1949.66, 0.0774300
1950.4, 0.0774080
1951.13, 0.0775620
1951.86, 0.0777370
1952.6, 0.0778420
1953.34, 0.0779080
1954.07, 0.0779770
1954.81, 0.0780520
1955.55, 0.0782360
1956.29, 0.0783930
1957.02, 0.0784720
1957.76, 0.0786070
1958.5, 0.0787070
1959.24, 0.0785970
1959.98, 0.0785830
1960.72, 0.0787110
1961.47, 0.0788280
1962.21, 0.0789250
1962.95, 0.0790730
1963.7, 0.0790870
1964.44, 0.0791740
1965.18, 0.0793940
1965.93, 0.0794830
1966.67, 0.0795560
1967.42, 0.0796120
1968.17, 0.0796760
1968.92, 0.0796760
1969.66, 0.0798490
1970.41, 0.0799640
1971.16, 0.0800130
1971.91, 0.0800660
1972.66, 0.0801130
1973.41, 0.0803070
1974.16, 0.0803950
1974.92, 0.0804600
1975.67, 0.0805960
1976.42, 0.0806950
1977.18, 0.0807710
1977.93, 0.0809340
1978.69, 0.0809570
1979.44, 0.0808740
1980.2, 0.0809780
1980.95, 0.0811940
1981.71, 0.0812730
1982.47, 0.0813490
1983.23, 0.0813890
1983.99, 0.0816630
1984.74, 0.0820100
1985.51, 0.0821430
1986.27, 0.0821930
1987.03, 0.0822660
1987.79, 0.0824080
1988.55, 0.0825210
1989.32, 0.0825450
1990.08, 0.0827360
1990.84, 0.0829000
1991.61, 0.0829590
1992.37, 0.0830200
1993.14, 0.0830880
1993.9, 0.0831330
1994.67, 0.0833260
1995.44, 0.0835170
1996.21, 0.0837270
1996.98, 0.0837830
1997.75, 0.0838990
1998.52, 0.0841370
1999.29, 0.0842950
2000.06, 0.0843580
2000.83, 0.0843990
2001.6, 0.0844350
2002.38, 0.0846440
2003.15, 0.0848610
2003.93, 0.0849940
2004.7, 0.0850300
2005.48, 0.0851990
2006.25, 0.0854160
2007.03, 0.0856460
2007.81, 0.0858060
2008.58, 0.0859140
2009.36, 0.0860050
2010.14, 0.0861920
2010.92, 0.0863360
2011.7, 0.0864110
2012.48, 0.0866280
2013.26, 0.0868270
2014.05, 0.0869880
2014.83, 0.0871070
2015.61, 0.0872350
2016.4, 0.0873710
2017.18, 0.0876410
2017.97, 0.0879050
2018.75, 0.0880620
2019.54, 0.0881030
2020.32, 0.0882300
2021.11, 0.0884640
2021.9, 0.0885580
2022.69, 0.0886110
2023.48, 0.0887520
2024.27, 0.0890260
2025.06, 0.0892820
2025.85, 0.0895000
2026.64, 0.0898540
2027.44, 0.0900790
2028.23, 0.0900140
2029.02, 0.0902300
2029.82, 0.0905000
2030.61, 0.0906990
2031.41, 0.0907180
2032.2, 0.0908280
2033.0, 0.0911580
2033.8, 0.0914240
2034.6, 0.0916320
2035.4, 0.0917610
2036.2, 0.0919350
2037.0, 0.0922150
2037.8, 0.0922490
2038.6, 0.0923380
2039.4, 0.0926360
2040.2, 0.0929360
2041.01, 0.0930390
2041.81, 0.0932480
2042.61, 0.0936070
2043.42, 0.0937670
2044.22, 0.0938480
2045.03, 0.0941660
2045.84, 0.0943010
2046.65, 0.0943510
2047.46, 0.0946610
2048.26, 0.0948940
2049.07, 0.0949900
2049.88, 0.0951550
2050.69, 0.0954190
2051.51, 0.0955620
2052.32, 0.0958000
2053.13, 0.0959950
2053.94, 0.0961690
2054.76, 0.0965050
2055.57, 0.0968320
2056.39, 0.0970190
2057.2, 0.0971790
2058.02, 0.0973250
2058.84, 0.0974310
2059.66, 0.0977810
2060.48, 0.0980970
2061.29, 0.0980650
2062.11, 0.0981680
2062.94, 0.0984080
2063.76, 0.0985650
2064.58, 0.0987440
2065.4, 0.0990260
2066.22, 0.0994570
2067.05, 0.0997400
2067.87, 0.0998210
2068.7, 0.100006
2069.52, 0.100199
2070.35, 0.100297
2071.18, 0.100539
2072.0, 0.100876
2072.83, 0.101035
2073.66, 0.101190
2074.49, 0.101358
2075.32, 0.101498
2076.15, 0.101719
2076.98, 0.101893
2077.82, 0.102165
2078.65, 0.102453
2079.48, 0.102758
2080.32, 0.102959
2081.15, 0.102977
2081.99, 0.103234
2082.83, 0.103640
2083.66, 0.103849
2084.5, 0.103949
2085.34, 0.104092
2086.18, 0.104361
2087.02, 0.104669
2087.86, 0.104808
2088.7, 0.104998
2089.54, 0.105163
2090.39, 0.105306
2091.23, 0.105549
2092.07, 0.105808
2092.92, 0.106173
2093.76, 0.106440
2094.61, 0.106772
2095.45, 0.107035
2096.3, 0.107277
2097.15, 0.107621
2098.0, 0.107919
2098.85, 0.108129
2099.7, 0.108379
2100.55, 0.108585
2101.4, 0.108861
2102.25, 0.109244
2103.1, 0.109449
2103.96, 0.109685
2104.81, 0.109852
2105.67, 0.110066
2106.52, 0.110530
2107.38, 0.110911
2108.24, 0.111066
2109.09, 0.111427
2109.95, 0.111713
2110.81, 0.111798
2111.67, 0.112112
2112.53, 0.112472
2113.39, 0.112669
2114.25, 0.112893
2115.12, 0.113135
2115.98, 0.113418
2116.84, 0.113797
2117.71, 0.114152
2118.58, 0.114355
2119.44, 0.114606
2120.31, 0.114991
2121.18, 0.115382
2122.04, 0.115677
2122.91, 0.115842
2123.78, 0.116116
2124.65, 0.116313
2125.52, 0.116590
2126.4, 0.116991
2127.27, 0.117146
2128.14, 0.117474
2129.02, 0.117879
2129.89, 0.118066
2130.77, 0.118272
2131.64, 0.118629
2132.52, 0.118976
2133.4, 0.119239
2134.27, 0.119573
2135.15, 0.119928
2136.03, 0.120205
2136.91, 0.120526
2137.79, 0.120950
2138.68, 0.121362
2139.56, 0.121612
2140.44, 0.121890
2141.33, 0.122280
2142.21, 0.122713
2143.1, 0.123067
2143.99, 0.123277
2144.87, 0.123560
2145.76, 0.123982
2146.65, 0.124454
2147.54, 0.124820
2148.43, 0.124953
2149.32, 0.125225
2150.21, 0.125662
2151.1, 0.126185
2151.99, 0.126557
2152.89, 0.126800
2153.78, 0.126980
2154.68, 0.127281
2155.57, 0.127570
2156.47, 0.127918
2157.37, 0.128198
2158.27, 0.128590
2159.16, 0.129108
2160.06, 0.129445
2160.96, 0.129753
2161.86, 0.130136
2162.77, 0.130348
2163.67, 0.130594
2164.57, 0.130970
2165.48, 0.131304
2166.38, 0.131569
2167.29, 0.131901
2168.2, 0.132239
2169.1, 0.132567
2170.01, 0.132912
2170.92, 0.133196
2171.83, 0.133543
2172.74, 0.133822
2173.65, 0.134122
2174.56, 0.134548
2175.47, 0.134857
2176.39, 0.135210
2177.3, 0.135406
2178.22, 0.135500
2179.13, 0.135927
2180.05, 0.136313
2180.96, 0.136664
2181.88, 0.137001
2182.8, 0.137250
2183.72, 0.137633
2184.64, 0.137961
2185.56, 0.138290
2186.48, 0.138668
2187.41, 0.138858
2188.33, 0.139056
2189.25, 0.139397
2190.18, 0.139818
2191.1, 0.140175
2192.03, 0.140456
2192.96, 0.140734
2193.89, 0.141080
2194.82, 0.141328
2195.74, 0.141528
2196.68, 0.141920
2197.61, 0.142074
2198.54, 0.142321
2199.47, 0.142734
2200.4, 0.143164
2201.34, 0.143469
2202.28, 0.143652
2203.21, 0.143929
2204.15, 0.144298
2205.08, 0.144527
2206.02, 0.144575
2206.96, 0.144905
2207.9, 0.145306
2208.84, 0.145538
2209.78, 0.145827
2210.73, 0.146088
2211.67, 0.146413
2212.61, 0.146647
2213.56, 0.146781
2214.5, 0.147059
2215.45, 0.147425
2216.4, 0.147707
2217.35, 0.148050
2218.3, 0.148468
2219.24, 0.148815
2220.2, 0.148884
2221.15, 0.149117
2222.1, 0.149467
2223.05, 0.149764
2224.0, 0.150017
2224.96, 0.150262
2225.91, 0.150495
2226.87, 0.150684
2227.83, 0.150938
2228.79, 0.151245
2229.74, 0.151450
2230.7, 0.151763
2231.66, 0.152116
2232.63, 0.152394
2233.59, 0.152720
2234.55, 0.152948
2235.51, 0.153222
2236.48, 0.153578
2237.44, 0.153846
2238.41, 0.154090
2239.38, 0.154255
2240.34, 0.154595
2241.31, 0.155040
2242.28, 0.155363
2243.25, 0.155535
2244.22, 0.155840
2245.19, 0.156189
2246.17, 0.156536
2247.14, 0.156834
2248.12, 0.156990
2249.09, 0.157212
2250.07, 0.157497
2251.04, 0.157771
2252.02, 0.158001
2253.0, 0.158298
2253.98, 0.158495
2254.96, 0.158633
2255.94, 0.158786
2256.92, 0.159106
2257.91, 0.159277
2258.89, 0.159314
2259.88, 0.159489
2260.86, 0.159753
2261.85, 0.159929
2262.83, 0.160037
2263.82, 0.160154
2264.81, 0.160265
2265.8, 0.160487
2266.79, 0.160749
2267.78, 0.160789
2268.78, 0.160760
2269.77, 0.160915
2270.76, 0.160993
2271.76, 0.161215
2272.75, 0.161404
2273.75, 0.161423
2274.75, 0.161367
2275.75, 0.161441
2276.75, 0.161519
2277.75, 0.161512
2278.75, 0.161525
2279.75, 0.161544
2280.75, 0.161524
2281.76, 0.161225
2282.76, 0.160817
2283.77, 0.160555
2284.77, 0.160322
2285.78, 0.159818
2286.79, 0.159309
2287.8, 0.158832
2288.81, 0.158246
2289.82, 0.157842
2290.83, 0.157684
2291.84, 0.157815
2292.86, 0.158384
2293.87, 0.159183
2294.89, 0.159881
2295.91, 0.160514
2296.92, 0.160821
2297.94, 0.160898
2298.96, 0.160951
2299.98, 0.160886
2301.0, 0.160748
2302.02, 0.160552
2303.04, 0.160207
2304.07, 0.159867
2305.09, 0.159304
2306.12, 0.158673
2307.15, 0.157948
2308.17, 0.157144
2309.2, 0.156442
2310.23, 0.155769
2311.26, 0.155271
2312.29, 0.154867
2313.32, 0.154779
2314.35, 0.155143
2315.39, 0.155913
2316.42, 0.157104
2317.46, 0.158487
2318.5, 0.159820
2319.53, 0.160808
2320.57, 0.161554
2321.61, 0.162157
2322.65, 0.162657
2323.69, 0.163130
2324.73, 0.163547
2325.78, 0.164248
2326.82, 0.165237
2327.86, 0.166237
2328.91, 0.167143
2329.96, 0.167869
2331.01, 0.168556
2332.05, 0.169036
2333.1, 0.169535
2334.15, 0.170154
2335.21, 0.170528
2336.26, 0.170887
2337.31, 0.171457
2338.36, 0.172031
2339.42, 0.172545
2340.48, 0.173151
2341.53, 0.173535
2342.59, 0.173842
2343.65, 0.174378
2344.71, 0.174999
2345.77, 0.175402
2346.83, 0.175778
2347.9, 0.176232
2348.96, 0.176541
2350.02, 0.176846
2351.09, 0.177283
2352.16, 0.177525
2353.23, 0.177817
2354.29, 0.178187
2355.36, 0.178501
2356.43, 0.178655
2357.51, 0.178903
2358.58, 0.179304
2359.65, 0.179671
2360.73, 0.179853
2361.8, 0.180062
2362.88, 0.180343
2363.96, 0.180501
2365.03, 0.180541
2366.11, 0.180582
2367.19, 0.180590
2368.27, 0.180591
2369.36, 0.180667
2370.44, 0.180608
2371.53, 0.180513
2372.61, 0.180485
2373.7, 0.180350
2374.78, 0.180166
2375.87, 0.179939
2376.96, 0.179718
2378.05, 0.179592
2379.14, 0.179532
2380.24, 0.179468
2381.33, 0.179259
2382.42, 0.178935
2383.52, 0.178805
2384.61, 0.178779
2385.71, 0.178947
2386.81, 0.179077
2387.91, 0.179045
2389.01, 0.178967
2390.11, 0.178917
2391.22, 0.178907
2392.32, 0.179106
2393.42, 0.179634
2394.53, 0.180170
2395.64, 0.180637
2396.74, 0.181077
2397.85, 0.181516
2398.96, 0.182120
2400.07, 0.182772
2401.18, 0.183410
2402.3, 0.184074
2403.41, 0.184570
2404.52, 0.184962
2405.64, 0.185256
2406.76, 0.185612
2407.88, 0.185999
2408.99, 0.186179
2410.11, 0.186272
2411.23, 0.186515
2412.36, 0.186675
2413.48, 0.186806
2414.6, 0.186886
2415.73, 0.187051
2416.85, 0.187112
2417.98, 0.187114
2419.11, 0.187168
2420.24, 0.187182
2421.37, 0.187177
2422.5, 0.187146
2423.64, 0.187005
2424.77, 0.186875
2425.9, 0.186810
2427.04, 0.186936
2428.18, 0.187120
2429.31, 0.187254
2430.45, 0.187347
2431.59, 0.187435
2432.73, 0.187468
2433.88, 0.187282
2435.02, 0.187171
2436.16, 0.187207
2437.31, 0.187286
2438.45, 0.187384
2439.6, 0.187563
2440.75, 0.187610
2441.9, 0.187481
2443.05, 0.187559
2444.2, 0.187714
2445.35, 0.187897
2446.51, 0.187991
2447.67, 0.187971
2448.82, 0.187919
2449.98, 0.187882
2451.14, 0.187967
2452.3, 0.188093
2453.46, 0.188118
2454.62, 0.187977
2455.78, 0.187896
2456.94, 0.187944
2458.11, 0.187916
2459.28, 0.188048
2460.44, 0.187890
2461.61, 0.187615
2462.78, 0.187476
2463.95, 0.187600
2465.12, 0.187640
2466.3, 0.187685
2467.47, 0.187767
2468.65, 0.187872
2469.82, 0.188102
2471.0, 0.188381
2472.18, 0.188555
2473.36, 0.188669
2474.54, 0.188777
2475.72, 0.188903
2476.9, 0.189017
2478.08, 0.189277
2479.27, 0.189435
2480.46, 0.189476
2481.64, 0.189435
2482.83, 0.189471
2484.02, 0.189413
2485.21, 0.189446
2486.4, 0.189471
2487.6, 0.189457
2488.79, 0.189493
2489.99, 0.189504
2491.18, 0.189358
2492.38, 0.189207
2493.58, 0.189119
2494.78, 0.188963
2495.98, 0.188829
2497.18, 0.188900
2498.39, 0.188904
2499.59, 0.188770
2500.8, 0.188764
2502.01, 0.188846
2503.21, 0.188871
2504.42, 0.188988
2505.63, 0.189091
2506.84, 0.189116
2508.06, 0.189084
2509.27, 0.189086
2510.49, 0.189021
2511.7, 0.188988
2512.92, 0.189021
2514.14, 0.189063
2515.36, 0.189059
2516.58, 0.189080
2517.8, 0.189159
2519.03, 0.189367
2520.25, 0.189558
2521.48, 0.189651
2522.7, 0.189706
2523.93, 0.189779
2525.16, 0.189877
2526.39, 0.190078
2527.62, 0.190149
2528.86, 0.190137
2530.09, 0.190220
2531.33, 0.190389
2532.56, 0.190433
2533.8, 0.190635
2535.04, 0.190805
2536.28, 0.190744
2537.52, 0.190679
2538.76, 0.190788
2540.01, 0.190925
2541.25, 0.191158
2542.5, 0.191258
2543.75, 0.191133
2544.99, 0.191278
2546.24, 0.191524
2547.49, 0.191541
2548.75, 0.191459
2550.0, 0.191496
2551.26, 0.191474
2552.51, 0.191240
2553.77, 0.191154
2555.03, 0.191188
2556.29, 0.191201
2557.55, 0.191346
2558.81, 0.191486
2560.08, 0.191580
2561.34, 0.191502
2562.61, 0.191460
2563.88, 0.191477
2565.14, 0.191331
2566.41, 0.191300
2567.68, 0.191586
2568.96, 0.191716
2570.23, 0.191472
2571.51, 0.191853
2572.78, 0.192094
2574.06, 0.191693
2575.34, 0.191723
2576.62, 0.191676
2577.9, 0.191611
2579.18, 0.191932
2580.47, 0.191998
2581.75, 0.192054
2583.04, 0.192462
2584.32, 0.192104
2585.61, 0.192279
2586.9, 0.192519
2588.2, 0.192378
2589.49, 0.192469
2590.78, 0.192767
2592.08, 0.193082
2593.37, 0.193525
2594.67, 0.192874
2595.97, 0.192182
2597.27, 0.192457
2598.57, 0.192769
2599.88, 0.193067
2601.18, 0.193178
2602.49, 0.193169
2603.79, 0.193341
2605.1, 0.193215
2606.41, 0.192878
2607.72, 0.193151
2609.03, 0.193353
2610.35, 0.193331
2611.66, 0.193346
2612.98, 0.193331
2614.3, 0.193356
2615.62, 0.193696
2616.94, 0.193188
2618.26, 0.193116
2619.58, 0.193463
2620.91, 0.192861
2622.23, 0.192872
2623.56, 0.193186
2624.89, 0.193373
2626.22, 0.193194
2627.55, 0.192738
2628.88, 0.193151
2630.21, 0.192891
2631.55, 0.192466
2632.89, 0.192626
2634.22, 0.192462
2635.56, 0.192374
2636.9, 0.192382
2638.25, 0.192308
2639.59, 0.192092
2640.93, 0.191909
2642.28, 0.191825
2643.63, 0.191712
2644.98, 0.191512
2646.33, 0.191089
2647.68, 0.191047
2649.03, 0.190908
2650.39, 0.190757
2651.74, 0.190583
2653.1, 0.190208
2654.46, 0.190095
2655.82, 0.189877
2657.18, 0.189550
2658.54, 0.189335
2659.9, 0.188882
2661.27, 0.188473
2662.64, 0.188192
2664.01, 0.187975
2665.38, 0.187242
2666.74, 0.186400
2668.12, 0.185750
2669.49, 0.185607
2670.87, 0.183837
2672.24, 0.182854
2673.62, 0.182214
2675.0, 0.181002
2676.38, 0.179003
2677.76, 0.176728
2679.15, 0.174097
2680.54, 0.171065
2681.92, 0.167998
2683.31, 0.164207
2684.7, 0.159978
2686.09, 0.155465
2687.48, 0.150374
2688.88, 0.144905
2690.27, 0.138819
2691.67, 0.132318
2693.07, 0.124940
2694.47, 0.116941
2695.87, 0.108900
2697.27, 0.100272
2698.67, 0.0917070
2700.08, 0.0844790
2701.49, 0.0775890
2702.9, 0.0711290
2704.31, 0.0657970
2705.72, 0.0616260
2707.13, 0.0584400
2708.54, 0.0560970
2709.96, 0.0544310
2711.38, 0.0530560
2712.8, 0.0520940
2714.22, 0.0516680
2715.64, 0.0510590
2717.06, 0.0496760
2718.49, 0.0465910
2719.91, 0.0447440
2721.34, 0.0459770
2722.77, 0.0488500
2724.2, 0.0510190
2725.63, 0.0521980
2727.07, 0.0530670
2728.5, 0.0534150
2729.94, 0.0528040
2731.38, 0.0521630
2732.82, 0.0537210
2734.26, 0.0561370
2735.7, 0.0575230
2737.15, 0.0583920
2738.59, 0.0592070
2740.04, 0.0598640
2741.49, 0.0603400
2742.94, 0.0607120
2744.39, 0.0611220
2745.84, 0.0618300
2747.3, 0.0627880
2748.76, 0.0636700
2750.21, 0.0643820
2751.67, 0.0651020
2753.14, 0.0658520
2754.6, 0.0665640
2756.06, 0.0669120
2757.53, 0.0691690
2759.0, 0.0696540
2760.46, 0.0700350
2761.94, 0.0703990
2763.41, 0.0709240
2764.88, 0.0714500
2766.36, 0.0718450
2767.83, 0.0724100
2769.31, 0.0728420
2770.79, 0.0731200
2772.27, 0.0737450
2773.76, 0.0743220
2775.24, 0.0748990
2776.73, 0.0754420
2778.22, 0.0758260
2779.71, 0.0761600
2781.2, 0.0765910
2782.69, 0.0770720
2784.18, 0.0774670
2785.68, 0.0777910
2787.18, 0.0781670
2788.68, 0.0786640
2790.18, 0.0791950
2791.68, 0.0798890
2793.19, 0.0804970
2794.69, 0.0809700
2796.2, 0.0814270
2797.71, 0.0818060
2799.22, 0.0820990
2800.73, 0.0824930
2802.24, 0.0828710
2803.76, 0.0832960
2805.28, 0.0839890
2806.8, 0.0844670
2808.32, 0.0848420
2809.84, 0.0851710
2811.36, 0.0854920
2812.89, 0.0859220
2814.42, 0.0863410
2815.94, 0.0866130
2817.48, 0.0870550
2819.01, 0.0873060
2820.54, 0.0874750
2822.08, 0.0876020
2823.61, 0.0880550
2825.15, 0.0884250
2826.69, 0.0886080
2828.23, 0.0888400
2829.78, 0.0891060
2831.32, 0.0891260
2832.87, 0.0892150
2834.42, 0.0892820
2835.97, 0.0892240
2837.52, 0.0891350
2839.08, 0.0890530
2840.63, 0.0889700
2842.19, 0.0887920
2843.75, 0.0885960
2845.31, 0.0886130
2846.87, 0.0887050
2848.44, 0.0886330
2850.0, 0.0886180
2851.57, 0.0889280
2853.14, 0.0891550
2854.71, 0.0893950
2856.28, 0.0895750
2857.86, 0.0898160
2859.43, 0.0899600
2861.01, 0.0900860
2862.59, 0.0902690
2864.17, 0.0906900
2865.76, 0.0909650
2867.34, 0.0910160
2868.93, 0.0911630
2870.52, 0.0912150
2872.11, 0.0912410
2873.7, 0.0913480
2875.29, 0.0914290
2876.89, 0.0914080
2878.49, 0.0915340
2880.08, 0.0916710
2881.69, 0.0918060
2883.29, 0.0920420
2884.89, 0.0924910
2886.5, 0.0927870
2888.11, 0.0929480
2889.72, 0.0930550
2891.33, 0.0932220
2892.94, 0.0935040
2894.56, 0.0937900
2896.17, 0.0939560
2897.79, 0.0940120
2899.42, 0.0941040
2901.04, 0.0941370
2902.66, 0.0942050
2904.29, 0.0944220
2905.92, 0.0946410
2907.55, 0.0945790
2909.18, 0.0945500
2910.81, 0.0946760
2912.45, 0.0947220
2914.08, 0.0947630
2915.72, 0.0948380
2917.36, 0.0948960
2919.01, 0.0950500
2920.65, 0.0950920
2922.3, 0.0952430
2923.94, 0.0953390
2925.59, 0.0954380
2927.25, 0.0955500
2928.9, 0.0955570
2930.56, 0.0955030
2932.21, 0.0955750
2933.87, 0.0959010
2935.53, 0.0959270
2937.2, 0.0957670
2938.86, 0.0959010
2940.53, 0.0960950
2942.2, 0.0961940
2943.87, 0.0963030
2945.54, 0.0965410
2947.22, 0.0966750
2948.89, 0.0968190
2950.57, 0.0969950
2952.25, 0.0970780
2953.93, 0.0970210
2955.62, 0.0970400
2957.3, 0.0971970
2958.99, 0.0972440
2960.68, 0.0974850
2962.37, 0.0976230
2964.07, 0.0976850
2965.76, 0.0978400
2967.46, 0.0979120
2969.16, 0.0979040
2970.86, 0.0979590
2972.56, 0.0980790
2974.27, 0.0982850
2975.98, 0.0984530
2977.69, 0.0984800
2979.4, 0.0986610
2981.11, 0.0988760
2982.83, 0.0989650
2984.54, 0.0989840
2986.26, 0.0990220
2987.98, 0.0992160
2989.71, 0.0994500
2991.43, 0.0995550
2993.16, 0.0997070
2994.89, 0.0999660
2996.62, 0.100186
2998.35, 0.100200
3000.09, 0.100304
3001.83, 0.100473
3003.57, 0.100641
3005.31, 0.100529
3007.05, 0.100537
3008.79, 0.100693
3010.54, 0.100980
3012.29, 0.101212
3014.04, 0.101322
3015.8, 0.101445
3017.55, 0.101592
3019.31, 0.101643
3021.07, 0.101726
3022.83, 0.101903
3024.59, 0.102073
3026.36, 0.102076
3028.13, 0.102135
3029.9, 0.102256
3031.67, 0.102269
3033.44, 0.102316
3035.22, 0.102423
3037.0, 0.102541
3038.78, 0.102520
3040.56, 0.102574
3042.34, 0.102781
3044.13, 0.102803
3045.92, 0.102810
3047.71, 0.102819
3049.5, 0.102947
3051.3, 0.103153
3053.09, 0.103231
3054.89, 0.103327
3056.69, 0.103265
3058.5, 0.103235
3060.3, 0.103394
3062.11, 0.103497
3063.92, 0.103510
3065.73, 0.103492
3067.55, 0.103571
3069.36, 0.103583
3071.18, 0.103683
3073.0, 0.103783
3074.82, 0.103854
3076.65, 0.103921
3078.48, 0.104024
3080.31, 0.104060
3082.14, 0.104120
3083.97, 0.104170
3085.8, 0.104403
3087.64, 0.104368
3089.48, 0.104386
3091.33, 0.104440
3093.17, 0.104502
3095.02, 0.104596
3096.87, 0.104836
3098.72, 0.104994
3100.57, 0.105041
3102.43, 0.105022
3104.28, 0.105094
3106.14, 0.105332
3108.01, 0.105497
3109.87, 0.105660
3111.74, 0.105710
3113.61, 0.105681
3115.48, 0.105859
3117.35, 0.106088
3119.23, 0.106252
3121.1, 0.106373
3122.98, 0.106502
3124.87, 0.106603
3126.75, 0.106642
3128.64, 0.106849
3130.53, 0.107003
3132.42, 0.107121
3134.31, 0.107241
3136.21, 0.107298
3138.11, 0.107392
3140.01, 0.107488
3141.91, 0.107569
3143.82, 0.107578
3145.73, 0.107685
3147.64, 0.107764
3149.55, 0.107869
3151.46, 0.107954
3153.38, 0.108124
3155.3, 0.108265
3157.22, 0.108467
3159.14, 0.108536
3161.07, 0.108600
3163.0, 0.108806
3164.93, 0.108959
3166.86, 0.108976
3168.8, 0.109045
3170.74, 0.109178
3172.68, 0.109293
3174.62, 0.109458
3176.56, 0.109622
3178.51, 0.109692
3180.46, 0.109728
3182.42, 0.109729
3184.37, 0.109915
3186.33, 0.109959
3188.29, 0.109963
3190.25, 0.110041
3192.21, 0.110150
3194.18, 0.110397
3196.15, 0.110628
3198.12, 0.110749
3200.09, 0.110780
3202.07, 0.110730
3204.05, 0.110689
3206.03, 0.110608
3208.02, 0.110586
3210.0, 0.110936
3211.99, 0.111216
3213.98, 0.111148
3215.98, 0.111092
3217.97, 0.111139
3219.97, 0.111180
3221.97, 0.111367
3223.98, 0.111397
3225.98, 0.111382
3227.99, 0.111558
3230.0, 0.111611
3232.02, 0.111603
3234.03, 0.111636
3236.05, 0.111732
3238.07, 0.111857
3240.1, 0.111809
3242.12, 0.111744
3244.15, 0.111833
3246.18, 0.111976
3248.22, 0.112009
3250.25, 0.112034
3252.29, 0.112186
3254.33, 0.112164
3256.38, 0.112259
3258.43, 0.112303
3260.47, 0.112198
3262.53, 0.112199
3264.58, 0.112389
3266.64, 0.112538
3268.7, 0.112478
3270.76, 0.112321
3272.82, 0.112418
3274.89, 0.112525
3276.96, 0.112607
3279.04, 0.112657
3281.11, 0.112589
3283.19, 0.112672
3285.27, 0.112809
3287.35, 0.112810
3289.44, 0.112997
3291.53, 0.112970
3293.62, 0.112822
3295.71, 0.112703
3297.81, 0.112724
3299.91, 0.112703
3302.01, 0.112671
3304.11, 0.112728
3306.22, 0.112772
3308.33, 0.112767
3310.44, 0.112759
3312.56, 0.112769
3314.68, 0.112815
3316.8, 0.112871
3318.92, 0.112987
3321.05, 0.113137
3323.18, 0.113201
3325.31, 0.113397
3327.44, 0.113562
3329.58, 0.113693
3331.72, 0.113887
3333.86, 0.113975
3336.01, 0.114041
3338.16, 0.114108
3340.31, 0.114079
3342.46, 0.114016
3344.61, 0.113975
3346.77, 0.113849
3348.94, 0.113846
3351.1, 0.113867
3353.27, 0.113894
3355.44, 0.113847
3357.61, 0.113798
3359.79, 0.113758
3361.97, 0.113662
3364.15, 0.113621
3366.33, 0.113791
3368.52, 0.113862
3370.71, 0.113860
3372.9, 0.113799
3375.1, 0.113809
3377.3, 0.113958
3379.5, 0.113984
3381.71, 0.113845
3383.91, 0.113871
3386.12, 0.114011
3388.34, 0.114129
3390.55, 0.114217
3392.77, 0.114291
3394.99, 0.114377
3397.22, 0.114405
3399.45, 0.114367
3401.68, 0.114295
3403.91, 0.114344
3406.15, 0.114393
3408.39, 0.114282
3410.63, 0.114225
3412.87, 0.114272
3415.12, 0.114459
3417.37, 0.114528
3419.63, 0.114603
3421.88, 0.114636
3424.14, 0.114689
3426.41, 0.114854
3428.67, 0.114927
3430.94, 0.115027
3433.21, 0.115127
3435.49, 0.115300
3437.77, 0.115309
3440.05, 0.115266
3442.33, 0.115291
3444.62, 0.115359
3446.91, 0.115560
3449.2, 0.115657
3451.5, 0.115659
3453.8, 0.115775
3456.1, 0.115721
3458.41, 0.115604
3460.72, 0.115666
3463.03, 0.115733
3465.34, 0.115655
3467.66, 0.115504
3469.98, 0.115546
3472.31, 0.115633
3474.63, 0.115456
3476.96, 0.115428
3479.3, 0.115537
3481.64, 0.115586
3483.97, 0.115498
3486.32, 0.115368
3488.66, 0.115374
3491.01, 0.115469
3493.36, 0.115526
3495.72, 0.115490
3498.08, 0.115446
3500.44, 0.115367
3502.81, 0.115458
3505.18, 0.115442
3507.55, 0.115394
3509.92, 0.115481
3512.3, 0.115562
3514.68, 0.115638
3517.06, 0.115757
3519.45, 0.115862
3521.84, 0.116051
3524.24, 0.115951
3526.64, 0.115910
3529.04, 0.115911
3531.44, 0.115747
3533.85, 0.115791
3536.26, 0.115887
3538.67, 0.115887
3541.09, 0.115789
3543.51, 0.115690
3545.93, 0.115750
3548.36, 0.115741
3550.79, 0.115614
3553.22, 0.115575
3555.66, 0.115556
3558.1, 0.115529
3560.54, 0.115406
3562.99, 0.115383
3565.44, 0.115442
3567.9, 0.115380
3570.35, 0.115352
3572.81, 0.115307
3575.28, 0.115251
3577.75, 0.115245
3580.22, 0.115170
3582.69, 0.115148
3585.17, 0.115055
3587.65, 0.114935
3590.14, 0.114988
3592.62, 0.115044
3595.11, 0.114883
3597.61, 0.114687
3600.11, 0.114663
3602.61, 0.114621
3605.11, 0.114534
3607.62, 0.114505
3610.14, 0.114417
3612.65, 0.114309
3615.17, 0.114235
3617.69, 0.114109
3620.22, 0.114121
3622.75, 0.114059
3625.28, 0.113992
3627.82, 0.114000
3630.36, 0.113965
3632.9, 0.113836
3635.45, 0.113820
3638.0, 0.113786
3640.56, 0.113704
3643.12, 0.113617
3645.68, 0.113638
3648.24, 0.113600
3650.81, 0.113417
3653.39, 0.113347
3655.96, 0.113347
3658.54, 0.113244
3661.13, 0.113214
3663.71, 0.113238
3666.3, 0.113091
3668.9, 0.113022
3671.5, 0.113050
3674.1, 0.113051
3676.7, 0.113029
3679.31, 0.113031
3681.93, 0.112958
3684.54, 0.112825
3687.17, 0.112606
3689.79, 0.112575
3692.42, 0.112715
3695.05, 0.112773
3697.69, 0.112724
3700.32, 0.112757
3702.97, 0.112743
3705.61, 0.112532
3708.27, 0.112460
3710.92, 0.112448
3713.58, 0.112492
3716.24, 0.112448
3718.91, 0.112274
3721.58, 0.112232
3724.25, 0.112243
3726.93, 0.112187
3729.61, 0.112144
3732.29, 0.112015
3734.98, 0.112034
3737.67, 0.111959
3740.37, 0.111935
3743.07, 0.111954
3745.78, 0.111872
3748.49, 0.111661
3751.2, 0.111676
3753.91, 0.111619
3756.63, 0.111589
3759.36, 0.111470
3762.09, 0.111352
3764.82, 0.111284
3767.55, 0.111147
3770.29, 0.111082
3773.04, 0.111079
3775.78, 0.110961
3778.54, 0.110889
3781.29, 0.110876
3784.05, 0.110874
3786.82, 0.110788
3789.59, 0.110821
3792.36, 0.110668
3795.13, 0.110493
3797.92, 0.110404
3800.7, 0.110167
3803.49, 0.110059
3806.28, 0.110029
3809.08, 0.109962
3811.88, 0.109720
3814.68, 0.109580
3817.49, 0.109634
3820.31, 0.109643
3823.12, 0.109480
3825.94, 0.109436
3828.77, 0.109325
3831.6, 0.109194
3834.43, 0.109070
3837.27, 0.108979
3840.11, 0.109012
3842.96, 0.109000
3845.81, 0.108922
3848.67, 0.108759
3851.53, 0.108655
3854.39, 0.108564
3857.26, 0.108486
3860.13, 0.108283
3863.01, 0.108059
3865.89, 0.108061
3868.77, 0.108067
3871.66, 0.107916
3874.55, 0.107801
3877.45, 0.107742
3880.35, 0.107586
3883.26, 0.107497
3886.17, 0.107315
3889.09, 0.107184
3892.01, 0.107139
3894.93, 0.107016
3897.86, 0.106799
3900.79, 0.106645
3903.73, 0.106704
3906.67, 0.106541
3909.62, 0.106347
3912.57, 0.106215
3915.52, 0.106116
3918.48, 0.106040
3921.45, 0.105998
3924.42, 0.105760
3927.39, 0.105531
3930.37, 0.105411
3933.35, 0.105440
3936.34, 0.105472
3939.33, 0.105351
3942.32, 0.105169
3945.32, 0.105114
3948.33, 0.105045
3951.34, 0.104945
3954.35, 0.104808
3957.37, 0.104656
3960.39, 0.104591
3963.42, 0.104615
3966.45, 0.104628
3969.49, 0.104557
3972.53, 0.104540
3975.58, 0.104512
3978.63, 0.104344
3981.68, 0.104354
3984.75, 0.104275
3987.81, 0.104231
3990.88, 0.104391
3993.95, 0.104278
3997.03, 0.103985
4000.12, 0.103946
4003.21, 0.104019
4006.3, 0.104064
4009.4, 0.103981
4012.5, 0.103771
4015.61, 0.103714
4018.72, 0.103673
4021.84, 0.103471
4024.96, 0.103420
4028.09, 0.103413
4031.22, 0.103236
4034.36, 0.103051
4037.5, 0.102983
4040.65, 0.102811
4043.8, 0.102578
4046.96, 0.102553
4050.12, 0.102440
4053.29, 0.102362
4056.46, 0.102303
4059.64, 0.102141
4062.82, 0.101969
4066.0, 0.101893
4069.19, 0.101813
4072.39, 0.101616
4075.59, 0.101549
4078.8, 0.101418
4082.01, 0.101297
4085.23, 0.101121
4088.45, 0.101010
4091.68, 0.100909
4094.91, 0.100733
4098.15, 0.100520
4101.39, 0.100526
4104.63, 0.100413
4107.89, 0.100221
4111.14, 0.100187
4114.41, 0.100172
4117.67, 0.0999890
4120.95, 0.0997800
4124.23, 0.0996140
4127.51, 0.0995790
4130.8, 0.0994250
4134.09, 0.0993660
4137.39, 0.0992540
4140.7, 0.0991030
4144.01, 0.0988870
4147.32, 0.0988340
4150.64, 0.0986450
4153.97, 0.0985020
4157.3, 0.0984750
4160.64, 0.0983960
4163.98, 0.0981470
4167.33, 0.0980500
4170.68, 0.0981570
4174.04, 0.0980300
4177.4, 0.0978540
4180.77, 0.0976610
4184.14, 0.0973730
4187.52, 0.0971960
4190.91, 0.0972240
4194.3, 0.0972480
4197.69, 0.0970670
4201.1, 0.0968600
4204.5, 0.0967250
4207.92, 0.0967330
4211.34, 0.0966320
4214.76, 0.0963940
4218.19, 0.0961080
4221.62, 0.0958040
4225.06, 0.0956780
4228.51, 0.0956930
4231.96, 0.0955650
4235.42, 0.0954330
4238.88, 0.0953840
4242.35, 0.0952260
4245.83, 0.0950650
4249.31, 0.0949840
4252.79, 0.0951350
4256.28, 0.0953010
4259.78, 0.0951040
4263.29, 0.0947080
4266.79, 0.0945410
4270.31, 0.0945030
4273.83, 0.0944060
4277.35, 0.0941350
4280.89, 0.0938930
4284.42, 0.0937560
4287.97, 0.0937090
4291.52, 0.0936830
4295.07, 0.0935930
4298.63, 0.0934620
4302.2, 0.0934050
4305.78, 0.0934050
4309.35, 0.0932990
4312.94, 0.0931500
4316.53, 0.0930070
4320.13, 0.0928870
4323.73, 0.0928190
4327.34, 0.0928420
4330.96, 0.0928530
4334.58, 0.0927490
4338.21, 0.0926610
4341.84, 0.0926380
4345.48, 0.0924970
4349.12, 0.0923340
4352.77, 0.0922910
4356.43, 0.0922690
4360.1, 0.0923110
4363.76, 0.0922870
4367.44, 0.0920730
4371.12, 0.0921890
4374.81, 0.0923610
4378.51, 0.0920980
4382.21, 0.0918490
4385.92, 0.0919430
4389.63, 0.0921110
4393.35, 0.0920330
4397.08, 0.0917830
4400.81, 0.0916710
4404.55, 0.0916680
4408.29, 0.0914590
4412.04, 0.0913690
4415.8, 0.0913540
4419.57, 0.0911820
4423.34, 0.0910410
4427.12, 0.0908350
4430.9, 0.0906180
4434.69, 0.0905180
4438.49, 0.0903740
4442.29, 0.0902980
4446.1, 0.0901410
4449.92, 0.0900820
4453.74, 0.0900600
4457.57, 0.0901430
4461.41, 0.0899860
4465.25, 0.0896880
4469.1, 0.0896450
4472.95, 0.0896240
4476.82, 0.0894590
4480.69, 0.0892420
4484.56, 0.0890910
4488.44, 0.0891340
4492.33, 0.0892310
4496.23, 0.0888960
4500.13, 0.0886680
4504.04, 0.0886240
4507.96, 0.0881490
4511.88, 0.0878360
4515.81, 0.0878230
4519.75, 0.0873650
4523.69, 0.0867730
4527.65, 0.0862760
4531.6, 0.0858390
4535.57, 0.0854400
4539.54, 0.0851290
4543.52, 0.0847140
4547.5, 0.0841330
4551.5, 0.0834330
4555.5, 0.0827760
4559.5, 0.0823570
4563.52, 0.0820110
4567.54, 0.0813520
4571.56, 0.0803400
4575.6, 0.0796030
4579.64, 0.0791030
4583.69, 0.0782800
4587.75, 0.0773850
4591.81, 0.0768120
4595.88, 0.0760080
4599.96, 0.0750510
4604.04, 0.0741070
4608.14, 0.0732330
4612.24, 0.0725350
4616.34, 0.0715700
4620.46, 0.0705750
4624.58, 0.0699110
4628.71, 0.0692530
4632.84, 0.0684120
4636.99, 0.0675510
4641.14, 0.0669900
4645.3, 0.0664440
4649.47, 0.0655740
4653.64, 0.0649580
4657.82, 0.0645580
4662.01, 0.0639800
4666.21, 0.0636420
4670.41, 0.0632950
4674.62, 0.0627330
4678.84, 0.0622380
4683.07, 0.0619430
4687.3, 0.0617340
4691.54, 0.0614360
4695.79, 0.0612910
4700.05, 0.0612410
4704.31, 0.0609240
4708.59, 0.0608230
4712.87, 0.0607340
4717.15, 0.0604670
4721.45, 0.0601230
4725.76, 0.0597720
4730.07, 0.0594280
4734.39, 0.0590720
4738.72, 0.0587720
4743.05, 0.0587740
4747.39, 0.0585380
4751.75, 0.0576840
4756.1, 0.0571850
4760.47, 0.0570750
4764.85, 0.0567460
4769.23, 0.0562770
4773.62, 0.0558660
4778.02, 0.0554030
4782.43, 0.0548280
4786.85, 0.0543480
4791.27, 0.0538170
4795.7, 0.0535380
4800.14, 0.0531190
4804.59, 0.0523190
4809.05, 0.0520460
4813.51, 0.0524860
4817.99, 0.0521960
4822.47, 0.0517130
4826.96, 0.0514270
4831.46, 0.0512340
4835.96, 0.0512040
4840.48, 0.0513170
4845.0, 0.0511840
4849.54, 0.0513780
4854.08, 0.0517140
4858.63, 0.0512490
4863.18, 0.0510760
4867.75, 0.0512100
4872.33, 0.0513890
4876.91, 0.0520790
4881.5, 0.0521600
4886.1, 0.0516190
4890.71, 0.0508800
4895.33, 0.0510180
4899.96, 0.0513510
4904.59, 0.0510080
4909.24, 0.0508350
4913.89, 0.0506370
4918.55, 0.0509050
4923.22, 0.0510270
4927.9, 0.0510800
4932.59, 0.0509750
4937.29, 0.0501750
4942.0, 0.0502200
4946.71, 0.0502340
4951.44, 0.0499130
4956.17, 0.0502580
4960.91, 0.0503180
4965.67, 0.0495330
4970.43, 0.0494600
4975.2, 0.0501560
4979.98, 0.0495990
4984.76, 0.0488740
4989.56, 0.0491320
4994.37, 0.0491210
4999.18, 0.0489600
5004.01, 0.0491940
5008.84, 0.0491460
5013.69, 0.0490650
5018.54, 0.0489720
5023.4, 0.0483920
5028.28, 0.0480300
5033.16, 0.0477510
5038.05, 0.0472350
5042.95, 0.0465140
5047.86, 0.0460820
5052.78, 0.0458780
5057.71, 0.0457380
5062.65, 0.0452750
5067.6, 0.0449110
5072.56, 0.0445920
5077.53, 0.0443040
5082.5, 0.0440080
5087.49, 0.0438500
5092.49, 0.0438940
5097.5, 0.0436680
5102.51, 0.0433140
5107.54, 0.0432530
5112.58, 0.0428930
5117.62, 0.0425940
5122.68, 0.0421980
5127.75, 0.0418480
5132.82, 0.0420000
5137.91, 0.0417470
5143.01, 0.0415180
5148.12, 0.0412880
5153.23, 0.0410840
5158.36, 0.0411130
5163.5, 0.0411550
5168.65, 0.0416040
5173.81, 0.0422470
5178.98, 0.0424920
5184.15, 0.0428840
5189.34, 0.0431220
5194.54, 0.0436680
5199.75, 0.0438600
5204.98, 0.0437740
5210.21, 0.0441370
5215.45, 0.0446530
5220.7, 0.0448800
5225.96, 0.0451110
5231.23, 0.0456950
5236.52, 0.0461420
5241.81, 0.0461470
5247.12, 0.0458450
5252.44, 0.0453340
5257.76, 0.0453590
5263.1, 0.0457300
5268.45, 0.0460060
5273.81, 0.0463660
5279.18, 0.0462300
5284.56, 0.0462290
5289.95, 0.0468970
5295.36, 0.0474330
5300.77, 0.0478740
5306.2, 0.0479360
5311.63, 0.0477480
5317.08, 0.0480960
5322.54, 0.0487590
5328.01, 0.0488370
5333.49, 0.0484710
5338.98, 0.0482570
5344.49, 0.0483420
5350.0, 0.0484210
5355.53, 0.0483660
5361.07, 0.0482810
5366.62, 0.0482260
5372.18, 0.0480370
5377.75, 0.0477610
5383.34, 0.0470950
5388.93, 0.0464590
5394.54, 0.0461380
5400.16, 0.0459810
5405.79, 0.0460500
5411.44, 0.0461050
5417.09, 0.0460600
5422.76, 0.0456950
5428.43, 0.0451230
5434.12, 0.0451110
5439.83, 0.0450940
5445.54, 0.0446350
5451.26, 0.0443210
5457.0, 0.0445320
5462.75, 0.0444670
5468.52, 0.0442990
5474.29, 0.0440310
5480.08, 0.0439700
5485.88, 0.0441370
5491.69, 0.0443450
5497.51, 0.0445320
5503.35, 0.0446440
5509.2, 0.0448070
5515.06, 0.0449480
5520.93, 0.0447860
5526.82, 0.0443110
5532.71, 0.0442630
5538.63, 0.0439390
5544.55, 0.0433670
5550.49, 0.0430510
5556.44, 0.0425840
5562.4, 0.0421200
5568.37, 0.0419450
5574.36, 0.0414170
5580.36, 0.0408410
5586.37, 0.0406130
5592.4, 0.0405020
5598.44, 0.0401600
5604.49, 0.0395710
5610.56, 0.0392730
5616.63, 0.0391620
5622.73, 0.0390240
5628.83, 0.0388270
5634.95, 0.0387680
5641.08, 0.0390180
5647.23, 0.0394870
5653.39, 0.0394670
5659.56, 0.0393890
5665.74, 0.0392050
5671.94, 0.0389850
5678.15, 0.0388510
5684.38, 0.0390350
5690.62, 0.0392910
5696.87, 0.0392790
5703.14, 0.0392960
5709.42, 0.0391390
5715.72, 0.0389360
5722.03, 0.0386950
5728.35, 0.0384300
5734.69, 0.0381470
5741.03, 0.0376910
5747.4, 0.0376200
5753.78, 0.0376590
5760.17, 0.0377350
5766.58, 0.0374900
5773.0, 0.0373250
5779.44, 0.0374060
5785.88, 0.0374480
5792.35, 0.0377090
5798.83, 0.0376040
5805.32, 0.0375050
5811.83, 0.0375610
5818.35, 0.0373250
5824.89, 0.0370300
5831.45, 0.0370270
5838.01, 0.0372040
5844.59, 0.0369450
5851.19, 0.0368250
5857.8, 0.0372690
5864.43, 0.0375400
5871.07, 0.0373540
5877.73, 0.0369980
5884.4, 0.0370520
5891.09, 0.0369950
5897.79, 0.0365780
5904.5, 0.0366040
5911.23, 0.0363490
5917.98, 0.0355480
5924.75, 0.0348140
5931.53, 0.0345320
5938.32, 0.0344430
5945.13, 0.0342250
5951.96, 0.0338190
5958.8, 0.0334950
5965.65, 0.0330530
5972.53, 0.0324740
5979.42, 0.0320760
5986.32, 0.0318460
5993.24, 0.0318220
6000.18, 0.0318420
6007.13, 0.0318250
6014.1, 0.0317850
6021.08, 0.0315690
6028.09, 0.0313800
6035.1, 0.0313890
6042.14, 0.0313230
6049.19, 0.0312080
6056.25, 0.0311710
6063.34, 0.0312860
6070.44, 0.0312840
6077.55, 0.0313730
6084.69, 0.0314890
6091.84, 0.0315470
6099.0, 0.0316310
6106.19, 0.0316230
6113.39, 0.0316000
6120.61, 0.0316900
6127.84, 0.0317750
6135.09, 0.0317090
6142.36, 0.0314660
6149.65, 0.0311160
6156.95, 0.0308180
6164.27, 0.0305870
6171.61, 0.0304650
6178.97, 0.0303880
6186.34, 0.0302760
6193.73, 0.0303730
6201.14, 0.0302710
6208.57, 0.0302810
6216.01, 0.0301190
6223.47, 0.0299670
6230.95, 0.0302460
6238.45, 0.0302680
6245.97, 0.0302360
6253.5, 0.0301170
6261.06, 0.0300630
6268.63, 0.0301260
6276.21, 0.0301540
6283.82, 0.0301630
6291.45, 0.0298190
6299.1, 0.0296210
6306.76, 0.0298460
6314.44, 0.0299880
6322.14, 0.0297330
6329.86, 0.0297380
6337.6, 0.0299290
6345.35, 0.0299990
6353.13, 0.0303780
6360.92, 0.0308150
6368.74, 0.0307230
6376.57, 0.0307750
6384.43, 0.0313220
6392.3, 0.0314620
6400.19, 0.0316700
6408.1, 0.0321090
6416.03, 0.0320250
6423.98, 0.0320280
6431.95, 0.0321760
6439.94, 0.0324500
6447.95, 0.0329160
6455.98, 0.0330350
6464.03, 0.0331120
6472.1, 0.0331860
6480.19, 0.0329010
6488.31, 0.0328730
6496.44, 0.0330240
6504.59, 0.0329120
6512.76, 0.0324270
6520.95, 0.0324560
6529.16, 0.0325470
6537.4, 0.0326640
6545.65, 0.0327000
6553.92, 0.0325420
6562.22, 0.0324130
6570.54, 0.0319610
6578.88, 0.0314120
6587.23, 0.0310960
6595.61, 0.0310920
6604.02, 0.0310270
6612.44, 0.0309990
6620.89, 0.0307450
6629.35, 0.0304920
6637.84, 0.0304260
6646.35, 0.0306000
6654.88, 0.0304960
6663.44, 0.0305310
6672.01, 0.0305500
6680.61, 0.0303310
6689.23, 0.0302780
6697.88, 0.0305460
6706.54, 0.0307020
6715.23, 0.0306180
6723.94, 0.0304350
6732.67, 0.0303080
6741.42, 0.0299710
6750.2, 0.0296580
6759.0, 0.0295690
6767.82, 0.0294240
6776.67, 0.0293750
6785.54, 0.0293040
6794.44, 0.0291500
6803.35, 0.0288950
6812.29, 0.0289910
6821.26, 0.0292770
6830.24, 0.0290620
6839.25, 0.0287810
6848.29, 0.0287640
6857.35, 0.0285150
6866.43, 0.0280040
6875.54, 0.0278800
6884.67, 0.0279540
6893.82, 0.0276670
6903.0, 0.0273370
6912.2, 0.0274830
6921.43, 0.0276100
6930.69, 0.0277460
6939.96, 0.0274970
6949.27, 0.0271240
6958.59, 0.0269860
6967.95, 0.0269790
6977.33, 0.0267740
6986.73, 0.0265650
6996.16, 0.0266690
7005.61, 0.0267070
7015.09, 0.0264350
7024.6, 0.0262750
7034.13, 0.0261170
7043.69, 0.0259820
7053.27, 0.0259180
7062.88, 0.0257370
7072.52, 0.0257230
7082.18, 0.0257510
7091.87, 0.0255980
7101.58, 0.0256300
7111.32, 0.0255910
7121.09, 0.0251620
7130.88, 0.0251390
7140.71, 0.0251580
7150.56, 0.0249920
7160.43, 0.0244020
7170.33, 0.0239420
7180.27, 0.0241230
7190.23, 0.0240580
7200.21, 0.0238270
7210.23, 0.0238430
7220.27, 0.0238200
7230.34, 0.0236220
7240.44, 0.0233270
7250.56, 0.0230710
7260.72, 0.0229360
7270.9, 0.0227510
7281.12, 0.0226020
7291.36, 0.0221000
7301.63, 0.0217480
7311.93, 0.0217710
7322.25, 0.0217580
7332.61, 0.0218310
7343.0, 0.0216510
7353.41, 0.0212030
7363.86, 0.0210880
7374.33, 0.0210250
7384.83, 0.0206080
7395.37, 0.0205760
7405.93, 0.0205360
7416.53, 0.0203520
7427.15, 0.0203710
7437.81, 0.0200900
7448.5, 0.0198800
7459.22, 0.0199380
7469.96, 0.0199280
7480.74, 0.0196650
7491.55, 0.0191630
7502.39, 0.0189900
7513.27, 0.0194190
7524.17, 0.0197890
7535.11, 0.0192780
7546.08, 0.0188580
7557.08, 0.0186280
7568.11, 0.0186020
7579.17, 0.0184740
7590.27, 0.0181750
7601.4, 0.0181050
7612.56, 0.0180480
7623.76, 0.0178860
7634.98, 0.0179380
7646.24, 0.0177490
7657.54, 0.0174390
7668.87, 0.0174830
7680.23, 0.0173570
7691.62, 0.0171520
7703.05, 0.0170420
7714.51, 0.0167960
7726.01, 0.0168620
7737.54, 0.0170970
7749.11, 0.0169540
7760.71, 0.0167590
7772.35, 0.0168150
7784.02, 0.0166580
7795.72, 0.0164240
7807.46, 0.0161190
7819.23, 0.0159470
7831.04, 0.0158620
7842.89, 0.0160150
7854.77, 0.0159890
7866.69, 0.0159000
7878.65, 0.0158410
7890.64, 0.0159540
7902.67, 0.0159590
7914.74, 0.0156310
7926.84, 0.0156300
7938.98, 0.0155760
7951.16, 0.0154540
7963.37, 0.0154380
7975.62, 0.0153010
7987.91, 0.0154470
8000.24, 0.0154550
8012.6, 0.0154700
8025.01, 0.0153220
8037.45, 0.0148720
8049.93, 0.0147140
8062.45, 0.0148540
8075.01, 0.0145870
8087.61, 0.0148290
8100.24, 0.0148090
8112.91, 0.0144650
8125.63, 0.0146740
8138.39, 0.0148850
8151.18, 0.0149560
8164.02, 0.0145270
8176.9, 0.0142260
8189.81, 0.0142390
8202.77, 0.0141560
8215.77, 0.0140070
8228.82, 0.0137600
8241.9, 0.0134800
8255.02, 0.0132980
8268.19, 0.0132800
8281.39, 0.0131710
8294.65, 0.0131700
8307.94, 0.0134330
8321.28, 0.0135040
8334.66, 0.0131440
8348.08, 0.0128640
8361.54, 0.0129520
8375.05, 0.0132280
8388.6, 0.0134980
8402.2, 0.0138160
8415.84, 0.0143760
8429.52, 0.0146330
8443.25, 0.0147250
8457.02, 0.0152580
8470.84, 0.0156450
8484.7, 0.0162930
8498.61, 0.0173230
8512.57, 0.0188150
8526.57, 0.0202100
8540.62, 0.0219110
8554.71, 0.0241880
8568.85, 0.0273450
8583.04, 0.0311050
8597.27, 0.0348840
8611.55, 0.0394610
8625.88, 0.0451750
8640.26, 0.0517590
8654.68, 0.0600050
8669.16, 0.0694780
8683.68, 0.0793950
8698.25, 0.0895760
8712.87, 0.100069
8727.53, 0.107608
8742.25, 0.111127
8757.02, 0.114145
8771.83, 0.121151
8786.7, 0.132266
8801.62, 0.145126
8816.59, 0.157319
8831.61, 0.166253
8846.68, 0.170909
8861.8, 0.172274
8876.97, 0.172138
8892.2, 0.172231
8907.48, 0.174140
8922.81, 0.178524
8938.2, 0.184665
8953.63, 0.190533
8969.13, 0.194795
8984.67, 0.197581
9000.27, 0.199033
9015.92, 0.199923
9031.63, 0.200265
9047.39, 0.200253
9063.21, 0.199844
9079.08, 0.199404
9095.01, 0.199267
9111.0, 0.199388
9127.04, 0.199326
9143.13, 0.199109
9159.28, 0.198801
9175.49, 0.198646
9191.76, 0.198652
9208.09, 0.198980
9224.47, 0.200295
9240.92, 0.201713
9257.42, 0.203138
9273.98, 0.204494
9290.6, 0.206574
9307.28, 0.209556
9324.02, 0.212805
9340.82, 0.215787
9357.68, 0.218844
9374.6, 0.221900
9391.58, 0.224422
9408.62, 0.226780
9425.73, 0.229253
9442.9, 0.231373
9460.13, 0.232809
9477.42, 0.233886
9494.78, 0.234328
9512.2, 0.233780
9529.69, 0.231989
9547.24, 0.228454
9564.86, 0.222899
9582.54, 0.215616
9600.28, 0.206647
9618.1, 0.196981
9635.97, 0.186767
9653.92, 0.176548
9671.93, 0.167168
9690.01, 0.158579
9708.16, 0.150957
9726.37, 0.144668
9744.65, 0.140415
9763.0, 0.138207
9781.43, 0.138009
9799.92, 0.139992
9818.48, 0.143758
9837.1, 0.148344
9855.8, 0.152821
9874.58, 0.156308
9893.42, 0.158353
9912.34, 0.158703
9931.33, 0.157044
9950.39, 0.152906
9969.52, 0.147571
9988.74, 0.142434
10008.0, 0.138833
10027.4, 0.139770
10046.8, 0.145192
10066.3, 0.151919
10085.9, 0.158389
10105.6, 0.164221
10125.3, 0.169646
10145.1, 0.177369
10165.0, 0.186847
10185.0, 0.195613
10205.0, 0.200743
10225.2, 0.201026
10245.4, 0.196882
10265.7, 0.188569
10286.0, 0.177726
10306.5, 0.168053
10327.0, 0.163082
10347.6, 0.164431
10368.3, 0.169105
10389.1, 0.173961
10409.9, 0.177783
10430.9, 0.179945
10451.9, 0.179911
10473.0, 0.178621
10494.2, 0.176425
10515.5, 0.172645
10536.9, 0.168469
10558.4, 0.164670
10579.9, 0.161299
10601.5, 0.158311
10623.3, 0.155961
10645.1, 0.154576
10667.0, 0.154112
10689.0, 0.155508
10711.1, 0.157999
10733.2, 0.160406
10755.5, 0.161853
10777.9, 0.161531
10800.3, 0.158559
10822.9, 0.152298
10845.5, 0.143524
10868.2, 0.133429
10891.1, 0.122242
10914.0, 0.110982
10937.0, 0.101270
10960.2, 0.0941770
10983.4, 0.0904750
11006.7, 0.0901220
11030.1, 0.0924120
11053.6, 0.0955410
11077.3, 0.0975930
11101.0, 0.0979340
11124.8, 0.0971300
11148.7, 0.0966870
11172.7, 0.0986010
11196.9, 0.104579
11221.1, 0.115508
11245.4, 0.128564
11269.9, 0.141030
11294.4, 0.150584
11319.1, 0.156914
11343.9, 0.161071
11368.8, 0.163137
11393.7, 0.163330
11418.8, 0.162430
11444.0, 0.160845
11469.4, 0.158656
11494.8, 0.156119
11520.3, 0.152962
11546.0, 0.149385
11571.8, 0.146167
11597.7, 0.143003
11623.7, 0.139228
11649.8, 0.135131
11676.0, 0.130657
11702.4, 0.126033
11728.9, 0.120448
11755.5, 0.113956
11782.2, 0.107637
11809.0, 0.102357
11836.0, 0.0979350
11863.0, 0.0943670
11890.3, 0.0912840
11917.6, 0.0883500
11945.0, 0.0855990
11972.6, 0.0831230
12000.4, 0.0809840
12028.2, 0.0791370
12056.2, 0.0769740
12084.3, 0.0750810
12112.5, 0.0733790
12140.9, 0.0716150
12169.4, 0.0701890
12198.0, 0.0690850
12226.8, 0.0675740
12255.7, 0.0661350
12284.7, 0.0649920
12313.9, 0.0637300
12343.2, 0.0629180
12372.7, 0.0621390
12402.3, 0.0612410
12432.0, 0.0601640
12461.9, 0.0591870
12491.9, 0.0582130
12522.1, 0.0575120
12552.4, 0.0566200
12582.9, 0.0558240
12613.5, 0.0548950
12644.3, 0.0538910
12675.2, 0.0533320
12706.3, 0.0525350
12737.5, 0.0514770
12768.9, 0.0505900
12800.4, 0.0498280
12832.1, 0.0490140
12863.9, 0.0484860
12895.9, 0.0478210
12928.1, 0.0466370
12960.4, 0.0460690
12992.9, 0.0453670
13025.5, 0.0441420
13058.3, 0.0431230
13091.3, 0.0424650
13124.4, 0.0415550
13157.8, 0.0405330
13191.2, 0.0401000
13224.9, 0.0392630
13258.7, 0.0378590
13292.7, 0.0365590
13326.9, 0.0364520
13361.2, 0.0357840
13395.7, 0.0348620
13430.4, 0.0353460
13465.3, 0.0356390
13500.4, 0.0346990
13535.7, 0.0341450
13571.1, 0.0333920
13606.7, 0.0324480
13642.5, 0.0329000
13678.5, 0.0349720
13714.7, 0.0377610
13751.1, 0.0406240
13787.6, 0.0421900
13824.4, 0.0416500
13861.4, 0.0400200
13898.5, 0.0382770
13935.9, 0.0362610
13973.5, 0.0349920
14011.2, 0.0344720
14049.2, 0.0335890
14087.4, 0.0321010
14125.8, 0.0309150
14164.3, 0.0307620
14203.2, 0.0309020
14242.2, 0.0312340
14281.4, 0.0332000
14320.9, 0.0376870
14360.5, 0.0437700
14400.4, 0.0502200
14440.5, 0.0554840
14480.9, 0.0578790
14521.4, 0.0577610
14562.2, 0.0561720
14603.3, 0.0542900
14644.5, 0.0530610
14686.0, 0.0521120
14727.7, 0.0511520
14769.7, 0.0510390
14811.9, 0.0510510
14854.3, 0.0499480
14897.0, 0.0479480
14939.9, 0.0454710
14983.1, 0.0427210
15026.5, 0.0390180
15070.2, 0.0358040
15114.2, 0.0336690
15158.3, 0.0331790
15202.8, 0.0342910
15247.5, 0.0366810
15292.5, 0.0401910
15337.7, 0.0428710
15383.2, 0.0444830
15429.0, 0.0452960
15475.1, 0.0457910
15521.4, 0.0450610
15568.0, 0.0427450
15614.9, 0.0408130
15662.1, 0.0388140
15709.6, 0.0370550
15757.3, 0.0360130
15805.4, 0.0347810
15853.7, 0.0343750
15902.3, 0.0352920
15951.2, 0.0367910
16000.5, 0.0384400
16050.0, 0.0415690
16099.8, 0.0464780
16150.0, 0.0535030
16200.5, 0.0624210
16251.3, 0.0728760
16302.4, 0.0842910
16353.8, 0.0951230
16405.5, 0.104853
16457.6, 0.113016
16510.0, 0.120316
16562.8, 0.127337
16615.9, 0.133119
16669.3, 0.137939
16723.1, 0.141845
16777.2, 0.145401
16831.7, 0.149017
16886.5, 0.152218
16941.7, 0.154900
16997.2, 0.157779
17053.1, 0.161408
17109.4, 0.165031
17166.1, 0.168481
17223.1, 0.173575
17280.5, 0.180632
17338.3, 0.187704
17396.5, 0.193201
17455.1, 0.195517
17514.0, 0.194976
17573.4, 0.192729
17633.2, 0.188743
17693.4, 0.183598
17754.0, 0.180570
17815.0, 0.183127
17876.4, 0.189573
17938.3, 0.195235
18000.5, 0.199872
18063.3, 0.205703
18126.4, 0.213062
18190.0, 0.221308
18254.1, 0.226624
18318.6, 0.226497
18383.5, 0.220579
18449.0, 0.211954
18514.9, 0.205134
18581.2, 0.201470
18648.0, 0.200465
18715.4, 0.201609
18783.2, 0.201711
18851.5, 0.203403
18920.3, 0.211855
18989.6, 0.227965
19059.4, 0.247952
19129.7, 0.268266
19200.6, 0.284978
19272.0, 0.297348
19343.9, 0.303474
19416.3, 0.304581
19489.3, 0.304386
19562.8, 0.303673
19637.0, 0.300000
19711.6, 0.295188
19786.8, 0.289661
19862.6, 0.283201
19939.0, 0.276248
20016.0, 0.268574
20093.6, 0.262107
20171.8, 0.256159
20250.6, 0.244580
20330.0, 0.230582
20410.0, 0.221871
20490.7, 0.214476
20572.0, 0.205351
20654.0, 0.196145
20736.6, 0.189394
20819.9, 0.183741
20903.8, 0.177280
20988.5, 0.170934
21073.8, 0.164032
21159.8, 0.161228
21246.5, 0.163029
21334.0, 0.166998
21422.1, 0.169532
21511.0, 0.172836
21600.7, 0.177949
21691.0, 0.185162
21782.1, 0.192393
21874.0, 0.198692
21966.7, 0.204766
22060.2, 0.209210
22154.5, 0.211431
22249.6, 0.205760
22345.5, 0.199189
22442.2, 0.192064
22539.8, 0.184078
22638.2, 0.173996
22737.5, 0.164055
22837.7, 0.155349
22938.7, 0.147761
23040.7, 0.142373
23143.5, 0.137589
23247.3, 0.133268
23352.1, 0.128317
23457.7, 0.123520
23564.4, 0.119199
23672.0, 0.114004
23780.5, 0.110172
23890.1, 0.107702
24000.7, 0.102944
24112.3, 0.0990220
24225.0, 0.0963600
24338.7, 0.0955760
24453.5, 0.0978130
24569.4, 0.103484
24686.4, 0.109889
24804.5, 0.117052
24923.8, 0.124150
25044.2, 0.127726
25165.8, 0.129089
25288.6, 0.128754
25412.5, 0.127250
25537.7, 0.122967
25664.1, 0.118698
25791.8, 0.113952
25920.8, 0.109940
26051.1, 0.105786
26182.6, 0.100604
26315.5, 0.0975690
26449.8, 0.0973890
26585.4, 0.100938
26722.5, 0.104025
26860.9, 0.104282
27000.8, 0.103446
27142.1, 0.100012
27285.0, 0.0963470
27429.4, 0.0937750
27575.3, 0.0948550
27722.7, 0.102726
27871.8, 0.115200
28022.4, 0.126748
28174.7, 0.136895
28328.7, 0.146540
28484.4, 0.152751
28641.7, 0.153638
28800.9, 0.151979
28961.8, 0.151105
29124.5, 0.150809
29289.0, 0.149266
29455.4, 0.144932
29623.8, 0.140328
29794.0, 0.139814
29966.3, 0.140071
30140.5, 0.137846
30316.7, 0.136869
30495.1, 0.135390
30675.5, 0.129423
30858.1, 0.125063
31042.8, 0.121553
31229.8, 0.118839
31419.1, 0.116306
31610.7, 0.113142
31804.6, 0.111072
32000.9, 0.109361
32199.7, 0.107252
32400.9, 0.104526
32604.8, 0.102970
32811.1, 0.103896
33020.1, 0.104745
33231.8, 0.0998840
33446.2, 0.0957300
33663.4, 0.0933640
33883.4, 0.0910750
34106.3, 0.0902900
34332.1, 0.0905220
34561.0, 0.0905730
34792.9, 0.0890940
35028.0, 0.0879370
35266.3, 0.0873190
35507.8, 0.0862260
35752.7, 0.0834870
36001.0, 0.0801440
36252.8, 0.0779440
36508.1, 0.0814940
36767.0, 0.0880780
37029.7, 0.0947910
37296.1, 0.102507
37566.3, 0.108140
37840.5, 0.109040
38118.8, 0.107973
38401.2, 0.105246
38687.8, 0.104179
38978.6, 0.103227
39273.9, 0.102854
39573.7, 0.0980700
39878.1, 0.0934540
40187.3, 0.0911900
40501.2, 0.0872550
40820.0, 0.0816870
41144.0, 0.0760930
41473.2, 0.0730060
41807.6, 0.0714120
42147.5, 0.0711420
42493.0, 0.0733660
42844.2, 0.0765680
43201.2, 0.0820210
43564.3, 0.0927590
43933.5, 0.113438
44309.0, 0.131069
44691.0, 0.139312
45079.6, 0.144598
45475.0, 0.143016
45877.5, 0.140341
46287.1, 0.137911
46704.2, 0.137551
47128.7, 0.134464
47561.1, 0.133062
48001.5, 0.130362
48450.1, 0.122196
48907.2, 0.122491
49373.0, 0.124446
49847.7, 0.118402
50331.5, 0.115907
50825.0, 0.116190
51328.2, 0.116422
51841.5, 0.114094
52365.1, 0.110635
52899.4, 0.111586
53444.8, 0.111921
54001.5, 0.108436
54570.1, 0.107317
55150.6, 0.110287
55743.6, 0.110905
56349.5, 0.117026
56968.7, 0.122144
57601.7, 0.116872
58248.9, 0.116409
58910.9, 0.116795
59588.1, 0.112538
60281.0, 0.111406
60990.2, 0.110995
61716.3, 0.110647
62459.8, 0.110840
63221.6, 0.112846
64002.1, 0.111098
64802.1, 0.112152
65622.1, 0.115650
66463.4, 0.118621
67326.6, 0.108770
68212.4, 0.106005
69121.9, 0.107124
70056.0, 0.106905
71015.7, 0.111869
72002.0, 0.114351
73016.3, 0.112023
74059.4, 0.112731
75132.7, 0.119122
76237.6, 0.121257
77375.5, 0.119739
78547.9, 0.121733
79756.3, 0.120434
81002.5, 0.119688
82288.5, 0.124318
83615.7, 0.122929
84986.5, 0.122646
86402.9, 0.123803
87867.4, 0.126002
89382.4, 0.128086
90950.5, 0.127996
92574.6, 0.130876
94257.2, 0.143440
96002.7, 0.144559
97814.1, 0.148211
99695.1, 0.157458
101650.0, 0.149382
103683.0, 0.145215
105799.0, 0.154320
108003.0, 0.160776
110301.0, 0.156622
112699.0, 0.173739
115204.0, 0.176761
117822.0, 0.162910
120562.0, 0.169148
123433.0, 0.180259
126443.0, 0.183165
129604.0, 0.185441
132926.0, 0.187036
136424.0, 0.187460
140111.0, 0.195022
144003.0, 0.205181
148118.0, 0.222915
152474.0, 0.247105
157095.0, 0.262936
162004.0, 0.257367
167231.0, 0.248185
172805.0, 0.260209
178764.0, 0.280374
185148.0, 0.320986
192005.0, 0.265623
199390.0, 0.280168
207366.0, 0.569544
216006.0, 0.434231
