Database of Origin, USGS Spectral Database
Sample Description, See USGS database for additional info
Date Added,2017-07-03 06:06:53.148544

Data ID,USGS_oli33          
Sample ID, olivine_ki4143.17147
Mineral Name, olivine
Material Class,Nesosilicate

Wavelength
1280.99, 0.239881
1281.3, 0.239881
1281.62, 0.239881
1281.94, 0.239881
1282.25, 0.239881
1282.57, 0.239881
1282.89, 0.239881
1283.21, 0.239881
1283.52, 0.239881
1283.84, 0.239881
1284.16, 0.239881
1284.48, 0.239881
1284.8, 0.239881
1285.11, 0.239881
1285.43, 0.239881
1285.75, 0.239881
1286.07, 0.239881
1286.39, 0.239881
1286.71, 0.239881
1287.03, 0.239881
1287.35, 0.239881
1287.67, 0.239881
1287.99, 0.239881
1288.31, 0.239881
1288.63, 0.239881
1288.95, 0.239881
1289.27, 0.239881
1289.59, 0.239881
1289.91, 0.239881
1290.23, 0.239881
1290.55, 0.239881
1290.88, 0.239881
1291.2, 0.239881
1291.52, 0.239881
1291.84, 0.239881
1292.16, 0.239881
1292.48, 0.239881
1292.81, 0.239881
1293.13, 0.239881
1293.45, 0.239881
1293.77, 0.239881
1294.1, 0.239881
1294.42, 0.239881
1294.74, 0.239881
1295.07, 0.239881
1295.39, 0.239881
1295.71, 0.239881
1296.04, 0.239881
1296.36, 0.239881
1296.69, 0.239881
1297.01, 0.239881
1297.34, 0.239881
1297.66, 0.239881
1297.98, 0.239881
1298.31, 0.239881
1298.64, 0.239881
1298.96, 0.239881
1299.29, 0.239881
1299.61, 0.239881
1299.94, 0.239881
1300.26, 0.239881
1300.59, 0.239881
1300.92, 0.239881
1301.24, 0.239881
1301.57, 0.239881
1301.9, 0.239881
1302.22, 0.239881
1302.55, 0.239881
1302.88, 0.239881
1303.21, 0.239881
1303.53, 0.239881
1303.86, 0.239881
1304.19, 0.239881
1304.52, 0.239881
1304.85, 0.239881
1305.17, 0.239881
1305.5, 0.239881
1305.83, 0.239881
1306.16, 0.239881
1306.49, 0.239881
1306.82, 0.239881
1307.15, 0.239881
1307.48, 0.239881
1307.81, 0.239881
1308.14, 0.239881
1308.47, 0.239881
1308.8, 0.239881
1309.13, 0.239881
1309.46, 0.239881
1309.79, 0.239881
1310.12, 0.239881
1310.45, 0.239881
1310.79, 0.239881
1311.12, 0.239881
1311.45, 0.239881
1311.78, 0.239881
1312.11, 0.239881
1312.44, 0.239881
1312.78, 0.239881
1313.11, 0.239881
1313.44, 0.239881
1313.77, 0.239881
1314.11, 0.239881
1314.44, 0.239881
1314.77, 0.239881
1315.11, 0.239881
1315.44, 0.239881
1315.78, 0.239881
1316.11, 0.239881
1316.44, 0.239881
1316.78, 0.239881
1317.11, 0.239881
1317.45, 0.239881
1317.78, 0.239881
1318.12, 0.239881
1318.45, 0.239881
1318.79, 0.239881
1319.12, 0.239881
1319.46, 0.239881
1319.8, 0.239881
1320.13, 0.239881
1320.47, 0.239881
1320.8, 0.239881
1321.14, 0.239881
1321.48, 0.239881
1321.81, 0.239881
1322.15, 0.239881
1322.49, 0.239881
1322.83, 0.239881
1323.16, 0.239881
1323.5, 0.239881
1323.84, 0.239881
1324.18, 0.239881
1324.52, 0.239881
1324.85, 0.239881
1325.19, 0.239881
1325.53, 0.239881
1325.87, 0.239881
1326.21, 0.239881
1326.55, 0.239881
1326.89, 0.239881
1327.23, 0.239881
1327.57, 0.239881
1327.91, 0.239881
1328.25, 0.239881
1328.59, 0.239881
1328.93, 0.239881
1329.27, 0.239881
1329.61, 0.239881
1329.95, 0.239881
1330.29, 0.239881
1330.64, 0.239881
1330.98, 0.239881
1331.32, 0.239881
1331.66, 0.239881
1332.0, 0.239881
1332.34, 0.239881
1332.69, 0.239881
1333.03, 0.239881
1333.37, 0.239881
1333.72, 0.239881
1334.06, 0.239881
1334.4, 0.239881
1334.75, 0.239881
1335.09, 0.239881
1335.43, 0.239881
1335.78, 0.239881
1336.12, 0.239881
1336.47, 0.239881
1336.81, 0.239881
1337.16, 0.239881
1337.5, 0.239881
1337.85, 0.239881
1338.19, 0.239881
1338.54, 0.239881
1338.88, 0.239881
1339.23, 0.239881
1339.58, 0.239881
1339.92, 0.239881
1340.27, 0.239881
1340.61, 0.239881
1340.96, 0.239881
1341.31, 0.239881
1341.66, 0.239881
1342.0, 0.239881
1342.35, 0.239881
1342.7, 0.239881
1343.05, 0.239881
1343.39, 0.239881
1343.74, 0.239881
1344.09, 0.239881
1344.44, 0.239881
1344.79, 0.239881
1345.14, 0.239881
1345.48, 0.239881
1345.83, 0.239881
1346.18, 0.239881
1346.53, 0.239881
1346.88, 0.239881
1347.23, 0.239881
1347.58, 0.239881
1347.93, 0.239881
1348.28, 0.239881
1348.64, 0.239881
1348.99, 0.239881
1349.34, 0.239881
1349.69, 0.239881
1350.04, 0.239881
1350.39, 0.239881
1350.74, 0.239881
1351.1, 0.239881
1351.45, 0.239881
1351.8, 0.239881
1352.15, 0.239881
1352.51, 0.239881
1352.86, 0.239881
1353.21, 0.239881
1353.56, 0.239881
1353.92, 0.239881
1354.27, 0.239881
1354.63, 0.239881
1354.98, 0.239881
1355.33, 0.239881
1355.69, 0.239881
1356.04, 0.239881
1356.4, 0.239881
1356.75, 0.239881
1357.11, 0.239881
1357.46, 0.239881
1357.82, 0.239881
1358.18, 0.239881
1358.53, 0.239881
1358.89, 0.239881
1359.24, 0.239881
1359.6, 0.239881
1359.96, 0.239881
1360.31, 0.239881
1360.67, 0.239881
1361.03, 0.239881
1361.39, 0.239881
1361.74, 0.239881
1362.1, 0.239881
1362.46, 0.239881
1362.82, 0.239881
1363.18, 0.239881
1363.53, 0.239881
1363.89, 0.239881
1364.25, 0.239881
1364.61, 0.239881
1364.97, 0.239881
1365.33, 0.239881
1365.69, 0.239881
1366.05, 0.239881
1366.41, 0.239881
1366.77, 0.239881
1367.13, 0.239881
1367.49, 0.239881
1367.85, 0.239881
1368.21, 0.239881
1368.57, 0.239881
1368.93, 0.239881
1369.3, 0.239881
1369.66, 0.239881
1370.02, 0.239881
1370.38, 0.239881
1370.74, 0.239881
1371.11, 0.239881
1371.47, 0.239881
1371.83, 0.239881
1372.19, 0.239881
1372.56, 0.239881
1372.92, 0.239881
1373.29, 0.239881
1373.65, 0.239881
1374.01, 0.239881
1374.38, 0.239881
1374.74, 0.239881
1375.11, 0.239881
1375.47, 0.239881
1375.84, 0.239881
1376.2, 0.239881
1376.57, 0.239881
1376.93, 0.239881
1377.3, 0.239881
1377.67, 0.239881
1378.03, 0.239881
1378.4, 0.239881
1378.76, 0.239881
1379.13, 0.239881
1379.5, 0.239881
1379.87, 0.239881
1380.23, 0.239881
1380.6, 0.239881
1380.97, 0.239881
1381.34, 0.239881
1381.7, 0.239881
1382.07, 0.239881
1382.44, 0.239881
1382.81, 0.239881
1383.18, 0.239881
1383.55, 0.239881
1383.92, 0.239881
1384.29, 0.239881
1384.66, 0.239881
1385.03, 0.239881
1385.4, 0.239881
1385.77, 0.239881
1386.14, 0.239881
1386.51, 0.239881
1386.88, 0.239881
1387.25, 0.239881
1387.62, 0.239881
1387.99, 0.239881
1388.36, 0.239881
1388.74, 0.239881
1389.11, 0.239881
1389.48, 0.239881
1389.85, 0.239881
1390.23, 0.239881
1390.6, 0.239881
1390.97, 0.239881
1391.35, 0.239881
1391.72, 0.239881
1392.09, 0.239881
1392.47, 0.239881
1392.84, 0.239881
1393.21, 0.239881
1393.59, 0.239881
1393.96, 0.239881
1394.34, 0.239881
1394.71, 0.239881
1395.09, 0.239881
1395.46, 0.239881
1395.84, 0.239881
1396.22, 0.239881
1396.59, 0.239881
1396.97, 0.239881
1397.35, 0.239881
1397.72, 0.239881
1398.1, 0.239881
1398.48, 0.239881
1398.85, 0.239881
1399.23, 0.239881
1399.61, 0.239881
1399.99, 0.239881
1400.37, 0.239881
1400.74, 0.239881
1401.12, 0.239881
1401.5, 0.239881
1401.88, 0.239881
1402.26, 0.239881
1402.64, 0.239881
1403.02, 0.239881
1403.4, 0.239881
1403.78, 0.239881
1404.16, 0.239881
1404.54, 0.239881
1404.92, 0.239881
1405.3, 0.239881
1405.68, 0.239881
1406.06, 0.239881
1406.44, 0.239881
1406.83, 0.239881
1407.21, 0.239881
1407.59, 0.239881
1407.97, 0.239881
1408.35, 0.239881
1408.74, 0.239881
1409.12, 0.239881
1409.5, 0.239881
1409.89, 0.239881
1410.27, 0.239881
1410.65, 0.239881
1411.04, 0.239881
1411.42, 0.239881
1411.81, 0.239881
1412.19, 0.239881
1412.58, 0.239881
1412.96, 0.239881
1413.35, 0.239881
1413.73, 0.239881
1414.12, 0.239881
1414.5, 0.239881
1414.89, 0.239881
1415.28, 0.239881
1415.66, 0.239881
1416.05, 0.239881
1416.44, 0.239881
1416.82, 0.239881
1417.21, 0.239881
1417.6, 0.239881
1417.98, 0.239881
1418.37, 0.239881
1418.76, 0.239881
1419.15, 0.239881
1419.54, 0.239881
1419.93, 0.239881
1420.32, 0.239881
1420.71, 0.239881
1421.09, 0.239881
1421.48, 0.239881
1421.88, 0.239881
1422.27, 0.239881
1422.66, 0.239881
1423.05, 0.239881
1423.44, 0.239881
1423.83, 0.239881
1424.22, 0.239881
1424.61, 0.239881
1425.0, 0.239881
1425.39, 0.239881
1425.78, 0.239881
1426.18, 0.239881
1426.57, 0.239881
1426.96, 0.239881
1427.36, 0.239881
1427.75, 0.239881
1428.14, 0.239881
1428.54, 0.239881
1428.93, 0.239881
1429.32, 0.239881
1429.72, 0.239881
1430.11, 0.239881
1430.51, 0.239881
1430.9, 0.239881
1431.3, 0.239881
1431.69, 0.239881
1432.09, 0.239881
1432.48, 0.239881
1432.88, 0.239881
1433.28, 0.239881
1433.67, 0.239881
1434.07, 0.239881
1434.46, 0.239881
1434.86, 0.239881
1435.26, 0.239881
1435.66, 0.239881
1436.05, 0.239881
1436.45, 0.239881
1436.85, 0.239881
1437.25, 0.239881
1437.65, 0.239881
1438.05, 0.239881
1438.44, 0.239881
1438.84, 0.239881
1439.24, 0.239881
1439.64, 0.239881
1440.04, 0.239881
1440.44, 0.239881
1440.84, 0.239881
1441.24, 0.239881
1441.65, 0.239881
1442.05, 0.239881
1442.45, 0.239881
1442.85, 0.239881
1443.25, 0.239881
1443.65, 0.239881
1444.05, 0.239881
1444.46, 0.239881
1444.86, 0.239881
1445.26, 0.239881
1445.67, 0.239881
1446.07, 0.239881
1446.47, 0.239881
1446.88, 0.239881
1447.28, 0.239881
1447.68, 0.239881
1448.09, 0.239881
1448.49, 0.239881
1448.9, 0.239881
1449.3, 0.239881
1449.71, 0.239881
1450.11, 0.239881
1450.52, 0.239881
1450.93, 0.239881
1451.33, 0.239881
1451.74, 0.239881
1452.14, 0.239881
1452.55, 0.239881
1452.96, 0.239881
1453.36, 0.239881
1453.77, 0.239881
1454.18, 0.239881
1454.59, 0.239881
1455.0, 0.239881
1455.41, 0.239881
1455.81, 0.239881
1456.22, 0.239881
1456.63, 0.239881
1457.04, 0.239881
1457.45, 0.239881
1457.86, 0.239881
1458.27, 0.239881
1458.68, 0.239881
1459.09, 0.239881
1459.5, 0.239881
1459.91, 0.239881
1460.32, 0.239881
1460.74, 0.239881
1461.15, 0.239881
1461.56, 0.239881
1461.97, 0.239881
1462.39, 0.239881
1462.8, 0.239881
1463.21, 0.239881
1463.62, 0.239881
1464.04, 0.239881
1464.45, 0.239881
1464.86, 0.239881
1465.28, 0.239881
1465.69, 0.239881
1466.11, 0.239881
1466.52, 0.239881
1466.94, 0.239881
1467.35, 0.239881
1467.77, 0.239881
1468.18, 0.239881
1468.6, 0.239881
1469.02, 0.239881
1469.43, 0.239881
1469.85, 0.239881
1470.27, 0.239881
1470.68, 0.239881
1471.1, 0.239881
1471.52, 0.239881
1471.94, 0.239881
1472.35, 0.239881
1472.77, 0.239881
1473.19, 0.239881
1473.61, 0.239881
1474.03, 0.239881
1474.45, 0.239881
1474.87, 0.239881
1475.29, 0.239881
1475.71, 0.239881
1476.13, 0.239881
1476.55, 0.239881
1476.97, 0.239881
1477.39, 0.239881
1477.81, 0.239881
1478.23, 0.239881
1478.65, 0.239881
1479.07, 0.239881
1479.5, 0.239881
1479.92, 0.239881
1480.34, 0.239881
1480.76, 0.239881
1481.19, 0.239881
1481.61, 0.239881
1482.03, 0.239881
1482.46, 0.239881
1482.88, 0.239881
1483.31, 0.239881
1483.73, 0.239881
1484.16, 0.239881
1484.58, 0.239881
1485.01, 0.239881
1485.43, 0.239881
1485.86, 0.239881
1486.28, 0.239881
1486.71, 0.239881
1487.14, 0.239881
1487.56, 0.239881
1487.99, 0.239881
1488.42, 0.239881
1488.84, 0.239881
1489.27, 0.239881
1489.7, 0.239881
1490.13, 0.239881
1490.56, 0.239881
1490.98, 0.239881
1491.41, 0.239881
1491.84, 0.239881
1492.27, 0.239881
1492.7, 0.239881
1493.13, 0.239881
1493.56, 0.239881
1493.99, 0.239881
1494.42, 0.239881
1494.85, 0.239881
1495.29, 0.239881
1495.72, 0.239881
1496.15, 0.239881
1496.58, 0.239881
1497.01, 0.239881
1497.44, 0.239881
1497.88, 0.239881
1498.31, 0.239881
1498.74, 0.239881
1499.18, 0.239881
1499.61, 0.239881
1500.04, 0.239881
1500.48, 0.239881
1500.91, 0.239881
1501.35, 0.239881
1501.78, 0.239881
1502.22, 0.239881
1502.65, 0.239881
1503.09, 0.239881
1503.53, 0.239881
1503.96, 0.239881
1504.4, 0.239881
1504.83, 0.239881
1505.27, 0.239881
1505.71, 0.239881
1506.15, 0.239881
1506.58, 0.239881
1507.02, 0.239881
1507.46, 0.239881
1507.9, 0.239881
1508.34, 0.239881
1508.78, 0.239881
1509.21, 0.239881
1509.66, 0.239881
1510.09, 0.239881
1510.53, 0.239881
1510.97, 0.239881
1511.42, 0.239881
1511.86, 0.239881
1512.3, 0.239881
1512.74, 0.239881
1513.18, 0.239881
1513.62, 0.239881
1514.06, 0.239881
1514.51, 0.239881
1514.95, 0.239881
1515.39, 0.239881
1515.83, 0.239881
1516.28, 0.239881
1516.72, 0.239881
1517.16, 0.239881
1517.61, 0.239881
1518.05, 0.239881
1518.5, 0.239881
1518.94, 0.239881
1519.39, 0.239881
1519.83, 0.239881
1520.28, 0.239881
1520.73, 0.239881
1521.17, 0.239881
1521.62, 0.239881
1522.07, 0.239881
1522.51, 0.239881
1522.96, 0.239881
1523.41, 0.239881
1523.85, 0.239881
1524.3, 0.239881
1524.75, 0.239881
1525.2, 0.239881
1525.65, 0.239881
1526.1, 0.239881
1526.55, 0.239881
1527.0, 0.239881
1527.45, 0.239881
1527.9, 0.239881
1528.35, 0.239881
1528.8, 0.239881
1529.25, 0.239881
1529.7, 0.239881
1530.15, 0.239881
1530.6, 0.239881
1531.05, 0.239881
1531.51, 0.239881
1531.96, 0.239881
1532.41, 0.239881
1532.87, 0.239881
1533.32, 0.239881
1533.77, 0.239881
1534.23, 0.239881
1534.68, 0.239881
1535.14, 0.239881
1535.59, 0.239881
1536.05, 0.239881
1536.5, 0.239881
1536.96, 0.239881
1537.41, 0.239881
1537.87, 0.239881
1538.32, 0.239881
1538.78, 0.239881
1539.24, 0.239881
1539.7, 0.239881
1540.15, 0.239881
1540.61, 0.239881
1541.07, 0.239881
1541.53, 0.239881
1541.98, 0.239881
1542.44, 0.239881
1542.9, 0.239881
1543.36, 0.239881
1543.82, 0.239881
1544.28, 0.239881
1544.74, 0.239881
1545.2, 0.239881
1545.66, 0.239881
1546.12, 0.239881
1546.59, 0.239881
1547.05, 0.239881
1547.51, 0.239881
1547.97, 0.239881
1548.43, 0.239881
1548.9, 0.239881
1549.36, 0.239881
1549.82, 0.239881
1550.29, 0.239881
1550.75, 0.239881
1551.21, 0.239881
1551.68, 0.239881
1552.14, 0.239881
1552.61, 0.239881
1553.07, 0.239881
1553.54, 0.239881
1554.0, 0.239881
1554.47, 0.239881
1554.93, 0.239881
1555.4, 0.239881
1555.87, 0.239881
1556.34, 0.239881
1556.8, 0.239881
1557.27, 0.239881
1557.74, 0.239881
1558.21, 0.239881
1558.68, 0.239881
1559.14, 0.239881
1559.61, 0.239881
1560.08, 0.239881
1560.55, 0.239881
1561.02, 0.239881
1561.49, 0.239881
1561.96, 0.239881
1562.43, 0.239881
1562.9, 0.239881
1563.38, 0.239881
1563.85, 0.239881
1564.32, 0.239881
1564.79, 0.239881
1565.26, 0.239881
1565.74, 0.239881
1566.21, 0.239881
1566.68, 0.239881
1567.16, 0.239881
1567.63, 0.239881
1568.1, 0.239881
1568.58, 0.239881
1569.05, 0.239881
1569.53, 0.239881
1570.0, 0.239881
1570.48, 0.239881
1570.96, 0.239881
1571.43, 0.239881
1571.91, 0.239881
1572.39, 0.239881
1572.86, 0.239881
1573.34, 0.239881
1573.82, 0.239881
1574.3, 0.239881
1574.77, 0.239881
1575.25, 0.239881
1575.73, 0.239881
1576.21, 0.239881
1576.69, 0.239881
1577.17, 0.239881
1577.65, 0.239881
1578.13, 0.239881
1578.61, 0.239881
1579.09, 0.239881
1579.57, 0.239881
1580.05, 0.239881
1580.54, 0.239881
1581.02, 0.239881
1581.5, 0.239881
1581.98, 0.239881
1582.47, 0.239881
1582.95, 0.239881
1583.43, 0.239881
1583.92, 0.239881
1584.4, 0.239881
1584.88, 0.239881
1585.37, 0.239881
1585.85, 0.239881
1586.34, 0.239881
1586.82, 0.239881
1587.31, 0.239881
1587.8, 0.239881
1588.28, 0.239881
1588.77, 0.239881
1589.26, 0.239881
1589.74, 0.239881
1590.23, 0.239881
1590.72, 0.239881
1591.21, 0.239881
1591.7, 0.239881
1592.19, 0.239881
1592.67, 0.239881
1593.16, 0.239881
1593.65, 0.239881
1594.14, 0.239881
1594.63, 0.239881
1595.12, 0.239881
1595.61, 0.239881
1596.11, 0.239881
1596.6, 0.239881
1597.09, 0.239881
1597.58, 0.239881
1598.08, 0.239881
1598.57, 0.239881
1599.06, 0.239881
1599.55, 0.239881
1600.05, 0.239881
1600.54, 0.239881
1601.04, 0.239881
1601.53, 0.239881
1602.03, 0.239881
1602.52, 0.239881
1603.02, 0.239881
1603.51, 0.239881
1604.01, 0.239881
1604.5, 0.239881
1605.0, 0.239881
1605.5, 0.239881
1606.0, 0.239881
1606.49, 0.239881
1606.99, 0.239881
1607.49, 0.239881
1607.99, 0.239881
1608.49, 0.239881
1608.99, 0.239881
1609.49, 0.239881
1609.99, 0.239881
1610.49, 0.239881
1610.99, 0.239881
1611.49, 0.239881
1611.99, 0.239881
1612.49, 0.239881
1612.99, 0.239881
1613.49, 0.239881
1614.0, 0.239881
1614.5, 0.239881
1615.0, 0.239881
1615.51, 0.239881
1616.01, 0.239881
1616.51, 0.239881
1617.02, 0.239881
1617.52, 0.239881
1618.03, 0.239881
1618.53, 0.239881
1619.04, 0.239881
1619.54, 0.239881
1620.05, 0.239881
1620.55, 0.239881
1621.06, 0.239881
1621.57, 0.239881
1622.08, 0.239881
1622.58, 0.239881
1623.09, 0.239881
1623.6, 0.239881
1624.11, 0.239881
1624.62, 0.239881
1625.13, 0.239881
1625.64, 0.239881
1626.15, 0.239881
1626.66, 0.239881
1627.17, 0.239881
1627.68, 0.239881
1628.19, 0.239881
1628.7, 0.239881
1629.21, 0.239881
1629.72, 0.239881
1630.24, 0.239881
1630.75, 0.239881
1631.26, 0.239881
1631.78, 0.239881
1632.29, 0.239881
1632.8, 0.239881
1633.32, 0.239881
1633.83, 0.239881
1634.35, 0.239881
1634.86, 0.239881
1635.38, 0.239881
1635.9, 0.239881
1636.41, 0.239881
1636.93, 0.239881
1637.45, 0.239881
1637.96, 0.239881
1638.48, 0.239881
1639.0, 0.239881
1639.52, 0.239881
1640.04, 0.239881
1640.56, 0.239881
1641.08, 0.239881
1641.59, 0.239881
1642.11, 0.239881
1642.63, 0.239881
1643.16, 0.239881
1643.68, 0.239881
1644.2, 0.239881
1644.72, 0.239881
1645.24, 0.239881
1645.76, 0.239881
1646.29, 0.239881
1646.81, 0.239881
1647.33, 0.239881
1647.86, 0.239881
1648.38, 0.239881
1648.9, 0.239881
1649.43, 0.239881
1649.95, 0.239881
1650.48, 0.239881
1651.0, 0.239881
1651.53, 0.239881
1652.06, 0.239881
1652.58, 0.239881
1653.11, 0.239881
1653.64, 0.239881
1654.17, 0.239881
1654.69, 0.239881
1655.22, 0.239881
1655.75, 0.239881
1656.28, 0.239881
1656.81, 0.239881
1657.34, 0.239881
1657.87, 0.239881
1658.4, 0.239881
1658.93, 0.239881
1659.46, 0.239881
1659.99, 0.239881
1660.52, 0.239881
1661.05, 0.239881
1661.59, 0.239881
1662.12, 0.239881
1662.65, 0.239881
1663.19, 0.239881
1663.72, 0.239881
1664.26, 0.239881
1664.79, 0.239881
1665.32, 0.239881
1665.86, 0.239881
1666.39, 0.239881
1666.93, 0.239881
1667.47, 0.239881
1668.0, 0.239881
1668.54, 0.239881
1669.08, 0.239881
1669.61, 0.239881
1670.15, 0.239881
1670.69, 0.239881
1671.23, 0.239881
1671.77, 0.239881
1672.31, 0.239881
1672.85, 0.239881
1673.39, 0.239881
1673.93, 0.239881
1674.47, 0.239881
1675.01, 0.239881
1675.55, 0.239881
1676.09, 0.239881
1676.64, 0.239881
1677.18, 0.239881
1677.72, 0.239881
1678.26, 0.239881
1678.81, 0.239881
1679.35, 0.239881
1679.89, 0.239881
1680.44, 0.239881
1680.98, 0.239881
1681.53, 0.239881
1682.07, 0.239881
1682.62, 0.239881
1683.17, 0.239881
1683.71, 0.239881
1684.26, 0.239881
1684.81, 0.239881
1685.36, 0.239881
1685.9, 0.239881
1686.45, 0.239881
1687.0, 0.239881
1687.55, 0.239881
1688.1, 0.239881
1688.65, 0.239881
1689.2, 0.239881
1689.75, 0.239881
1690.3, 0.239881
1690.85, 0.239881
1691.41, 0.239881
1691.96, 0.239881
1692.51, 0.239881
1693.06, 0.239881
1693.61, 0.239881
1694.17, 0.239881
1694.72, 0.239881
1695.28, 0.239881
1695.83, 0.239881
1696.39, 0.239881
1696.94, 0.239881
1697.5, 0.239881
1698.05, 0.239881
1698.61, 0.239881
1699.17, 0.239881
1699.72, 0.239881
1700.28, 0.239881
1700.84, 0.239881
1701.4, 0.239881
1701.95, 0.239881
1702.51, 0.239881
1703.07, 0.239881
1703.63, 0.239881
1704.19, 0.239881
1704.75, 0.239881
1705.31, 0.239881
1705.88, 0.239881
1706.44, 0.239881
1707.0, 0.239881
1707.56, 0.239881
1708.12, 0.239881
1708.69, 0.239881
1709.25, 0.239881
1709.81, 0.239881
1710.38, 0.239881
1710.94, 0.239881
1711.51, 0.239881
1712.07, 0.239881
1712.64, 0.239881
1713.2, 0.239881
1713.77, 0.239881
1714.34, 0.239881
1714.9, 0.239881
1715.47, 0.239881
1716.04, 0.239881
1716.61, 0.239881
1717.18, 0.239881
1717.74, 0.239881
1718.31, 0.239881
1718.88, 0.239881
1719.45, 0.239881
1720.02, 0.239881
1720.59, 0.239881
1721.17, 0.239881
1721.74, 0.239881
1722.31, 0.239881
1722.88, 0.239881
1723.45, 0.239881
1724.03, 0.239881
1724.6, 0.239881
1725.18, 0.239881
1725.75, 0.239881
1726.33, 0.239881
1726.9, 0.239881
1727.48, 0.239881
1728.05, 0.239881
1728.63, 0.239881
1729.2, 0.239881
1729.78, 0.239881
1730.36, 0.239881
1730.94, 0.239881
1731.51, 0.239881
1732.09, 0.239881
1732.67, 0.239881
1733.25, 0.239881
1733.83, 0.239881
1734.41, 0.239881
1734.99, 0.239881
1735.57, 0.239881
1736.15, 0.239881
1736.73, 0.239881
1737.32, 0.239881
1737.9, 0.239881
1738.48, 0.239881
1739.07, 0.239881
1739.65, 0.239881
1740.23, 0.239881
1740.82, 0.239881
1741.4, 0.239881
1741.99, 0.239881
1742.57, 0.239881
1743.16, 0.239881
1743.74, 0.239881
1744.33, 0.239881
1744.92, 0.239881
1745.51, 0.239881
1746.09, 0.239881
1746.68, 0.239881
1747.27, 0.239881
1747.86, 0.239881
1748.45, 0.239881
1749.04, 0.239881
1749.63, 0.239881
1750.22, 0.239881
1750.81, 0.239881
1751.4, 0.239881
1751.99, 0.239881
1752.59, 0.239881
1753.18, 0.239881
1753.77, 0.239881
1754.37, 0.239881
1754.96, 0.239881
1755.56, 0.239881
1756.15, 0.239881
1756.74, 0.239881
1757.34, 0.239881
1757.94, 0.239881
1758.53, 0.239881
1759.13, 0.239881
1759.73, 0.239881
1760.32, 0.239881
1760.92, 0.239881
1761.52, 0.239881
1762.12, 0.239881
1762.72, 0.239881
1763.32, 0.239881
1763.92, 0.239881
1764.52, 0.239881
1765.12, 0.239881
1765.72, 0.239881
1766.32, 0.239881
1766.92, 0.239881
1767.53, 0.239881
1768.13, 0.239881
1768.73, 0.239881
1769.34, 0.239881
1769.94, 0.239881
1770.55, 0.239881
1771.15, 0.239881
1771.76, 0.239881
1772.36, 0.239881
1772.97, 0.239881
1773.57, 0.239881
1774.18, 0.239881
1774.79, 0.239881
1775.4, 0.239881
1776.0, 0.239881
1776.61, 0.239881
1777.22, 0.239881
1777.83, 0.239881
1778.44, 0.239881
1779.05, 0.239881
1779.66, 0.239881
1780.27, 0.239881
1780.88, 0.239881
1781.5, 0.239881
1782.11, 0.239881
1782.72, 0.239881
1783.33, 0.239881
1783.95, 0.239881
1784.56, 0.239881
1785.18, 0.239881
1785.79, 0.239881
1786.41, 0.239881
1787.02, 0.239881
1787.64, 0.239881
1788.26, 0.239881
1788.87, 0.239881
1789.49, 0.239881
1790.11, 0.239881
1790.73, 0.239881
1791.35, 0.239881
1791.96, 0.239881
1792.58, 0.239881
1793.21, 0.239881
1793.83, 0.239881
1794.45, 0.239881
1795.07, 0.239881
1795.69, 0.239881
1796.31, 0.239881
1796.93, 0.239881
1797.56, 0.239881
1798.18, 0.239881
1798.8, 0.239881
1799.43, 0.239881
1800.05, 0.239881
1800.68, 0.239881
1801.3, 0.239881
1801.93, 0.239881
1802.56, 0.239881
1803.18, 0.239881
1803.81, 0.239881
1804.44, 0.239881
1805.07, 0.239881
1805.7, 0.239881
1806.33, 0.239881
1806.95, 0.239881
1807.58, 0.239881
1808.22, 0.239881
1808.85, 0.239881
1809.48, 0.239881
1810.11, 0.239881
1810.74, 0.239881
1811.38, 0.239881
1812.01, 0.239881
1812.64, 0.239881
1813.28, 0.239881
1813.91, 0.239881
1814.55, 0.239881
1815.18, 0.239881
1815.82, 0.239881
1816.45, 0.239881
1817.09, 0.239881
1817.73, 0.239881
1818.36, 0.239881
1819.0, 0.239881
1819.64, 0.239881
1820.28, 0.239881
1820.92, 0.239881
1821.56, 0.239881
1822.2, 0.239881
1822.84, 0.239881
1823.48, 0.239881
1824.12, 0.239881
1824.76, 0.239881
1825.41, 0.239881
1826.05, 0.239881
1826.69, 0.239881
1827.34, 0.239881
1827.98, 0.239881
1828.63, 0.239881
1829.27, 0.239881
1829.92, 0.239881
1830.56, 0.239881
1831.21, 0.239881
1831.86, 0.239881
1832.5, 0.239881
1833.15, 0.239881
1833.8, 0.239881
1834.45, 0.239881
1835.1, 0.239881
1835.75, 0.239881
1836.4, 0.239881
1837.05, 0.239881
1837.7, 0.239881
1838.35, 0.239881
1839.01, 0.239881
1839.66, 0.239881
1840.31, 0.239881
1840.96, 0.239881
1841.62, 0.239881
1842.27, 0.239881
1842.93, 0.239881
1843.58, 0.239881
1844.24, 0.239881
1844.9, 0.239881
1845.55, 0.239881
1846.21, 0.239881
1846.87, 0.239881
1847.53, 0.239881
1848.18, 0.239881
1848.84, 0.239881
1849.5, 0.239881
1850.16, 0.239881
1850.82, 0.239881
1851.48, 0.239881
1852.14, 0.239881
1852.81, 0.239881
1853.47, 0.239881
1854.13, 0.239881
1854.8, 0.239881
1855.46, 0.239881
1856.12, 0.239881
1856.79, 0.239881
1857.45, 0.239881
1858.12, 0.239881
1858.79, 0.239881
1859.45, 0.239881
1860.12, 0.239881
1860.79, 0.239881
1861.46, 0.239881
1862.12, 0.239881
1862.79, 0.239881
1863.46, 0.239881
1864.13, 0.239881
1864.8, 0.239881
1865.48, 0.239881
1866.15, 0.239881
1866.82, 0.239881
1867.49, 0.239881
1868.16, 0.239881
1868.84, 0.239881
1869.51, 0.239881
1870.19, 0.239881
1870.86, 0.239881
1871.54, 0.239881
1872.21, 0.239881
1872.89, 0.239881
1873.56, 0.239881
1874.24, 0.239881
1874.92, 0.239881
1875.6, 0.239881
1876.28, 0.239881
1876.96, 0.239881
1877.64, 0.239881
1878.32, 0.239881
1879.0, 0.239881
1879.68, 0.239881
1880.36, 0.239881
1881.04, 0.239881
1881.73, 0.239881
1882.41, 0.239881
1883.09, 0.239881
1883.78, 0.239881
1884.46, 0.239881
1885.15, 0.239881
1885.83, 0.239881
1886.52, 0.239881
1887.21, 0.239881
1887.89, 0.239881
1888.58, 0.239881
1889.27, 0.239881
1889.96, 0.239881
1890.65, 0.239881
1891.34, 0.239881
1892.03, 0.239881
1892.72, 0.239881
1893.41, 0.239881
1894.1, 0.239881
1894.79, 0.239881
1895.49, 0.239881
1896.18, 0.239881
1896.87, 0.239881
1897.57, 0.239881
1898.26, 0.239881
1898.96, 0.239881
1899.65, 0.239881
1900.35, 0.239881
1901.05, 0.239881
1901.74, 0.239881
1902.44, 0.239881
1903.14, 0.239881
1903.84, 0.239881
1904.54, 0.239881
1905.24, 0.239881
1905.94, 0.239881
1906.64, 0.239881
1907.34, 0.239881
1908.04, 0.239881
1908.75, 0.239881
1909.45, 0.239881
1910.15, 0.239881
1910.86, 0.239881
1911.56, 0.239881
1912.27, 0.239881
1912.97, 0.239881
1913.68, 0.239881
1914.39, 0.239881
1915.09, 0.239881
1915.8, 0.239881
1916.51, 0.239881
1917.22, 0.239881
1917.93, 0.239881
1918.64, 0.239881
1919.35, 0.239881
1920.06, 0.239881
1920.77, 0.239881
1921.48, 0.239881
1922.19, 0.239881
1922.91, 0.239881
1923.62, 0.239881
1924.33, 0.239881
1925.05, 0.239881
1925.76, 0.239881
1926.48, 0.239881
1927.19, 0.239881
1927.91, 0.239881
1928.63, 0.239881
1929.35, 0.239881
1930.07, 0.239881
1930.78, 0.239881
1931.5, 0.239881
1932.22, 0.239881
1932.94, 0.239881
1933.66, 0.239881
1934.39, 0.239881
1935.11, 0.239881
1935.83, 0.239881
1936.55, 0.239881
1937.28, 0.239881
1938.0, 0.239881
1938.73, 0.239881
1939.45, 0.239881
1940.18, 0.239881
1940.9, 0.239881
1941.63, 0.239881
1942.36, 0.239881
1943.09, 0.239881
1943.81, 0.239881
1944.54, 0.239881
1945.27, 0.239881
1946.0, 0.239881
1946.73, 0.239881
1947.47, 0.239881
1948.2, 0.239881
1948.93, 0.239881
1949.66, 0.239881
1950.4, 0.239881
1951.13, 0.239881
1951.86, 0.239881
1952.6, 0.239881
1953.34, 0.239881
1954.07, 0.239881
1954.81, 0.239881
1955.55, 0.239881
1956.29, 0.239881
1957.02, 0.239881
1957.76, 0.239881
1958.5, 0.239881
1959.24, 0.239881
1959.98, 0.239881
1960.72, 0.239881
1961.47, 0.239881
1962.21, 0.239881
1962.95, 0.239881
1963.7, 0.239881
1964.44, 0.239881
1965.18, 0.239881
1965.93, 0.239881
1966.67, 0.239881
1967.42, 0.239881
1968.17, 0.239881
1968.92, 0.239881
1969.66, 0.239881
1970.41, 0.239881
1971.16, 0.239881
1971.91, 0.239881
1972.66, 0.239881
1973.41, 0.239881
1974.16, 0.239881
1974.92, 0.239881
1975.67, 0.239881
1976.42, 0.239881
1977.18, 0.239881
1977.93, 0.239881
1978.69, 0.239881
1979.44, 0.239881
1980.2, 0.239881
1980.95, 0.239881
1981.71, 0.239881
1982.47, 0.239881
1983.23, 0.239881
1983.99, 0.239881
1984.74, 0.239881
1985.51, 0.239881
1986.27, 0.239881
1987.03, 0.239881
1987.79, 0.239881
1988.55, 0.239881
1989.32, 0.239881
1990.08, 0.239881
1990.84, 0.239881
1991.61, 0.239881
1992.37, 0.239881
1993.14, 0.239881
1993.9, 0.239881
1994.67, 0.239881
1995.44, 0.239881
1996.21, 0.239881
1996.98, 0.239881
1997.75, 0.239881
1998.52, 0.239881
1999.29, 0.239881
2000.06, 0.239881
2000.83, 0.239881
2001.6, 0.239881
2002.38, 0.239881
2003.15, 0.239881
2003.93, 0.239881
2004.7, 0.239881
2005.48, 0.239881
2006.25, 0.239881
2007.03, 0.239881
2007.81, 0.239881
2008.58, 0.239881
2009.36, 0.239881
2010.14, 0.239881
2010.92, 0.239881
2011.7, 0.239881
2012.48, 0.239881
2013.26, 0.239881
2014.05, 0.239881
2014.83, 0.239881
2015.61, 0.239881
2016.4, 0.239881
2017.18, 0.239881
2017.97, 0.239881
2018.75, 0.239881
2019.54, 0.239881
2020.32, 0.239881
2021.11, 0.239881
2021.9, 0.239881
2022.69, 0.239881
2023.48, 0.239881
2024.27, 0.239881
2025.06, 0.239881
2025.85, 0.239881
2026.64, 0.239881
2027.44, 0.239881
2028.23, 0.239881
2029.02, 0.239881
2029.82, 0.239881
2030.61, 0.239881
2031.41, 0.239881
2032.2, 0.239881
2033.0, 0.239881
2033.8, 0.239881
2034.6, 0.239881
2035.4, 0.239881
2036.2, 0.239881
2037.0, 0.239881
2037.8, 0.239881
2038.6, 0.239881
2039.4, 0.239881
2040.2, 0.239881
2041.01, 0.239881
2041.81, 0.239881
2042.61, 0.239881
2043.42, 0.239881
2044.22, 0.239881
2045.03, 0.239881
2045.84, 0.239881
2046.65, 0.239881
2047.46, 0.239881
2048.26, 0.239881
2049.07, 0.239881
2049.88, 0.239881
2050.69, 0.239881
2051.51, 0.239881
2052.32, 0.239881
2053.13, 0.239881
2053.94, 0.239881
2054.76, 0.239881
2055.57, 0.239881
2056.39, 0.239881
2057.2, 0.239881
2058.02, 0.239881
2058.84, 0.239881
2059.66, 0.239881
2060.48, 0.239881
2061.29, 0.239881
2062.11, 0.239881
2062.94, 0.239881
2063.76, 0.239881
2064.58, 0.239881
2065.4, 0.239881
2066.22, 0.239881
2067.05, 0.239881
2067.87, 0.239881
2068.7, 0.239881
2069.52, 0.239881
2070.35, 0.239881
2071.18, 0.239881
2072.0, 0.239881
2072.83, 0.239881
2073.66, 0.239881
2074.49, 0.239881
2075.32, 0.239881
2076.15, 0.239881
2076.98, 0.239881
2077.82, 0.239881
2078.65, 0.239881
2079.48, 0.239881
2080.32, 0.240652
2081.15, 0.239966
2081.99, 0.239111
2082.83, 0.239126
2083.66, 0.239477
2084.5, 0.239327
2085.34, 0.239542
2086.18, 0.239596
2087.02, 0.239277
2087.86, 0.238987
2088.7, 0.239092
2089.54, 0.239092
2090.39, 0.239750
2091.23, 0.239596
2092.07, 0.239681
2092.92, 0.239615
2093.76, 0.239165
2094.61, 0.239446
2095.45, 0.239851
2096.3, 0.240255
2097.15, 0.239720
2098.0, 0.239060
2098.85, 0.238263
2099.7, 0.238055
2100.55, 0.237593
2101.4, 0.237678
2102.25, 0.238602
2103.1, 0.239118
2103.96, 0.240556
2104.81, 0.239127
2105.67, 0.237481
2106.52, 0.237227
2107.38, 0.237246
2108.24, 0.237963
2109.09, 0.237492
2109.95, 0.237389
2110.81, 0.238995
2111.67, 0.239615
2112.53, 0.238656
2113.39, 0.239015
2114.25, 0.239569
2115.12, 0.237963
2115.98, 0.236822
2116.84, 0.236664
2117.71, 0.237623
2118.58, 0.238883
2119.44, 0.238413
2120.31, 0.237377
2121.18, 0.238205
2122.04, 0.237500
2122.91, 0.236664
2123.78, 0.236314
2124.65, 0.237219
2125.52, 0.237735
2126.4, 0.237643
2127.27, 0.237774
2128.14, 0.237377
2129.02, 0.237311
2129.89, 0.237377
2130.77, 0.237997
2131.64, 0.237762
2132.52, 0.236953
2133.4, 0.236645
2134.27, 0.236945
2135.15, 0.237866
2136.03, 0.237508
2136.91, 0.236861
2137.79, 0.237273
2138.68, 0.236645
2139.56, 0.237057
2140.44, 0.237623
2141.33, 0.237342
2142.21, 0.237246
2143.1, 0.237990
2143.99, 0.238112
2144.87, 0.237670
2145.76, 0.238093
2146.65, 0.237161
2147.54, 0.236822
2148.43, 0.236475
2149.32, 0.237454
2150.21, 0.237257
2151.1, 0.236024
2151.99, 0.236437
2152.89, 0.237566
2153.78, 0.237342
2154.68, 0.237473
2155.57, 0.237662
2156.47, 0.237585
2157.37, 0.237180
2158.27, 0.237492
2159.16, 0.238402
2160.06, 0.237527
2160.96, 0.237650
2161.86, 0.237258
2162.77, 0.236887
2163.67, 0.237527
2164.57, 0.237558
2165.48, 0.237396
2166.38, 0.238028
2167.29, 0.236672
2168.2, 0.236136
2169.1, 0.235920
2170.01, 0.235724
2170.92, 0.236117
2171.83, 0.235130
2172.74, 0.235319
2173.65, 0.236548
2174.56, 0.237304
2175.47, 0.236606
2176.39, 0.236182
2177.3, 0.236495
2178.22, 0.236737
2179.13, 0.236448
2180.05, 0.236194
2180.96, 0.236606
2181.88, 0.237435
2182.8, 0.236279
2183.72, 0.236378
2184.64, 0.236983
2185.56, 0.237696
2186.48, 0.237462
2187.41, 0.236861
2188.33, 0.236213
2189.25, 0.236229
2190.18, 0.236606
2191.1, 0.237377
2192.03, 0.236853
2192.96, 0.236568
2193.89, 0.236437
2194.82, 0.236267
2195.74, 0.235562
2196.68, 0.236248
2197.61, 0.236888
2198.54, 0.236853
2199.47, 0.236598
2200.4, 0.235967
2201.34, 0.235497
2202.28, 0.236195
2203.21, 0.236718
2204.15, 0.236880
2205.08, 0.237173
2206.02, 0.237134
2206.96, 0.236059
2207.9, 0.235608
2208.84, 0.235882
2209.78, 0.236618
2210.73, 0.236899
2211.67, 0.236953
2212.61, 0.236587
2213.56, 0.236625
2214.5, 0.236672
2215.45, 0.236618
2216.4, 0.236306
2217.35, 0.235909
2218.3, 0.236429
2219.24, 0.237246
2220.2, 0.236560
2221.15, 0.235705
2222.1, 0.236533
2223.05, 0.236379
2224.0, 0.235504
2224.96, 0.236144
2225.91, 0.237154
2226.87, 0.237546
2227.83, 0.237435
2228.79, 0.236880
2229.74, 0.236098
2230.7, 0.236606
2231.66, 0.237265
2232.63, 0.236013
2233.59, 0.235843
2234.55, 0.236853
2235.51, 0.237847
2236.48, 0.237443
2237.44, 0.236683
2238.41, 0.236625
2239.38, 0.237716
2240.34, 0.237801
2241.31, 0.236907
2242.28, 0.236259
2243.25, 0.236653
2244.22, 0.236984
2245.19, 0.236887
2246.17, 0.236907
2247.14, 0.236448
2248.12, 0.236391
2249.09, 0.237011
2250.07, 0.236672
2251.04, 0.236521
2252.02, 0.236194
2253.0, 0.236363
2253.98, 0.236259
2254.96, 0.236888
2255.94, 0.237200
2256.92, 0.236814
2257.91, 0.236521
2258.89, 0.235639
2259.88, 0.235797
2260.86, 0.235920
2261.85, 0.236456
2262.83, 0.236880
2263.82, 0.237030
2264.81, 0.237153
2265.8, 0.236783
2266.79, 0.236175
2267.78, 0.235647
2268.78, 0.235404
2269.77, 0.236005
2270.76, 0.236448
2271.76, 0.236371
2272.75, 0.236013
2273.75, 0.236379
2274.75, 0.236768
2275.75, 0.236926
2276.75, 0.236887
2277.75, 0.236363
2278.75, 0.235628
2279.75, 0.234764
2280.75, 0.235015
2281.76, 0.234603
2282.76, 0.234695
2283.77, 0.235262
2284.77, 0.235666
2285.78, 0.235366
2286.79, 0.235554
2287.8, 0.235724
2288.81, 0.235705
2289.82, 0.236298
2290.83, 0.236229
2291.84, 0.235751
2292.86, 0.235712
2293.87, 0.235489
2294.89, 0.235431
2295.91, 0.236059
2296.92, 0.236417
2297.94, 0.235431
2298.96, 0.235354
2299.98, 0.235261
2301.0, 0.235308
2302.02, 0.235712
2303.04, 0.236155
2304.07, 0.235959
2305.09, 0.235196
2306.12, 0.235666
2307.15, 0.236144
2308.17, 0.235685
2309.2, 0.235940
2310.23, 0.235928
2311.26, 0.235489
2312.29, 0.235771
2313.32, 0.236684
2314.35, 0.236540
2315.39, 0.236136
2316.42, 0.236379
2317.46, 0.236398
2318.5, 0.236363
2319.53, 0.235724
2320.57, 0.235261
2321.61, 0.235562
2322.65, 0.235504
2323.69, 0.234876
2324.73, 0.235185
2325.78, 0.235404
2326.82, 0.235177
2327.86, 0.235346
2328.91, 0.234772
2329.96, 0.234210
2331.01, 0.235150
2332.05, 0.235967
2333.1, 0.235366
2334.15, 0.234649
2335.21, 0.234445
2336.26, 0.235223
2337.31, 0.235288
2338.36, 0.235254
2339.42, 0.235562
2340.48, 0.235882
2341.53, 0.235731
2342.59, 0.235628
2343.65, 0.236664
2344.71, 0.236410
2345.77, 0.235994
2346.83, 0.236352
2347.9, 0.236599
2348.96, 0.236633
2350.02, 0.236456
2351.09, 0.236783
2352.16, 0.236880
2353.23, 0.236768
2354.29, 0.237038
2355.36, 0.237003
2356.43, 0.236887
2357.51, 0.236953
2358.58, 0.237292
2359.65, 0.237866
2360.73, 0.237265
2361.8, 0.237180
2362.88, 0.237593
2363.96, 0.237292
2365.03, 0.236749
2366.11, 0.236757
2367.19, 0.237142
2368.27, 0.236972
2369.36, 0.236822
2370.44, 0.236599
2371.53, 0.237103
2372.61, 0.237388
2373.7, 0.237238
2374.78, 0.236521
2375.87, 0.236645
2376.96, 0.237323
2378.05, 0.237539
2379.14, 0.237415
2380.24, 0.237519
2381.33, 0.237481
2382.42, 0.237377
2383.52, 0.237180
2384.61, 0.237207
2385.71, 0.237304
2386.81, 0.237227
2387.91, 0.237716
2389.01, 0.237774
2390.11, 0.237519
2391.22, 0.237558
2392.32, 0.237708
2393.42, 0.237415
2394.53, 0.237859
2395.64, 0.237924
2396.74, 0.237593
2397.85, 0.237519
2398.96, 0.238067
2400.07, 0.238722
2401.18, 0.238656
2402.3, 0.238752
2403.41, 0.238845
2404.52, 0.238903
2405.64, 0.238856
2406.76, 0.238976
2407.88, 0.239570
2408.99, 0.239496
2410.11, 0.239014
2411.23, 0.239157
2412.36, 0.238872
2413.48, 0.239061
2414.6, 0.238752
2415.73, 0.238067
2416.85, 0.238263
2417.98, 0.238552
2419.11, 0.238602
2420.24, 0.238317
2421.37, 0.238047
2422.5, 0.238602
2423.64, 0.238621
2424.77, 0.238695
2425.9, 0.238232
2427.04, 0.238433
2428.18, 0.239439
2429.31, 0.239596
2430.45, 0.239346
2431.59, 0.239203
2432.73, 0.239439
2433.88, 0.239785
2435.02, 0.239477
2436.16, 0.239511
2437.31, 0.239230
2438.45, 0.239061
2439.6, 0.239242
2440.75, 0.239777
2441.9, 0.239935
2443.05, 0.239851
2444.2, 0.239531
2445.35, 0.239242
2446.51, 0.239277
2447.67, 0.239916
2448.82, 0.240228
2449.98, 0.239862
2451.14, 0.239346
2452.3, 0.239315
2453.46, 0.239296
2454.62, 0.239315
2455.78, 0.240070
2456.94, 0.240444
2458.11, 0.240305
2459.28, 0.239831
2460.44, 0.239731
2461.61, 0.239562
2462.78, 0.239758
2463.95, 0.240059
2465.12, 0.240502
2466.3, 0.240483
2467.47, 0.240640
2468.65, 0.240155
2469.82, 0.239816
2471.0, 0.240482
2472.18, 0.240521
2473.36, 0.240190
2474.54, 0.240228
2475.72, 0.240143
2476.9, 0.240086
2478.08, 0.240783
2479.27, 0.241365
2480.46, 0.240960
2481.64, 0.240444
2482.83, 0.240267
2484.02, 0.240155
2485.21, 0.240255
2486.4, 0.240463
2487.6, 0.240698
2488.79, 0.240652
2489.99, 0.240587
2491.18, 0.240405
2492.38, 0.240737
2493.58, 0.240737
2494.78, 0.240340
2495.98, 0.240321
2497.18, 0.240398
2498.39, 0.240960
2499.59, 0.241056
2500.8, 0.240190
2502.01, 0.240274
2503.21, 0.240802
2504.42, 0.240822
2505.63, 0.241195
2506.84, 0.241396
2508.06, 0.241253
2509.27, 0.241396
2510.49, 0.241103
2511.7, 0.241349
2512.92, 0.241554
2514.14, 0.241280
2515.36, 0.240810
2516.58, 0.240691
2517.8, 0.241149
2519.03, 0.241808
2520.25, 0.241997
2521.48, 0.241951
2522.7, 0.242109
2523.93, 0.241904
2525.16, 0.241527
2526.39, 0.242089
2527.62, 0.242656
2528.86, 0.242289
2530.09, 0.242324
2531.33, 0.242910
2532.56, 0.242609
2533.8, 0.242394
2535.04, 0.242486
2536.28, 0.242675
2537.52, 0.243134
2538.76, 0.243257
2540.01, 0.243164
2541.25, 0.243284
2542.5, 0.243049
2543.75, 0.242644
2544.99, 0.242062
2546.24, 0.242748
2547.49, 0.243738
2548.75, 0.243230
2550.0, 0.242656
2551.26, 0.242713
2552.51, 0.242898
2553.77, 0.242467
2555.03, 0.242251
2556.29, 0.242544
2557.55, 0.242617
2558.81, 0.243068
2560.08, 0.243099
2561.34, 0.243218
2562.61, 0.243604
2563.88, 0.243492
2565.14, 0.243342
2566.41, 0.243577
2567.68, 0.243708
2568.96, 0.244001
2570.23, 0.244104
2571.51, 0.244255
2572.78, 0.244752
2574.06, 0.244509
2575.34, 0.244347
2576.62, 0.244228
2577.9, 0.243399
2579.18, 0.243322
2580.47, 0.244189
2581.75, 0.244706
2583.04, 0.244790
2584.32, 0.244451
2585.61, 0.244413
2586.9, 0.244640
2588.2, 0.244320
2589.49, 0.244313
2590.78, 0.244339
2592.08, 0.244548
2593.37, 0.245826
2594.67, 0.246031
2595.97, 0.245365
2597.27, 0.245307
2598.57, 0.245384
2599.88, 0.245345
2601.18, 0.245072
2602.49, 0.245149
2603.79, 0.245846
2605.1, 0.246050
2606.41, 0.245372
2607.72, 0.245357
2609.03, 0.245742
2610.35, 0.245222
2611.66, 0.244686
2612.98, 0.244867
2614.3, 0.245006
2615.62, 0.245592
2616.94, 0.245345
2618.26, 0.245592
2619.58, 0.246081
2620.91, 0.245488
2622.23, 0.245542
2623.56, 0.245526
2624.89, 0.245592
2626.22, 0.246193
2627.55, 0.245600
2628.88, 0.245391
2630.21, 0.245854
2631.55, 0.245704
2632.89, 0.245260
2634.22, 0.245018
2635.56, 0.245187
2636.9, 0.245854
2638.25, 0.245580
2639.59, 0.245580
2640.93, 0.245788
2642.28, 0.245411
2643.63, 0.245253
2644.98, 0.245137
2646.33, 0.245195
2647.68, 0.245137
2649.03, 0.245357
2650.39, 0.245684
2651.74, 0.246193
2653.1, 0.246089
2654.46, 0.245599
2655.82, 0.245372
2657.18, 0.245122
2658.54, 0.245241
2659.9, 0.245260
2661.27, 0.245307
2662.64, 0.245750
2664.01, 0.246127
2665.38, 0.245966
2666.74, 0.245442
2668.12, 0.245599
2669.49, 0.246220
2670.87, 0.245580
2672.24, 0.244967
2673.62, 0.244733
2675.0, 0.244817
2676.38, 0.244667
2677.76, 0.244058
2679.15, 0.243661
2680.54, 0.243118
2681.92, 0.243003
2683.31, 0.243049
2684.7, 0.242428
2686.09, 0.242101
2687.48, 0.241742
2688.88, 0.240802
2690.27, 0.239993
2691.67, 0.239531
2693.07, 0.239288
2694.47, 0.238459
2695.87, 0.237350
2697.27, 0.235724
2698.67, 0.233539
2700.08, 0.231817
2701.49, 0.230106
2702.9, 0.227801
2704.31, 0.225301
2705.72, 0.222808
2707.13, 0.220069
2708.54, 0.217387
2709.96, 0.213746
2711.38, 0.209222
2712.8, 0.205461
2714.22, 0.203034
2715.64, 0.201284
2717.06, 0.199600
2718.49, 0.198648
2719.91, 0.197962
2721.34, 0.196841
2722.77, 0.196063
2724.2, 0.194849
2725.63, 0.193709
2727.07, 0.192900
2728.5, 0.192195
2729.94, 0.191170
2731.38, 0.190523
2732.82, 0.190372
2734.26, 0.190503
2735.7, 0.190268
2737.15, 0.190222
2738.59, 0.190288
2740.04, 0.189852
2741.49, 0.189675
2742.94, 0.189016
2744.39, 0.188958
2745.84, 0.188977
2747.3, 0.188723
2748.76, 0.188434
2750.21, 0.188122
2751.67, 0.188245
2753.14, 0.188311
2754.6, 0.188527
2756.06, 0.188396
2757.53, 0.188084
2759.0, 0.187822
2760.46, 0.187933
2761.94, 0.188245
2763.41, 0.188064
2764.88, 0.188234
2766.36, 0.188149
2767.83, 0.188396
2769.31, 0.188631
2770.79, 0.188781
2772.27, 0.188519
2773.76, 0.188349
2775.24, 0.188527
2776.73, 0.188527
2778.22, 0.188669
2779.71, 0.189120
2781.2, 0.189505
2782.69, 0.189374
2784.18, 0.189139
2785.68, 0.189232
2787.18, 0.189043
2788.68, 0.189101
2790.18, 0.189101
2791.68, 0.188958
2793.19, 0.189024
2794.69, 0.188715
2796.2, 0.188658
2797.71, 0.188989
2799.22, 0.189128
2800.73, 0.189139
2802.24, 0.189382
2803.76, 0.189767
2805.28, 0.189740
2806.8, 0.189852
2808.32, 0.189798
2809.84, 0.189806
2811.36, 0.190106
2812.89, 0.190295
2814.42, 0.190654
2815.94, 0.190850
2817.48, 0.190823
2819.01, 0.190842
2820.54, 0.190973
2822.08, 0.190812
2823.61, 0.191216
2825.15, 0.191752
2826.69, 0.192045
2828.23, 0.192110
2829.78, 0.192318
2831.32, 0.192326
2832.87, 0.192723
2834.42, 0.193016
2835.97, 0.192911
2837.52, 0.192788
2839.08, 0.193050
2840.63, 0.193220
2842.19, 0.193362
2843.75, 0.193898
2845.31, 0.194256
2846.87, 0.194303
2848.44, 0.194125
2850.0, 0.193975
2851.57, 0.194237
2853.14, 0.194276
2854.71, 0.194330
2856.28, 0.194584
2857.86, 0.194426
2859.43, 0.194726
2861.01, 0.194857
2862.59, 0.194669
2864.17, 0.194622
2865.76, 0.194426
2867.34, 0.194622
2868.93, 0.194584
2870.52, 0.194434
2872.11, 0.194557
2873.7, 0.194719
2875.29, 0.194538
2876.89, 0.194276
2878.49, 0.194229
2880.08, 0.194145
2881.69, 0.194029
2883.29, 0.193879
2884.89, 0.194048
2886.5, 0.194399
2888.11, 0.194133
2889.72, 0.194094
2891.33, 0.194264
2892.94, 0.194453
2894.56, 0.194603
2896.17, 0.194368
2897.79, 0.194048
2899.42, 0.194160
2901.04, 0.194191
2902.66, 0.193983
2904.29, 0.193994
2905.92, 0.194068
2907.55, 0.193794
2909.18, 0.193794
2910.81, 0.194160
2912.45, 0.193840
2914.08, 0.193775
2915.72, 0.193859
2917.36, 0.193740
2919.01, 0.193597
2920.65, 0.193597
2922.3, 0.193655
2923.94, 0.193690
2925.59, 0.193794
2927.25, 0.193963
2928.9, 0.193701
2930.56, 0.193439
2932.21, 0.193420
2933.87, 0.193663
2935.53, 0.193956
2937.2, 0.193975
2938.86, 0.193709
2940.53, 0.193570
2942.2, 0.193420
2943.87, 0.193540
2945.54, 0.193994
2947.22, 0.193963
2948.89, 0.193767
2950.57, 0.193813
2952.25, 0.193963
2953.93, 0.194002
2955.62, 0.194114
2957.3, 0.194160
2958.99, 0.194314
2960.68, 0.194426
2962.37, 0.194229
2964.07, 0.194179
2965.76, 0.194314
2967.46, 0.194453
2969.16, 0.194160
2970.86, 0.193983
2972.56, 0.194669
2974.27, 0.194773
2975.98, 0.194726
2977.69, 0.195189
2979.4, 0.195327
2981.11, 0.195123
2982.83, 0.194877
2984.54, 0.195273
2986.26, 0.195451
2987.98, 0.195216
2989.71, 0.195424
2991.43, 0.195609
2993.16, 0.195678
2994.89, 0.195855
2996.62, 0.195882
2998.35, 0.196083
3000.09, 0.195863
3001.83, 0.195563
3003.57, 0.195713
3005.31, 0.195798
3007.05, 0.195986
3008.79, 0.196352
3010.54, 0.196449
3012.29, 0.196333
3014.04, 0.196372
3015.8, 0.196638
3017.55, 0.196861
3019.31, 0.196664
3021.07, 0.196476
3022.83, 0.196722
3024.59, 0.196992
3026.36, 0.197096
3028.13, 0.197173
3029.9, 0.197474
3031.67, 0.197520
3033.44, 0.197304
3035.22, 0.197532
3037.0, 0.197820
3038.78, 0.197662
3040.56, 0.197697
3042.34, 0.197689
3044.13, 0.197663
3045.92, 0.197851
3047.71, 0.198094
3049.5, 0.198179
3051.3, 0.198094
3053.09, 0.198009
3054.89, 0.198075
3056.69, 0.198329
3058.5, 0.198321
3060.3, 0.197990
3062.11, 0.197878
3063.92, 0.197990
3065.73, 0.198256
3067.55, 0.198329
3069.36, 0.198217
3071.18, 0.198472
3073.0, 0.198687
3074.82, 0.198668
3076.65, 0.198714
3078.48, 0.198791
3080.31, 0.198649
3082.14, 0.198676
3083.97, 0.199026
3085.8, 0.199138
3087.64, 0.199034
3089.48, 0.198930
3091.33, 0.199007
3093.17, 0.199562
3095.02, 0.199720
3096.87, 0.199450
3098.72, 0.199855
3100.57, 0.200021
3102.43, 0.199439
3104.28, 0.199458
3106.14, 0.200013
3108.01, 0.200105
3109.87, 0.200105
3111.74, 0.200071
3113.61, 0.199882
3115.48, 0.200190
3117.35, 0.200464
3119.23, 0.200341
3121.1, 0.200286
3122.98, 0.200645
3124.87, 0.200494
3126.75, 0.200078
3128.64, 0.200398
3130.53, 0.201030
3132.42, 0.201038
3134.31, 0.200521
3136.21, 0.200633
3138.11, 0.200907
3140.01, 0.201180
3141.91, 0.201188
3143.82, 0.201246
3145.73, 0.201273
3147.64, 0.201350
3149.55, 0.201227
3151.46, 0.201508
3153.38, 0.202044
3155.3, 0.202205
3157.22, 0.202309
3159.14, 0.202506
3161.07, 0.202467
3163.0, 0.202629
3164.93, 0.202806
3166.86, 0.203003
3168.8, 0.203354
3170.74, 0.203419
3172.68, 0.203504
3174.62, 0.203616
3176.56, 0.203589
3178.51, 0.203569
3180.46, 0.203589
3182.42, 0.203627
3184.37, 0.203720
3186.33, 0.203727
3188.29, 0.204228
3190.25, 0.204698
3192.21, 0.204849
3194.18, 0.204633
3196.15, 0.204745
3198.12, 0.205130
3200.09, 0.205091
3202.07, 0.204933
3204.05, 0.204914
3206.03, 0.205469
3208.02, 0.205854
3210.0, 0.205365
3211.99, 0.205450
3213.98, 0.205789
3215.98, 0.205573
3217.97, 0.205723
3219.97, 0.205866
3221.97, 0.206024
3223.98, 0.206062
3225.98, 0.206101
3227.99, 0.206186
3230.0, 0.206428
3232.02, 0.206428
3234.03, 0.206371
3236.05, 0.206625
3238.07, 0.206845
3240.1, 0.207060
3242.12, 0.207126
3244.15, 0.207022
3246.18, 0.206937
3248.22, 0.207003
3250.25, 0.207164
3252.29, 0.207342
3254.33, 0.207577
3256.38, 0.207492
3258.43, 0.207342
3260.47, 0.207511
3262.53, 0.207688
3264.58, 0.207850
3266.64, 0.207885
3268.7, 0.207735
3270.76, 0.207850
3272.82, 0.207916
3274.89, 0.207935
3276.96, 0.208020
3279.04, 0.207812
3281.11, 0.207923
3283.19, 0.208039
3285.27, 0.208255
3287.35, 0.208289
3289.44, 0.208301
3291.53, 0.208575
3293.62, 0.208394
3295.71, 0.208047
3297.81, 0.208413
3299.91, 0.208347
3302.01, 0.208124
3304.11, 0.208359
3306.22, 0.208517
3308.33, 0.208328
3310.44, 0.208255
3312.56, 0.208340
3314.68, 0.208289
3316.8, 0.208340
3318.92, 0.208224
3321.05, 0.208255
3323.18, 0.208374
3325.31, 0.208374
3327.44, 0.208158
3329.58, 0.208093
3331.72, 0.208209
3333.86, 0.208328
3336.01, 0.208340
3338.16, 0.208105
3340.31, 0.208020
3342.46, 0.207812
3344.61, 0.207642
3346.77, 0.207492
3348.94, 0.207550
3351.1, 0.207511
3353.27, 0.207369
3355.44, 0.207211
3357.61, 0.206945
3359.79, 0.206690
3361.97, 0.206579
3364.15, 0.206505
3366.33, 0.206371
3368.52, 0.206035
3370.71, 0.206051
3372.9, 0.205816
3375.1, 0.205168
3377.3, 0.205176
3379.5, 0.205411
3381.71, 0.205242
3383.91, 0.205261
3386.12, 0.205396
3388.34, 0.205103
3390.55, 0.204802
3392.77, 0.205045
3394.99, 0.205122
3397.22, 0.204821
3399.45, 0.204425
3401.68, 0.204452
3403.91, 0.204398
3406.15, 0.203947
3408.39, 0.203334
3410.63, 0.202968
3412.87, 0.202826
3415.12, 0.202695
3417.37, 0.202460
3419.63, 0.202413
3421.88, 0.202479
3424.14, 0.202552
3426.41, 0.202768
3428.67, 0.202903
3430.94, 0.202845
3433.21, 0.203034
3435.49, 0.203354
3437.77, 0.203542
3440.05, 0.203315
3442.33, 0.203173
3444.62, 0.203296
3446.91, 0.203307
3449.2, 0.203203
3451.5, 0.203288
3453.8, 0.203400
3456.1, 0.203238
3458.41, 0.203230
3460.72, 0.203427
3463.03, 0.203381
3465.34, 0.203277
3467.66, 0.203165
3469.98, 0.203014
3472.31, 0.203041
3474.63, 0.202976
3476.96, 0.202930
3479.3, 0.202883
3481.64, 0.202741
3483.97, 0.202448
3486.32, 0.202356
3488.66, 0.202460
3491.01, 0.202479
3493.36, 0.201990
3495.72, 0.201454
3498.08, 0.201442
3500.44, 0.201161
3502.81, 0.200764
3505.18, 0.200672
3507.55, 0.200899
3509.92, 0.201188
3512.3, 0.201207
3514.68, 0.201350
3517.06, 0.201546
3519.45, 0.201454
3521.84, 0.201188
3524.24, 0.201234
3526.64, 0.201284
3529.04, 0.201284
3531.44, 0.201161
3533.85, 0.201284
3536.26, 0.201331
3538.67, 0.200868
3541.09, 0.200437
3543.51, 0.200398
3545.93, 0.200495
3548.36, 0.200418
3550.79, 0.200379
3553.22, 0.200313
3555.66, 0.200105
3558.1, 0.199843
3560.54, 0.199843
3562.99, 0.199986
3565.44, 0.200051
3567.9, 0.199786
3570.35, 0.199620
3572.81, 0.199300
3575.28, 0.199080
3577.75, 0.199015
3580.22, 0.199034
3582.69, 0.198876
3585.17, 0.198799
3587.65, 0.198818
3590.14, 0.198753
3592.62, 0.198630
3595.11, 0.198395
3597.61, 0.198009
3600.11, 0.197728
3602.61, 0.197755
3605.11, 0.197774
3607.62, 0.197690
3610.14, 0.197482
3612.65, 0.197077
3615.17, 0.197050
3617.69, 0.197192
3620.22, 0.197096
3622.75, 0.196599
3625.28, 0.196194
3627.82, 0.196306
3630.36, 0.196403
3632.9, 0.196167
3635.45, 0.195855
3638.0, 0.195628
3640.56, 0.195489
3643.12, 0.195412
3645.68, 0.195216
3648.24, 0.194915
3650.81, 0.194669
3653.39, 0.194368
3655.96, 0.194360
3658.54, 0.194472
3661.13, 0.194133
3663.71, 0.193624
3666.3, 0.193721
3668.9, 0.193532
3671.5, 0.193166
3674.1, 0.192965
3676.7, 0.192788
3679.31, 0.192696
3681.93, 0.192461
3684.54, 0.192233
3687.17, 0.192045
3689.79, 0.191991
3692.42, 0.191971
3695.05, 0.191640
3697.69, 0.191509
3700.32, 0.191555
3702.97, 0.191181
3705.61, 0.190935
3708.27, 0.190842
3710.92, 0.190607
3713.58, 0.190145
3716.24, 0.190068
3718.91, 0.190257
3721.58, 0.190126
3724.25, 0.189883
3726.93, 0.189883
3729.61, 0.189598
3732.29, 0.189328
3734.98, 0.189290
3737.67, 0.189166
3740.37, 0.189093
3743.07, 0.188658
3745.78, 0.188253
3748.49, 0.188303
3751.2, 0.188284
3753.91, 0.187899
3756.63, 0.187633
3759.36, 0.187475
3762.09, 0.187456
3764.82, 0.187274
3767.55, 0.186920
3770.29, 0.186731
3773.04, 0.186477
3775.78, 0.186315
3778.54, 0.186072
3781.29, 0.185714
3784.05, 0.185556
3786.82, 0.185460
3789.59, 0.185036
3792.36, 0.184662
3795.13, 0.184774
3797.92, 0.184612
3800.7, 0.184192
3803.49, 0.184192
3806.28, 0.184057
3809.08, 0.183637
3811.88, 0.183383
3814.68, 0.183259
3817.49, 0.183213
3820.31, 0.182893
3823.12, 0.182443
3825.94, 0.182242
3828.77, 0.182157
3831.6, 0.181999
3834.43, 0.181884
3837.27, 0.181734
3840.11, 0.181283
3842.96, 0.181002
3845.81, 0.180624
3848.67, 0.180269
3851.53, 0.180381
3854.39, 0.180285
3857.26, 0.179834
3860.13, 0.179545
3863.01, 0.179599
3865.89, 0.179599
3868.77, 0.179476
3871.66, 0.179206
3874.55, 0.178848
3877.45, 0.178470
3880.35, 0.178528
3883.26, 0.178528
3886.17, 0.178208
3889.09, 0.177811
3892.01, 0.177784
3894.93, 0.177607
3897.86, 0.177406
3900.79, 0.177287
3903.73, 0.177098
3906.67, 0.176748
3909.62, 0.176674
3912.57, 0.176748
3915.52, 0.176381
3918.48, 0.176023
3921.45, 0.175734
3924.42, 0.175507
3927.39, 0.175414
3930.37, 0.175018
3933.35, 0.174698
3936.34, 0.174455
3939.33, 0.174208
3942.32, 0.173900
3945.32, 0.173627
3948.33, 0.173418
3951.34, 0.173203
3954.35, 0.173052
3957.37, 0.172544
3960.39, 0.172093
3963.42, 0.171950
3966.45, 0.171708
3969.49, 0.171480
3972.53, 0.171396
3975.58, 0.171349
3978.63, 0.171107
3981.68, 0.170756
3984.75, 0.170467
3987.81, 0.170201
3990.88, 0.170116
3993.95, 0.170005
3997.03, 0.169731
4000.12, 0.169600
4003.21, 0.169561
4006.3, 0.169469
4009.4, 0.169222
4012.5, 0.168868
4015.61, 0.168614
4018.72, 0.168321
4021.84, 0.167935
4024.96, 0.167700
4028.09, 0.167539
4031.22, 0.167342
4034.36, 0.167088
4037.5, 0.166957
4040.65, 0.166552
4043.8, 0.166232
4046.96, 0.166140
4050.12, 0.165789
4053.29, 0.165365
4056.46, 0.165281
4059.64, 0.165150
4062.82, 0.164822
4066.0, 0.164822
4069.19, 0.164425
4072.39, 0.164163
4075.59, 0.164032
4078.8, 0.163851
4082.01, 0.163766
4085.23, 0.163628
4088.45, 0.163381
4091.68, 0.163100
4094.91, 0.162799
4098.15, 0.162695
4101.39, 0.162422
4104.63, 0.162140
4107.89, 0.161998
4111.14, 0.161905
4114.41, 0.161801
4117.67, 0.161566
4120.95, 0.161273
4124.23, 0.161050
4127.51, 0.160907
4130.8, 0.160823
4134.09, 0.160665
4137.39, 0.160399
4140.7, 0.160071
4144.01, 0.159798
4147.32, 0.159555
4150.64, 0.159320
4153.97, 0.159250
4157.3, 0.158884
4160.64, 0.158630
4163.98, 0.158642
4167.33, 0.158283
4170.68, 0.158056
4174.04, 0.157917
4177.4, 0.157721
4180.77, 0.157501
4184.14, 0.157362
4187.52, 0.157332
4190.91, 0.157147
4194.3, 0.156939
4197.69, 0.156900
4201.1, 0.156626
4204.5, 0.156241
4207.92, 0.155968
4211.34, 0.155894
4214.76, 0.155725
4218.19, 0.155594
4221.62, 0.155170
4225.06, 0.154746
4228.51, 0.154962
4231.96, 0.154962
4235.42, 0.154530
4238.88, 0.154191
4242.35, 0.154114
4245.83, 0.153937
4249.31, 0.153513
4252.79, 0.153270
4256.28, 0.153089
4259.78, 0.153024
4263.29, 0.152750
4266.79, 0.152480
4270.31, 0.152245
4273.83, 0.152111
4277.35, 0.151906
4280.89, 0.151633
4284.42, 0.151575
4287.97, 0.151502
4291.52, 0.151313
4295.07, 0.151078
4298.63, 0.150758
4302.2, 0.150550
4305.78, 0.150288
4309.35, 0.150176
4312.94, 0.150119
4316.53, 0.149787
4320.13, 0.149309
4323.73, 0.149016
4327.34, 0.148943
4330.96, 0.148781
4334.58, 0.148604
4338.21, 0.148396
4341.84, 0.148227
4345.48, 0.148103
4349.12, 0.147718
4352.77, 0.147390
4356.43, 0.147059
4360.1, 0.146843
4363.76, 0.146789
4367.44, 0.146712
4371.12, 0.146450
4374.81, 0.146269
4378.51, 0.146165
4382.21, 0.145761
4385.92, 0.145472
4389.63, 0.145545
4393.35, 0.145310
4397.08, 0.145075
4400.81, 0.144820
4404.55, 0.144408
4408.29, 0.144181
4412.04, 0.144042
4415.8, 0.143776
4419.57, 0.143514
4423.34, 0.143345
4427.12, 0.142882
4430.9, 0.142582
4434.69, 0.142632
4438.49, 0.142405
4442.29, 0.142281
4446.1, 0.142327
4449.92, 0.142065
4453.74, 0.141746
4457.57, 0.141453
4461.41, 0.141268
4465.25, 0.141114
4469.1, 0.140994
4472.95, 0.140721
4476.82, 0.140532
4480.69, 0.140447
4484.56, 0.140081
4488.44, 0.139819
4492.33, 0.139546
4496.23, 0.139330
4500.13, 0.139441
4504.04, 0.139338
4507.96, 0.138821
4511.88, 0.138521
4515.81, 0.138548
4519.75, 0.138255
4523.69, 0.137796
4527.65, 0.137746
4531.6, 0.137777
4535.57, 0.137576
4539.54, 0.137257
4543.52, 0.137203
4547.5, 0.137257
4551.5, 0.136975
4555.5, 0.136779
4559.5, 0.136733
4563.52, 0.136552
4567.54, 0.136232
4571.56, 0.135989
4575.6, 0.135688
4579.64, 0.135592
4583.69, 0.135538
4587.75, 0.135376
4591.81, 0.135056
4595.88, 0.134953
4599.96, 0.134775
4604.04, 0.134455
4608.14, 0.134332
4612.24, 0.134228
4616.34, 0.133797
4620.46, 0.133627
4624.58, 0.133581
4628.71, 0.133469
4632.84, 0.133222
4636.99, 0.132930
4641.14, 0.132895
4645.3, 0.132610
4649.47, 0.132321
4653.64, 0.132309
4657.82, 0.132105
4662.01, 0.131747
4666.21, 0.131859
4670.41, 0.131812
4674.62, 0.131350
4678.84, 0.131069
4683.07, 0.130899
4687.3, 0.131011
4691.54, 0.131022
4695.79, 0.130702
4700.05, 0.130363
4704.31, 0.130317
4708.59, 0.130202
4712.87, 0.130071
4717.15, 0.129967
4721.45, 0.129866
4725.76, 0.129685
4730.07, 0.129308
4734.39, 0.129235
4738.72, 0.129346
4743.05, 0.129142
4747.39, 0.128699
4751.75, 0.128406
4756.1, 0.128406
4760.47, 0.128433
4764.85, 0.128263
4769.23, 0.128013
4773.62, 0.127813
4778.02, 0.127674
4782.43, 0.127381
4786.85, 0.127389
4791.27, 0.127381
4795.7, 0.127343
4800.14, 0.127277
4804.59, 0.127042
4809.05, 0.126703
4813.51, 0.126599
4817.99, 0.126468
4822.47, 0.126194
4826.96, 0.126075
4831.46, 0.125990
4835.96, 0.125932
4840.48, 0.125867
4845.0, 0.125659
4849.54, 0.125605
4854.08, 0.125404
4858.63, 0.125050
4863.18, 0.124746
4867.75, 0.124746
4872.33, 0.124711
4876.91, 0.124607
4881.5, 0.124276
4886.1, 0.124106
4890.71, 0.124052
4895.33, 0.123956
4899.96, 0.123890
4904.59, 0.123382
4909.24, 0.122884
4913.89, 0.122846
4918.55, 0.122857
4923.22, 0.122584
4927.9, 0.122387
4932.59, 0.122245
4937.29, 0.121886
4942.0, 0.121698
4946.71, 0.121455
4951.44, 0.121023
4956.17, 0.120835
4960.91, 0.120731
4965.67, 0.120241
4970.43, 0.119760
4975.2, 0.119667
4979.98, 0.119525
4984.76, 0.119105
4989.56, 0.118623
4994.37, 0.118153
4999.18, 0.117964
5004.01, 0.117879
5008.84, 0.117571
5013.69, 0.117305
5018.54, 0.116881
5023.4, 0.116384
5028.28, 0.116026
5033.16, 0.115895
5038.05, 0.115602
5042.95, 0.115348
5047.86, 0.115170
5052.78, 0.114935
5057.71, 0.114446
5062.65, 0.113976
5067.6, 0.113564
5072.56, 0.113440
5077.53, 0.113506
5082.5, 0.113479
5087.49, 0.113101
5092.49, 0.113017
5097.5, 0.113094
5102.51, 0.112951
5107.54, 0.112828
5112.58, 0.112677
5117.62, 0.112500
5122.68, 0.112404
5127.75, 0.112442
5132.82, 0.112481
5137.91, 0.112207
5143.01, 0.112161
5148.12, 0.112254
5153.23, 0.112130
5158.36, 0.112076
5163.5, 0.112200
5168.65, 0.111980
5173.81, 0.111830
5178.98, 0.111645
5184.15, 0.111475
5189.34, 0.111352
5194.54, 0.111529
5199.75, 0.111410
5204.98, 0.110974
5210.21, 0.110797
5215.45, 0.110805
5220.7, 0.110608
5225.96, 0.110100
5231.23, 0.109976
5236.52, 0.110119
5241.81, 0.109911
5247.12, 0.109603
5252.44, 0.109375
5257.76, 0.109348
5263.1, 0.109167
5268.45, 0.108709
5273.81, 0.108181
5279.18, 0.107927
5284.56, 0.107888
5289.95, 0.107788
5295.36, 0.107534
5300.77, 0.107372
5306.2, 0.107175
5311.63, 0.106844
5317.08, 0.106817
5322.54, 0.106809
5328.01, 0.106725
5333.49, 0.106451
5338.98, 0.106308
5344.49, 0.106385
5350.0, 0.106073
5355.53, 0.106000
5361.07, 0.105961
5366.62, 0.105715
5372.18, 0.105576
5377.75, 0.105530
5383.34, 0.105295
5388.93, 0.105229
5394.54, 0.105256
5400.16, 0.104975
5405.79, 0.104917
5411.44, 0.104944
5417.09, 0.104937
5422.76, 0.104794
5428.43, 0.104578
5434.12, 0.104305
5439.83, 0.104154
5445.54, 0.104185
5451.26, 0.103835
5457.0, 0.103638
5462.75, 0.103677
5468.52, 0.103442
5474.29, 0.103168
5480.08, 0.103083
5485.88, 0.102867
5491.69, 0.102548
5497.51, 0.102405
5503.35, 0.102178
5509.2, 0.101973
5515.06, 0.101981
5520.93, 0.101896
5526.82, 0.101530
5532.71, 0.101419
5538.63, 0.101407
5544.55, 0.101257
5550.49, 0.101126
5556.44, 0.100937
5562.4, 0.100937
5568.37, 0.100929
5574.36, 0.100918
5580.36, 0.100733
5586.37, 0.100544
5592.4, 0.100513
5598.44, 0.100401
5604.49, 0.100251
5610.56, 0.100074
5616.63, 0.0998740
5622.73, 0.0994690
5628.83, 0.0990300
5634.95, 0.0990950
5641.08, 0.0989530
5647.23, 0.0983780
5653.39, 0.0980050
5659.56, 0.0977390
5665.74, 0.0977120
5671.94, 0.0974190
5678.15, 0.0968760
5684.38, 0.0967790
5690.62, 0.0969680
5696.87, 0.0968830
5703.14, 0.0968910
5709.42, 0.0968450
5715.72, 0.0971110
5722.03, 0.0974770
5728.35, 0.0976660
5734.69, 0.0980320
5741.03, 0.0984830
5747.4, 0.0988410
5753.78, 0.0991410
5760.17, 0.0997160
5766.58, 0.100394
5773.0, 0.100579
5779.44, 0.100760
5785.88, 0.101268
5792.35, 0.101673
5798.83, 0.102027
5805.32, 0.102378
5811.83, 0.102771
5818.35, 0.102914
5824.89, 0.102848
5831.45, 0.102771
5838.01, 0.102482
5844.59, 0.102451
5851.19, 0.102810
5857.8, 0.102875
5864.43, 0.102594
5871.07, 0.102386
5877.73, 0.102424
5884.4, 0.102567
5891.09, 0.102698
5897.79, 0.102312
5904.5, 0.101831
5911.23, 0.101727
5917.98, 0.101642
5924.75, 0.101727
5931.53, 0.101954
5938.32, 0.101777
5945.13, 0.101569
5951.96, 0.101623
5958.8, 0.101596
5965.65, 0.101538
5972.53, 0.101588
5979.42, 0.101708
5986.32, 0.101765
5993.24, 0.101607
6000.18, 0.101342
6007.13, 0.101238
6014.1, 0.100956
6021.08, 0.100779
6028.09, 0.100675
6035.1, 0.100663
6042.14, 0.101060
6049.19, 0.101041
6056.25, 0.100609
6063.34, 0.100798
6070.44, 0.101334
6077.55, 0.101615
6084.69, 0.102162
6091.84, 0.103110
6099.0, 0.103900
6106.19, 0.104840
6113.39, 0.105445
6120.61, 0.105981
6127.84, 0.106778
6135.09, 0.107599
6142.36, 0.108578
6149.65, 0.109160
6156.95, 0.109506
6164.27, 0.109911
6171.61, 0.110712
6178.97, 0.111398
6186.34, 0.111745
6193.73, 0.112084
6201.14, 0.112246
6208.57, 0.112338
6216.01, 0.112755
6223.47, 0.113148
6230.95, 0.113460
6238.45, 0.113591
6245.97, 0.113702
6253.5, 0.114003
6261.06, 0.114257
6268.63, 0.114531
6276.21, 0.114608
6283.82, 0.114623
6291.45, 0.114843
6299.1, 0.115086
6306.76, 0.115321
6314.44, 0.115275
6322.14, 0.115248
6329.86, 0.115464
6337.6, 0.115876
6345.35, 0.116026
6353.13, 0.115980
6360.92, 0.116242
6368.74, 0.116292
6376.57, 0.116222
6384.43, 0.116207
6392.3, 0.116273
6400.19, 0.116442
6408.1, 0.116827
6416.03, 0.116931
6423.98, 0.116723
6431.95, 0.116534
6439.94, 0.116546
6447.95, 0.116789
6455.98, 0.116581
6464.03, 0.116488
6472.1, 0.116835
6480.19, 0.117005
6488.31, 0.117116
6496.44, 0.117082
6504.59, 0.117024
6512.76, 0.117147
6520.95, 0.117147
6529.16, 0.117213
6537.4, 0.117382
6545.65, 0.117363
6553.92, 0.117401
6562.22, 0.117521
6570.54, 0.117683
6578.88, 0.117741
6587.23, 0.117860
6595.61, 0.117825
6604.02, 0.117683
6612.44, 0.117814
6620.89, 0.117852
6629.35, 0.117918
6637.84, 0.117991
6646.35, 0.117891
6654.88, 0.117683
6663.44, 0.117918
6672.01, 0.118114
6680.61, 0.118041
6689.23, 0.118068
6697.88, 0.118407
6706.54, 0.118434
6715.23, 0.118426
6723.94, 0.118615
6732.67, 0.118492
6741.42, 0.118415
6750.2, 0.118604
6759.0, 0.118688
6767.82, 0.118631
6776.67, 0.118577
6785.54, 0.118897
6794.44, 0.119139
6803.35, 0.118877
6812.29, 0.118604
6821.26, 0.118426
6830.24, 0.118361
6839.25, 0.118322
6848.29, 0.118238
6857.35, 0.118126
6866.43, 0.117964
6875.54, 0.117729
6884.67, 0.117455
6893.82, 0.117324
6903.0, 0.117109
6912.2, 0.116797
6921.43, 0.116789
6930.69, 0.116874
6939.96, 0.116573
6949.27, 0.116280
6958.59, 0.116157
6967.95, 0.115903
6977.33, 0.115556
6986.73, 0.115567
6996.16, 0.115510
7005.61, 0.115236
7015.09, 0.115171
7024.6, 0.115171
7034.13, 0.115359
7043.69, 0.115302
7053.27, 0.114851
7062.88, 0.114851
7072.52, 0.114693
7082.18, 0.114408
7091.87, 0.114250
7101.58, 0.114015
7111.32, 0.113544
7121.09, 0.113356
7130.88, 0.113298
7140.71, 0.113094
7150.56, 0.112855
7160.43, 0.112678
7170.33, 0.112450
7180.27, 0.112331
7190.23, 0.112084
7200.21, 0.111926
7210.23, 0.111945
7220.27, 0.111945
7230.34, 0.111595
7240.44, 0.111437
7250.56, 0.111325
7260.72, 0.111021
7270.9, 0.110863
7281.12, 0.110732
7291.36, 0.110504
7301.63, 0.110196
7311.93, 0.110061
7322.25, 0.110158
7332.61, 0.110177
7343.0, 0.109807
7353.41, 0.109321
7363.86, 0.109036
7374.33, 0.108886
7384.83, 0.108643
7395.37, 0.108343
7405.93, 0.107973
7416.53, 0.107730
7427.15, 0.107580
7437.81, 0.107522
7448.5, 0.107175
7459.22, 0.106628
7469.96, 0.106339
7480.74, 0.106139
7491.55, 0.105792
7502.39, 0.105414
7513.27, 0.105218
7524.17, 0.104925
7535.11, 0.104455
7546.08, 0.103881
7557.08, 0.103337
7568.11, 0.103195
7579.17, 0.102979
7590.27, 0.102405
7601.4, 0.101993
7612.56, 0.101823
7623.76, 0.101472
7634.98, 0.101334
7646.24, 0.101164
7657.54, 0.100702
7668.87, 0.100309
7680.23, 0.100317
7691.62, 0.100089
7703.05, 0.0998540
7714.51, 0.0998470
7726.01, 0.0999240
7737.54, 0.0997690
7749.11, 0.0995460
7760.71, 0.0996500
7772.35, 0.100016
7784.02, 0.100251
7795.72, 0.100186
7807.46, 0.100074
7819.23, 0.100128
7831.04, 0.100159
7842.89, 0.100251
7854.77, 0.100609
7866.69, 0.100563
7878.65, 0.100109
7890.64, 0.0999390
7902.67, 0.100109
7914.74, 0.0999890
7926.84, 0.0997350
7938.98, 0.0997540
7951.16, 0.0997160
7963.37, 0.0995340
7975.62, 0.0993380
7987.91, 0.0994500
8000.24, 0.0994420
8012.6, 0.0991880
8025.01, 0.0991410
8037.45, 0.0993110
8049.93, 0.0991610
8062.45, 0.0988020
8075.01, 0.0986790
8087.61, 0.0987450
8100.24, 0.0985210
8112.91, 0.0980050
8125.63, 0.0976460
8138.39, 0.0975150
8151.18, 0.0972110
8164.02, 0.0966290
8176.9, 0.0962820
8189.81, 0.0957470
8202.77, 0.0952570
8215.77, 0.0947870
8228.82, 0.0939400
8241.9, 0.0933660
8255.02, 0.0929800
8268.19, 0.0924990
8281.39, 0.0920590
8294.65, 0.0914740
8307.94, 0.0906950
8321.28, 0.0899860
8334.66, 0.0894700
8348.08, 0.0890850
8361.54, 0.0883800
8375.05, 0.0875970
8388.6, 0.0871730
8402.2, 0.0867530
8415.84, 0.0862640
8429.52, 0.0858290
8443.25, 0.0852740
8457.02, 0.0847310
8470.84, 0.0841260
8484.7, 0.0834980
8498.61, 0.0831010
8512.57, 0.0828580
8526.57, 0.0820950
8540.62, 0.0814170
8554.71, 0.0810430
8568.85, 0.0808540
8583.04, 0.0803380
8597.27, 0.0798830
8611.55, 0.0793590
8625.88, 0.0791130
8640.26, 0.0788890
8654.68, 0.0782650
8669.16, 0.0778060
8683.68, 0.0772210
8698.25, 0.0764430
8712.87, 0.0758870
8727.53, 0.0752360
8742.25, 0.0747590
8757.02, 0.0746160
8771.83, 0.0742690
8786.7, 0.0738070
8801.62, 0.0731210
8816.59, 0.0725740
8831.61, 0.0718690
8846.68, 0.0710060
8861.8, 0.0705900
8876.97, 0.0699690
8892.2, 0.0693760
8907.48, 0.0683050
8922.81, 0.0674220
8938.2, 0.0663280
8953.63, 0.0655300
8969.13, 0.0651260
8984.67, 0.0643630
9000.27, 0.0635920
9015.92, 0.0629410
9031.63, 0.0622550
9047.39, 0.0612500
9063.21, 0.0606480
9079.08, 0.0602320
9095.01, 0.0593880
9111.0, 0.0584940
9127.04, 0.0581250
9143.13, 0.0577590
9159.28, 0.0575350
9175.49, 0.0571770
9191.76, 0.0569490
9208.09, 0.0575430
9224.47, 0.0588140
9240.92, 0.0605330
9257.42, 0.0627060
9273.98, 0.0655960
9290.6, 0.0687020
9307.28, 0.0723400
9324.02, 0.0768360
9340.82, 0.0814750
9357.68, 0.0860830
9374.6, 0.0914350
9391.58, 0.0972420
9408.62, 0.102716
9425.73, 0.108121
9442.9, 0.113981
9460.13, 0.120173
9477.42, 0.126025
9494.78, 0.131500
9512.2, 0.136871
9529.69, 0.141588
9547.24, 0.146093
9564.86, 0.149949
9582.54, 0.152650
9600.28, 0.154276
9618.1, 0.155347
9635.97, 0.155771
9653.92, 0.155243
9671.93, 0.154295
9690.01, 0.153101
9708.16, 0.151783
9726.37, 0.150608
9744.65, 0.149356
9763.0, 0.148153
9781.43, 0.146739
9799.92, 0.146084
9818.48, 0.146412
9837.1, 0.146366
9855.8, 0.146620
9874.58, 0.147868
9893.42, 0.148943
9912.34, 0.150223
9931.33, 0.152481
9950.39, 0.155020
9969.52, 0.157786
9988.74, 0.161189
10008.0, 0.165058
10027.4, 0.169119
10046.8, 0.173523
10066.3, 0.178020
10085.9, 0.182450
10105.6, 0.186843
10125.3, 0.191000
10145.1, 0.194257
10165.0, 0.197278
10185.0, 0.200306
10205.0, 0.203119
10225.2, 0.205470
10245.4, 0.208068
10265.7, 0.212246
10286.0, 0.217683
10306.5, 0.224258
10327.0, 0.231725
10347.6, 0.238272
10368.3, 0.243022
10389.1, 0.245430
10409.9, 0.244413
10430.9, 0.240051
10451.9, 0.233004
10473.0, 0.223651
10494.2, 0.212853
10515.5, 0.202185
10536.9, 0.192834
10558.4, 0.186099
10579.9, 0.181718
10601.5, 0.179911
10623.3, 0.182019
10645.1, 0.189950
10667.0, 0.205576
10689.0, 0.225781
10711.1, 0.245497
10733.2, 0.262635
10755.5, 0.276960
10777.9, 0.288190
10800.3, 0.296437
10822.9, 0.300592
10845.5, 0.302484
10868.2, 0.302934
10891.1, 0.302738
10914.0, 0.301620
10937.0, 0.300002
10960.2, 0.297960
10983.4, 0.295062
11006.7, 0.292542
11030.1, 0.290169
11053.6, 0.287714
11077.3, 0.284998
11101.0, 0.281665
11124.8, 0.278721
11148.7, 0.276267
11172.7, 0.273623
11196.9, 0.271208
11221.1, 0.268611
11245.4, 0.265799
11269.9, 0.263379
11294.4, 0.260746
11319.1, 0.257162
11343.9, 0.252816
11368.8, 0.248458
11393.7, 0.243822
11418.8, 0.237773
11444.0, 0.230941
11469.4, 0.223362
11494.8, 0.216230
11520.3, 0.209033
11546.0, 0.199994
11571.8, 0.191555
11597.7, 0.183956
11623.7, 0.176007
11649.8, 0.168667
11676.0, 0.162367
11702.4, 0.156834
11728.9, 0.151679
11755.5, 0.146986
11782.2, 0.142123
11809.0, 0.137740
11836.0, 0.134052
11863.0, 0.129922
11890.3, 0.125887
11917.6, 0.123921
11945.0, 0.126526
11972.6, 0.133354
12000.4, 0.139638
12028.2, 0.142497
12056.2, 0.141641
12084.3, 0.138528
12112.5, 0.135322
12140.9, 0.131935
12169.4, 0.129111
12198.0, 0.126788
12226.8, 0.124784
12255.7, 0.122996
12284.7, 0.121135
12313.9, 0.120241
12343.2, 0.119309
12372.7, 0.118415
12402.3, 0.117240
12432.0, 0.116215
12461.9, 0.115217
12491.9, 0.114080
12522.1, 0.113290
12552.4, 0.112705
12582.9, 0.112150
12613.5, 0.111841
12644.3, 0.111256
12675.2, 0.109753
12706.3, 0.108821
12737.5, 0.109368
12768.9, 0.109556
12800.4, 0.108416
12832.1, 0.107599
12863.9, 0.107468
12895.9, 0.107233
12928.1, 0.106732
12960.4, 0.107090
12992.9, 0.107071
13025.5, 0.105934
13058.3, 0.105179
13091.3, 0.104944
13124.4, 0.105210
13157.8, 0.105388
13191.2, 0.105850
13224.9, 0.105564
13258.7, 0.104316
13292.7, 0.104251
13326.9, 0.104898
13361.2, 0.105075
13395.7, 0.105615
13430.4, 0.105218
13465.3, 0.104990
13500.4, 0.105499
13535.7, 0.105699
13571.1, 0.105792
13606.7, 0.106705
13642.5, 0.106940
13678.5, 0.106451
13714.7, 0.106073
13751.1, 0.105707
13787.6, 0.105133
13824.4, 0.104532
13861.4, 0.104081
13898.5, 0.103931
13935.9, 0.104532
13973.5, 0.104343
14011.2, 0.103676
14049.2, 0.103731
14087.4, 0.103665
14125.8, 0.103684
14164.3, 0.102679
14203.2, 0.102020
14242.2, 0.101118
14281.4, 0.0996500
14320.9, 0.0992920
14360.5, 0.0990300
14400.4, 0.0984170
14440.5, 0.0978350
14480.9, 0.0970800
14521.4, 0.0969300
14562.2, 0.0966950
14603.3, 0.0964330
14644.5, 0.0956890
14686.0, 0.0944480
14727.7, 0.0936660
14769.7, 0.0929420
14811.9, 0.0923680
14854.3, 0.0915510
14897.0, 0.0904410
14939.9, 0.0901870
14983.1, 0.0891770
15026.5, 0.0876820
15070.2, 0.0870620
15114.2, 0.0860440
15158.3, 0.0851350
15202.8, 0.0842100
15247.5, 0.0826610
15292.5, 0.0813240
15337.7, 0.0806460
15383.2, 0.0797830
15429.0, 0.0783340
15475.1, 0.0780880
15521.4, 0.0776450
15568.0, 0.0768860
15614.9, 0.0770820
15662.1, 0.0784000
15709.6, 0.0793790
15757.3, 0.0811160
15805.4, 0.0836560
15853.7, 0.0863170
15902.3, 0.0912750
15951.2, 0.0950750
16000.5, 0.0988580
16050.0, 0.103816
16099.8, 0.108813
16150.0, 0.113044
16200.5, 0.116685
16251.3, 0.119575
16302.4, 0.121108
16353.8, 0.121952
16405.5, 0.122056
16457.6, 0.123270
16510.0, 0.124634
16562.8, 0.122800
16615.9, 0.121559
16669.3, 0.122017
16723.1, 0.120476
16777.2, 0.118557
16831.7, 0.117032
16886.5, 0.115621
16941.7, 0.114334
16997.2, 0.113486
17053.1, 0.111274
17109.4, 0.109140
17166.1, 0.107768
17223.1, 0.106216
17280.5, 0.105310
17338.3, 0.104062
17396.5, 0.102867
17455.1, 0.102235
17514.0, 0.102555
17573.4, 0.103854
17633.2, 0.106393
17693.4, 0.109707
17754.0, 0.113761
17815.0, 0.119602
17876.4, 0.125509
17938.3, 0.132452
18000.5, 0.141954
18063.3, 0.151041
18126.4, 0.161040
18190.0, 0.171127
18254.1, 0.181785
18318.6, 0.192521
18383.5, 0.201956
18449.0, 0.210667
18514.9, 0.217487
18581.2, 0.224813
18648.0, 0.230974
18715.4, 0.234649
18783.2, 0.236325
18851.5, 0.236248
18920.3, 0.238452
18989.6, 0.239211
19059.4, 0.237747
19129.7, 0.236282
19200.6, 0.234582
19272.0, 0.231981
19343.9, 0.228627
19416.3, 0.224357
19489.3, 0.219205
19562.8, 0.213467
19637.0, 0.207281
19711.6, 0.200766
19786.8, 0.194008
19862.6, 0.187394
19939.0, 0.181021
20016.0, 0.174895
20093.6, 0.169122
20171.8, 0.164791
20250.6, 0.162235
20330.0, 0.161676
20410.0, 0.162910
20490.7, 0.164764
20572.0, 0.166810
20654.0, 0.168426
20736.6, 0.168312
20819.9, 0.166492
20903.8, 0.162900
20988.5, 0.158178
21073.8, 0.152217
21159.8, 0.144918
21246.5, 0.137054
21334.0, 0.129042
21422.1, 0.121507
21511.0, 0.114382
21600.7, 0.108379
21691.0, 0.103493
21782.1, 0.0993010
21874.0, 0.0958280
21966.7, 0.0935150
22060.2, 0.0908170
22154.5, 0.0882600
22249.6, 0.0865810
22345.5, 0.0850920
22442.2, 0.0838330
22539.8, 0.0827860
22638.2, 0.0816740
22737.5, 0.0805830
22837.7, 0.0798260
22938.7, 0.0787970
23040.7, 0.0780510
23143.5, 0.0780900
23247.3, 0.0787450
23352.1, 0.0793350
23457.7, 0.0804470
23564.4, 0.0819030
23672.0, 0.0837090
23780.5, 0.0855560
23890.1, 0.0873940
24000.7, 0.0892780
24112.3, 0.0916260
24225.0, 0.0947510
24338.7, 0.0991750
24453.5, 0.105200
24569.4, 0.112895
24686.4, 0.122203
24804.5, 0.132788
24923.8, 0.143665
25044.2, 0.153585
25165.8, 0.162274
25288.6, 0.170543
25412.5, 0.179068
25537.7, 0.187914
25664.1, 0.196187
25791.8, 0.202014
25920.8, 0.203826
26051.1, 0.201800
26182.6, 0.196536
26315.5, 0.188883
26449.8, 0.179609
26585.4, 0.169862
26722.5, 0.160745
26860.9, 0.153316
27000.8, 0.147260
27142.1, 0.143617
27285.0, 0.142393
27429.4, 0.143377
27575.3, 0.146571
27722.7, 0.152041
27871.8, 0.159364
28022.4, 0.168515
28174.7, 0.178443
28328.7, 0.188415
28484.4, 0.198088
28641.7, 0.207435
28800.9, 0.215615
28961.8, 0.221595
29124.5, 0.225865
29289.0, 0.228731
29455.4, 0.230685
29623.8, 0.231372
29794.0, 0.230766
29966.3, 0.229390
30140.5, 0.227502
30316.7, 0.224689
30495.1, 0.220330
30675.5, 0.216544
30858.1, 0.212019
31042.8, 0.207825
31229.8, 0.203857
31419.1, 0.199342
31610.7, 0.194719
31804.6, 0.190541
32000.9, 0.186860
32199.7, 0.183259
32400.9, 0.179632
32604.8, 0.176436
32811.1, 0.172612
33020.1, 0.168372
33231.8, 0.166505
33446.2, 0.164881
33663.4, 0.162686
33883.4, 0.160433
34106.3, 0.158076
34332.1, 0.155324
34561.0, 0.153074
34792.9, 0.152233
35028.0, 0.150834
35266.3, 0.148446
35507.8, 0.147016
35752.7, 0.146305
36001.0, 0.145882
36252.8, 0.146613
36508.1, 0.147057
36767.0, 0.147662
37029.7, 0.148062
37296.1, 0.148033
37566.3, 0.147842
37840.5, 0.147893
38118.8, 0.147338
38401.2, 0.146519
38687.8, 0.145312
38978.6, 0.143692
39273.9, 0.141016
39573.7, 0.140337
39878.1, 0.140854
40187.3, 0.139632
40501.2, 0.138564
40820.0, 0.138212
41144.0, 0.138578
41473.2, 0.138687
41807.6, 0.138234
42147.5, 0.138006
42493.0, 0.137597
42844.2, 0.136655
43201.2, 0.135566
43564.3, 0.135020
43933.5, 0.134456
44309.0, 0.134768
44691.0, 0.134466
45079.6, 0.133917
45475.0, 0.133818
45877.5, 0.133126
46287.1, 0.132134
46704.2, 0.131756
47128.7, 0.131669
47561.1, 0.130532
48001.5, 0.128570
48450.1, 0.128844
48907.2, 0.127476
49373.0, 0.125674
49847.7, 0.127215
50331.5, 0.128413
50825.0, 0.128409
51328.2, 0.128270
51841.5, 0.128529
52365.1, 0.128619
52899.4, 0.127821
53444.8, 0.128306
54001.5, 0.128458
54570.1, 0.127726
55150.6, 0.126251
55743.6, 0.126004
56349.5, 0.122866
58910.9, 0.121269
59588.1, 0.123939
60281.0, 0.124002
60990.2, 0.123098
61716.3, 0.124369
62459.8, 0.124264
63221.6, 0.123425
64002.1, 0.124281
64802.1, 0.125538
65622.1, 0.125261
66463.4, 0.125738
67326.6, 0.128572
68212.4, 0.130399
69121.9, 0.131657
70056.0, 0.133657
71015.7, 0.133522
72002.0, 0.134650
73016.3, 0.139272
74059.4, 0.143400
75132.7, 0.144317
76237.6, 0.147381
77375.5, 0.148618
78547.9, 0.146261
79756.3, 0.145597
81002.5, 0.145573
82288.5, 0.146403
83615.7, 0.149216
84986.5, 0.149961
86402.9, 0.148910
87867.4, 0.151767
89382.4, 0.162529
90950.5, 0.175670
92574.6, 0.184271
94257.2, 0.188927
96002.7, 0.194828
103683.0, 0.226560
105799.0, 0.232597
108003.0, 0.237565
110301.0, 0.238480
112699.0, 0.249502
115204.0, 0.268756
117822.0, 0.273789
120562.0, 0.271212
123433.0, 0.278506
126443.0, 0.277933
129604.0, 0.290781
132926.0, 0.303490
136424.0, 0.324423
140111.0, 0.326235
144003.0, 0.340676
148118.0, 0.316923
152474.0, 0.313372
157095.0, 0.313426
162004.0, 0.313426
167231.0, 0.313426
172805.0, 0.313426
178764.0, 0.313426
185148.0, 0.313426
192005.0, 0.313426
199390.0, 0.313426
207366.0, 0.313426
216006.0, 0.313426
