Database of Origin, USGS Spectral Database
Sample Description, See USGS database for additional info
Date Added,2017-07-03 06:06:56.102990

Data ID,USGS_hem04          
Sample ID, hematite_gds69.9312
Mineral Name, hematite
Material Class,Oxide

Wavelength
1404.54, 0.109249
1404.92, 0.109300
1405.3, 0.109097
1405.68, 0.109148
1406.06, 0.109350
1406.44, 0.109502
1406.83, 0.109249
1407.21, 0.109097
1407.59, 0.109047
1407.97, 0.108946
1408.35, 0.108895
1408.74, 0.109097
1409.12, 0.108996
1409.5, 0.108693
1409.89, 0.108895
1410.27, 0.108946
1410.65, 0.108996
1411.04, 0.108946
1411.42, 0.108744
1411.81, 0.108541
1412.19, 0.108491
1412.58, 0.108491
1412.96, 0.108642
1413.35, 0.108845
1413.73, 0.108845
1414.12, 0.108946
1414.5, 0.108996
1414.89, 0.108895
1415.28, 0.108996
1415.66, 0.108946
1416.05, 0.108794
1416.44, 0.108541
1416.82, 0.108187
1417.21, 0.108187
1417.6, 0.108541
1417.98, 0.109097
1418.37, 0.109097
1418.76, 0.108744
1419.15, 0.108390
1419.54, 0.108187
1419.93, 0.108339
1420.32, 0.108541
1420.71, 0.108339
1421.09, 0.108086
1421.48, 0.108187
1421.88, 0.108440
1422.27, 0.108339
1422.66, 0.108390
1423.05, 0.108390
1423.44, 0.108289
1423.83, 0.108491
1424.22, 0.108744
1424.61, 0.108642
1425.0, 0.108592
1425.39, 0.108592
1425.78, 0.108541
1426.18, 0.108390
1426.57, 0.108592
1426.96, 0.108996
1427.36, 0.108642
1427.75, 0.108036
1428.14, 0.108187
1428.54, 0.108440
1428.93, 0.108744
1429.32, 0.108693
1429.72, 0.108440
1430.11, 0.108693
1430.51, 0.108946
1430.9, 0.108794
1431.3, 0.108541
1431.69, 0.108289
1432.09, 0.108238
1432.48, 0.108289
1432.88, 0.108187
1433.28, 0.108137
1433.67, 0.108238
1434.07, 0.108541
1434.46, 0.108744
1434.86, 0.108794
1435.26, 0.108744
1435.66, 0.108592
1436.05, 0.108744
1436.45, 0.108794
1436.85, 0.108642
1437.25, 0.108541
1437.65, 0.108390
1438.05, 0.108339
1438.44, 0.108390
1438.84, 0.108592
1439.24, 0.108541
1439.64, 0.108642
1440.04, 0.108845
1440.44, 0.108693
1440.84, 0.108390
1441.24, 0.108491
1441.65, 0.108642
1442.05, 0.108390
1442.45, 0.108440
1442.85, 0.108744
1443.25, 0.108592
1443.65, 0.108339
1444.05, 0.108390
1444.46, 0.108642
1444.86, 0.108693
1445.26, 0.108592
1445.67, 0.108541
1446.07, 0.108642
1446.47, 0.108289
1446.88, 0.108086
1447.28, 0.108238
1447.68, 0.108289
1448.09, 0.108339
1448.49, 0.108440
1448.9, 0.108390
1449.3, 0.108390
1449.71, 0.108541
1450.11, 0.108440
1450.52, 0.108137
1450.93, 0.108086
1451.33, 0.108440
1451.74, 0.108491
1452.14, 0.108390
1452.55, 0.108289
1452.96, 0.108339
1453.36, 0.108440
1453.77, 0.108339
1454.18, 0.108187
1454.59, 0.108036
1455.0, 0.108036
1455.41, 0.108036
1455.81, 0.108289
1456.22, 0.108390
1456.63, 0.107935
1457.04, 0.107935
1457.45, 0.108036
1457.86, 0.107884
1458.27, 0.107935
1458.68, 0.108086
1459.09, 0.108339
1459.5, 0.108440
1459.91, 0.108289
1460.32, 0.108086
1460.74, 0.107834
1461.15, 0.108036
1461.56, 0.108238
1461.97, 0.108086
1462.39, 0.107783
1462.8, 0.107682
1463.21, 0.107834
1463.62, 0.108086
1464.04, 0.108137
1464.45, 0.108187
1464.86, 0.108036
1465.28, 0.107935
1465.69, 0.107935
1466.11, 0.107884
1466.52, 0.107935
1466.94, 0.107985
1467.35, 0.107985
1467.77, 0.107834
1468.18, 0.107834
1468.6, 0.107682
1469.02, 0.107732
1469.43, 0.107985
1469.85, 0.108036
1470.27, 0.107884
1470.68, 0.107682
1471.1, 0.107783
1471.52, 0.108036
1471.94, 0.108238
1472.35, 0.108137
1472.77, 0.107985
1473.19, 0.108086
1473.61, 0.107884
1474.03, 0.107834
1474.45, 0.108086
1474.87, 0.108137
1475.29, 0.108238
1475.71, 0.108238
1476.13, 0.108238
1476.55, 0.107985
1476.97, 0.107834
1477.39, 0.107631
1477.81, 0.107480
1478.23, 0.107732
1478.65, 0.107985
1479.07, 0.107834
1479.5, 0.107631
1479.92, 0.107732
1480.34, 0.108036
1480.76, 0.108238
1481.19, 0.108289
1481.61, 0.108187
1482.03, 0.108187
1482.46, 0.108339
1482.88, 0.108137
1483.31, 0.108137
1483.73, 0.108390
1484.16, 0.108440
1484.58, 0.108390
1485.01, 0.108491
1485.43, 0.108440
1485.86, 0.108238
1486.28, 0.108289
1486.71, 0.108592
1487.14, 0.108642
1487.56, 0.108541
1487.99, 0.108541
1488.42, 0.108390
1488.84, 0.108289
1489.27, 0.108238
1489.7, 0.108289
1490.13, 0.108339
1490.56, 0.108339
1490.98, 0.108187
1491.41, 0.107985
1491.84, 0.108086
1492.27, 0.108238
1492.7, 0.108390
1493.13, 0.108390
1493.56, 0.108339
1493.99, 0.108238
1494.42, 0.107834
1494.85, 0.108086
1495.29, 0.108491
1495.72, 0.108491
1496.15, 0.108440
1496.58, 0.108491
1497.01, 0.108693
1497.44, 0.108744
1497.88, 0.108440
1498.31, 0.108339
1498.74, 0.108339
1499.18, 0.108440
1499.61, 0.108541
1500.04, 0.108390
1500.48, 0.108592
1500.91, 0.108642
1501.35, 0.108187
1501.78, 0.108491
1502.22, 0.108744
1502.65, 0.108794
1503.09, 0.108845
1503.53, 0.108845
1503.96, 0.108744
1504.4, 0.108642
1504.83, 0.108541
1505.27, 0.108592
1505.71, 0.108845
1506.15, 0.108946
1506.58, 0.108592
1507.02, 0.108541
1507.46, 0.108693
1507.9, 0.108845
1508.34, 0.108946
1508.78, 0.108845
1509.21, 0.108895
1509.66, 0.108693
1510.09, 0.108642
1510.53, 0.108642
1510.97, 0.108491
1511.42, 0.108592
1511.86, 0.108845
1512.3, 0.108895
1512.74, 0.108794
1513.18, 0.108946
1513.62, 0.108693
1514.06, 0.108592
1514.51, 0.108693
1514.95, 0.108744
1515.39, 0.108744
1515.83, 0.108845
1516.28, 0.108946
1516.72, 0.108794
1517.16, 0.108693
1517.61, 0.108946
1518.05, 0.109047
1518.5, 0.108744
1518.94, 0.108693
1519.39, 0.108794
1519.83, 0.108693
1520.28, 0.108744
1520.73, 0.108744
1521.17, 0.108693
1521.62, 0.109097
1522.07, 0.108996
1522.51, 0.108794
1522.96, 0.108996
1523.41, 0.108794
1523.85, 0.108845
1524.3, 0.108946
1524.75, 0.108845
1525.2, 0.108845
1525.65, 0.108845
1526.1, 0.108845
1526.55, 0.108996
1527.0, 0.109047
1527.45, 0.109047
1527.9, 0.109199
1528.35, 0.109350
1528.8, 0.109350
1529.25, 0.109249
1529.7, 0.109199
1530.15, 0.109148
1530.6, 0.109148
1531.05, 0.109199
1531.51, 0.109300
1531.96, 0.109350
1532.41, 0.109300
1532.87, 0.109199
1533.32, 0.109097
1533.77, 0.109148
1534.23, 0.109300
1534.68, 0.109401
1535.14, 0.109451
1535.59, 0.109502
1536.05, 0.109451
1536.5, 0.109401
1536.96, 0.109249
1537.41, 0.109148
1537.87, 0.109300
1538.32, 0.109502
1538.78, 0.109401
1539.24, 0.109502
1539.7, 0.109502
1540.15, 0.109350
1540.61, 0.109451
1541.07, 0.109654
1541.53, 0.109704
1541.98, 0.109654
1542.44, 0.109654
1542.9, 0.109654
1543.36, 0.109603
1543.82, 0.109603
1544.28, 0.109704
1544.74, 0.110007
1545.2, 0.109755
1545.66, 0.109603
1546.12, 0.109805
1546.59, 0.110007
1547.05, 0.110058
1547.51, 0.109957
1547.97, 0.110058
1548.43, 0.110109
1548.9, 0.110260
1549.36, 0.110412
1549.82, 0.110260
1550.29, 0.110260
1550.75, 0.110058
1551.21, 0.109856
1551.68, 0.110058
1552.14, 0.110311
1552.61, 0.110260
1553.07, 0.110210
1553.54, 0.110412
1554.0, 0.110715
1554.47, 0.110564
1554.93, 0.110361
1555.4, 0.110260
1555.87, 0.110462
1556.34, 0.110614
1556.8, 0.110665
1557.27, 0.110766
1557.74, 0.110513
1558.21, 0.110564
1558.68, 0.110917
1559.14, 0.111069
1559.61, 0.110968
1560.08, 0.110867
1560.55, 0.110816
1561.02, 0.110766
1561.49, 0.110917
1561.96, 0.111069
1562.43, 0.111069
1562.9, 0.111069
1563.38, 0.111019
1563.85, 0.111019
1564.32, 0.111221
1564.79, 0.111069
1565.26, 0.111019
1565.74, 0.111019
1566.21, 0.110917
1566.68, 0.110968
1567.16, 0.111019
1567.63, 0.111120
1568.1, 0.111170
1568.58, 0.111271
1569.05, 0.111423
1569.53, 0.111474
1570.0, 0.111474
1570.48, 0.111524
1570.96, 0.111676
1571.43, 0.111372
1571.91, 0.111170
1572.39, 0.111474
1572.86, 0.111575
1573.34, 0.111524
1573.82, 0.111170
1574.3, 0.111120
1574.77, 0.111575
1575.25, 0.111929
1575.73, 0.111979
1576.21, 0.111827
1576.69, 0.111524
1577.17, 0.111524
1577.65, 0.111575
1578.13, 0.111625
1578.61, 0.111777
1579.09, 0.111676
1579.57, 0.111423
1580.05, 0.111524
1580.54, 0.111676
1581.02, 0.111575
1581.5, 0.111524
1581.98, 0.111625
1582.47, 0.111726
1582.95, 0.111575
1583.43, 0.111372
1583.92, 0.111524
1584.4, 0.111929
1584.88, 0.111929
1585.37, 0.111575
1585.85, 0.111575
1586.34, 0.111524
1586.82, 0.111372
1587.31, 0.111878
1587.8, 0.112080
1588.28, 0.111878
1588.77, 0.111929
1589.26, 0.111878
1589.74, 0.111878
1590.23, 0.111827
1590.72, 0.111878
1591.21, 0.112080
1591.7, 0.111979
1592.19, 0.111827
1592.67, 0.111827
1593.16, 0.111878
1593.65, 0.111827
1594.14, 0.111929
1594.63, 0.112030
1595.12, 0.112080
1595.61, 0.112131
1596.11, 0.112181
1596.6, 0.112030
1597.09, 0.112181
1597.58, 0.112383
1598.08, 0.112232
1598.57, 0.112080
1599.06, 0.112333
1599.55, 0.112485
1600.05, 0.112333
1600.54, 0.112282
1601.04, 0.112383
1601.53, 0.112333
1602.03, 0.112333
1602.52, 0.112485
1603.02, 0.112636
1603.51, 0.112737
1604.01, 0.112687
1604.5, 0.112586
1605.0, 0.112788
1605.5, 0.112737
1606.0, 0.112535
1606.49, 0.112737
1606.99, 0.112940
1607.49, 0.112889
1607.99, 0.112838
1608.49, 0.112940
1608.99, 0.112990
1609.49, 0.112990
1609.99, 0.113091
1610.49, 0.113091
1610.99, 0.112940
1611.49, 0.112788
1611.99, 0.113041
1612.49, 0.113041
1612.99, 0.113142
1613.49, 0.113293
1614.0, 0.113496
1614.5, 0.113546
1615.0, 0.113597
1615.51, 0.113597
1616.01, 0.113344
1616.51, 0.113445
1617.02, 0.113698
1617.52, 0.113546
1618.03, 0.113496
1618.53, 0.113597
1619.04, 0.113698
1619.54, 0.113698
1620.05, 0.113900
1620.55, 0.113850
1621.06, 0.113748
1621.57, 0.113900
1622.08, 0.113900
1622.58, 0.113951
1623.09, 0.114001
1623.6, 0.114001
1624.11, 0.114102
1624.62, 0.114052
1625.13, 0.114052
1625.64, 0.114102
1626.15, 0.114254
1626.66, 0.114254
1627.17, 0.114102
1627.68, 0.114203
1628.19, 0.114557
1628.7, 0.114608
1629.21, 0.114507
1629.72, 0.114355
1630.24, 0.114153
1630.75, 0.114102
1631.26, 0.114254
1631.78, 0.114406
1632.29, 0.114406
1632.8, 0.114557
1633.32, 0.114709
1633.83, 0.114507
1634.35, 0.114557
1634.86, 0.114810
1635.38, 0.114810
1635.9, 0.114962
1636.41, 0.115113
1636.93, 0.114861
1637.45, 0.114608
1637.96, 0.114658
1638.48, 0.114810
1639.0, 0.114810
1639.52, 0.114557
1640.04, 0.114608
1640.56, 0.114658
1641.08, 0.114658
1641.59, 0.114709
1642.11, 0.114962
1642.63, 0.115012
1643.16, 0.114861
1643.68, 0.114911
1644.2, 0.115113
1644.72, 0.114962
1645.24, 0.114962
1645.76, 0.114911
1646.29, 0.115164
1646.81, 0.115366
1647.33, 0.115215
1647.86, 0.115164
1648.38, 0.115215
1648.9, 0.114962
1649.43, 0.114962
1649.95, 0.115012
1650.48, 0.115113
1651.0, 0.115215
1651.53, 0.115113
1652.06, 0.115113
1652.58, 0.115265
1653.11, 0.115316
1653.64, 0.115113
1654.17, 0.115063
1654.69, 0.115012
1655.22, 0.114911
1655.75, 0.115012
1656.28, 0.115164
1656.81, 0.115316
1657.34, 0.115568
1657.87, 0.115467
1658.4, 0.115467
1658.93, 0.115265
1659.46, 0.115063
1659.99, 0.115113
1660.52, 0.115316
1661.05, 0.115568
1661.59, 0.115619
1662.12, 0.115720
1662.65, 0.115821
1663.19, 0.115518
1663.72, 0.115467
1664.26, 0.115518
1664.79, 0.115518
1665.32, 0.115366
1665.86, 0.115467
1666.39, 0.115670
1666.93, 0.115771
1667.47, 0.115821
1668.0, 0.115922
1668.54, 0.115973
1669.08, 0.116023
1669.61, 0.116074
1670.15, 0.115973
1670.69, 0.116074
1671.23, 0.116125
1671.77, 0.115973
1672.31, 0.116074
1672.85, 0.116175
1673.39, 0.116125
1673.93, 0.116226
1674.47, 0.116327
1675.01, 0.116276
1675.55, 0.116276
1676.09, 0.116327
1676.64, 0.116478
1677.18, 0.116580
1677.72, 0.116630
1678.26, 0.116580
1678.81, 0.116478
1679.35, 0.116377
1679.89, 0.116478
1680.44, 0.116681
1680.98, 0.116681
1681.53, 0.116428
1682.07, 0.116428
1682.62, 0.116681
1683.17, 0.116933
1683.71, 0.116832
1684.26, 0.116731
1684.81, 0.117085
1685.36, 0.117186
1685.9, 0.117186
1686.45, 0.116984
1687.0, 0.117136
1687.55, 0.117035
1688.1, 0.117035
1688.65, 0.117136
1689.2, 0.117035
1689.75, 0.117186
1690.3, 0.117490
1690.85, 0.117439
1691.41, 0.117439
1691.96, 0.117439
1692.51, 0.117287
1693.06, 0.117186
1693.61, 0.117287
1694.17, 0.117540
1694.72, 0.117692
1695.28, 0.117692
1695.83, 0.117742
1696.39, 0.117843
1696.94, 0.117894
1697.5, 0.117995
1698.05, 0.117894
1698.61, 0.117894
1699.17, 0.117793
1699.72, 0.117793
1700.28, 0.117843
1700.84, 0.117894
1701.4, 0.117995
1701.95, 0.118147
1702.51, 0.118096
1703.07, 0.118197
1703.63, 0.118147
1704.19, 0.117995
1704.75, 0.118046
1705.31, 0.118147
1705.88, 0.118096
1706.44, 0.118147
1707.0, 0.118349
1707.56, 0.118349
1708.12, 0.118349
1708.69, 0.118349
1709.25, 0.118400
1709.81, 0.118400
1710.38, 0.118349
1710.94, 0.118298
1711.51, 0.118248
1712.07, 0.118248
1712.64, 0.118298
1713.2, 0.118349
1713.77, 0.118450
1714.34, 0.118450
1714.9, 0.118501
1715.47, 0.118602
1716.04, 0.118703
1716.61, 0.118753
1717.18, 0.118551
1717.74, 0.118450
1718.31, 0.118551
1718.88, 0.118602
1719.45, 0.118602
1720.02, 0.118602
1720.59, 0.118652
1721.17, 0.118602
1721.74, 0.118501
1722.31, 0.118298
1722.88, 0.118248
1723.45, 0.118450
1724.03, 0.118602
1724.6, 0.118551
1725.18, 0.118602
1725.75, 0.118652
1726.33, 0.118602
1726.9, 0.118652
1727.48, 0.118703
1728.05, 0.118804
1728.63, 0.119057
1729.2, 0.119006
1729.78, 0.119006
1730.36, 0.119057
1730.94, 0.118956
1731.51, 0.118905
1732.09, 0.118905
1732.67, 0.119006
1733.25, 0.119057
1733.83, 0.118956
1734.41, 0.118956
1734.99, 0.119057
1735.57, 0.119208
1736.15, 0.119259
1736.73, 0.119208
1737.32, 0.119259
1737.9, 0.119208
1738.48, 0.119259
1739.07, 0.119259
1739.65, 0.119259
1740.23, 0.119259
1740.82, 0.119208
1741.4, 0.119310
1741.99, 0.119562
1742.57, 0.119663
1743.16, 0.119613
1743.74, 0.119613
1744.33, 0.119663
1744.92, 0.119663
1745.51, 0.119663
1746.09, 0.119663
1746.68, 0.119613
1747.27, 0.119815
1747.86, 0.120068
1748.45, 0.119967
1749.04, 0.119916
1749.63, 0.120017
1750.22, 0.120068
1750.81, 0.120118
1751.4, 0.120068
1751.99, 0.120068
1752.59, 0.120118
1753.18, 0.120017
1753.77, 0.120169
1754.37, 0.120270
1754.96, 0.120118
1755.56, 0.120118
1756.15, 0.120371
1756.74, 0.120523
1757.34, 0.120523
1757.94, 0.120472
1758.53, 0.120422
1759.13, 0.120422
1759.73, 0.120573
1760.32, 0.120624
1760.92, 0.120674
1761.52, 0.120776
1762.12, 0.120776
1762.72, 0.120776
1763.32, 0.120826
1763.92, 0.120826
1764.52, 0.120927
1765.12, 0.120978
1765.72, 0.121079
1766.32, 0.121129
1766.92, 0.121281
1767.53, 0.121382
1768.13, 0.121231
1768.73, 0.121180
1769.34, 0.121332
1769.94, 0.121281
1770.55, 0.121180
1771.15, 0.121180
1771.76, 0.121129
1772.36, 0.121180
1772.97, 0.121332
1773.57, 0.121332
1774.18, 0.121433
1774.79, 0.121736
1775.4, 0.121888
1776.0, 0.121888
1776.61, 0.121787
1777.22, 0.121736
1777.83, 0.121635
1778.44, 0.121686
1779.05, 0.121635
1779.66, 0.121686
1780.27, 0.121989
1780.88, 0.121938
1781.5, 0.121736
1782.11, 0.121736
1782.72, 0.121938
1783.33, 0.122039
1783.95, 0.121938
1784.56, 0.121938
1785.18, 0.122039
1785.79, 0.121989
1786.41, 0.121686
1787.02, 0.121736
1787.64, 0.121989
1788.26, 0.122141
1788.87, 0.122191
1789.49, 0.122090
1790.11, 0.122090
1790.73, 0.122191
1791.35, 0.122141
1791.96, 0.122090
1792.58, 0.122444
1793.21, 0.122545
1793.83, 0.122292
1794.45, 0.122242
1795.07, 0.122292
1795.69, 0.122141
1796.31, 0.122141
1796.93, 0.122090
1797.56, 0.122343
1798.18, 0.122596
1798.8, 0.122494
1799.43, 0.122393
1800.05, 0.122393
1800.68, 0.122343
1801.3, 0.122141
1801.93, 0.122191
1802.56, 0.122343
1803.18, 0.122393
1803.81, 0.122343
1804.44, 0.122545
1805.07, 0.122545
1805.7, 0.122343
1806.33, 0.122393
1806.95, 0.122545
1807.58, 0.122747
1808.22, 0.122798
1808.85, 0.122747
1809.48, 0.122545
1810.11, 0.122545
1810.74, 0.122596
1811.38, 0.122697
1812.01, 0.122646
1812.64, 0.122596
1813.28, 0.122646
1813.91, 0.122848
1814.55, 0.122798
1815.18, 0.122697
1815.82, 0.122646
1816.45, 0.122747
1817.09, 0.122848
1817.73, 0.122848
1818.36, 0.122899
1819.0, 0.123000
1819.64, 0.123051
1820.28, 0.123152
1820.92, 0.123152
1821.56, 0.123202
1822.2, 0.123202
1822.84, 0.123152
1823.48, 0.123152
1824.12, 0.123152
1824.76, 0.123404
1825.41, 0.123455
1826.05, 0.123354
1826.69, 0.123354
1827.34, 0.123556
1827.98, 0.123556
1828.63, 0.123354
1829.27, 0.123404
1829.92, 0.123506
1830.56, 0.123556
1831.21, 0.123556
1831.86, 0.123556
1832.5, 0.123556
1833.15, 0.123657
1833.8, 0.123859
1834.45, 0.123859
1835.1, 0.123809
1835.75, 0.123708
1836.4, 0.123657
1837.05, 0.123910
1837.7, 0.124011
1838.35, 0.123910
1839.01, 0.123910
1839.66, 0.124112
1840.31, 0.124112
1840.96, 0.123910
1841.62, 0.123961
1842.27, 0.124213
1842.93, 0.124314
1843.58, 0.124416
1844.24, 0.124618
1844.9, 0.124719
1845.55, 0.124618
1846.21, 0.124517
1846.87, 0.124618
1847.53, 0.124517
1848.18, 0.124618
1848.84, 0.124820
1849.5, 0.124769
1850.16, 0.124719
1850.82, 0.124921
1851.48, 0.125022
1852.14, 0.125022
1852.81, 0.124921
1853.47, 0.125022
1854.13, 0.125174
1854.8, 0.125073
1855.46, 0.124972
1856.12, 0.124921
1856.79, 0.124921
1857.45, 0.125224
1858.12, 0.125427
1858.79, 0.125326
1859.45, 0.125224
1860.12, 0.125174
1860.79, 0.125174
1861.46, 0.125275
1862.12, 0.125376
1862.79, 0.125275
1863.46, 0.125224
1864.13, 0.125224
1864.8, 0.125477
1865.48, 0.125528
1866.15, 0.125376
1866.82, 0.125427
1867.49, 0.125578
1868.16, 0.125528
1868.84, 0.125578
1869.51, 0.125730
1870.19, 0.125730
1870.86, 0.125730
1871.54, 0.125730
1872.21, 0.125730
1872.89, 0.125578
1873.56, 0.125629
1874.24, 0.125730
1874.92, 0.125629
1875.6, 0.125679
1876.28, 0.125831
1876.96, 0.125730
1877.64, 0.125730
1878.32, 0.125730
1879.0, 0.125679
1879.68, 0.125781
1880.36, 0.125882
1881.04, 0.125932
1881.73, 0.125983
1882.41, 0.125730
1883.09, 0.125730
1883.78, 0.125932
1884.46, 0.125932
1885.15, 0.125831
1885.83, 0.125679
1886.52, 0.125781
1887.21, 0.125629
1887.89, 0.125629
1888.58, 0.125679
1889.27, 0.125730
1889.96, 0.125831
1890.65, 0.125882
1891.34, 0.125781
1892.03, 0.125629
1892.72, 0.125629
1893.41, 0.125781
1894.1, 0.125882
1894.79, 0.126033
1895.49, 0.126134
1896.18, 0.126134
1896.87, 0.125983
1897.57, 0.125882
1898.26, 0.125730
1898.96, 0.125629
1899.65, 0.125781
1900.35, 0.125882
1901.05, 0.125932
1901.74, 0.125882
1902.44, 0.125882
1903.14, 0.125932
1903.84, 0.125983
1904.54, 0.126084
1905.24, 0.125932
1905.94, 0.125781
1906.64, 0.125781
1907.34, 0.125781
1908.04, 0.125730
1908.75, 0.125932
1909.45, 0.126084
1910.15, 0.125983
1910.86, 0.125932
1911.56, 0.126134
1912.27, 0.126337
1912.97, 0.126387
1913.68, 0.126286
1914.39, 0.126134
1915.09, 0.126286
1915.8, 0.126438
1916.51, 0.126589
1917.22, 0.126539
1917.93, 0.126438
1918.64, 0.126438
1919.35, 0.126539
1920.06, 0.126691
1920.77, 0.126741
1921.48, 0.126691
1922.19, 0.126741
1922.91, 0.126893
1923.62, 0.127044
1924.33, 0.127146
1925.05, 0.127095
1925.76, 0.127095
1926.48, 0.127146
1927.19, 0.127196
1927.91, 0.127348
1928.63, 0.127550
1929.35, 0.127449
1930.07, 0.127398
1930.78, 0.127499
1931.5, 0.127499
1932.22, 0.127601
1932.94, 0.127702
1933.66, 0.127651
1934.39, 0.127752
1935.11, 0.127702
1935.83, 0.127702
1936.55, 0.127803
1937.28, 0.127853
1938.0, 0.127853
1938.73, 0.128056
1939.45, 0.128157
1940.18, 0.128157
1940.9, 0.128258
1941.63, 0.128359
1942.36, 0.128359
1943.09, 0.128258
1943.81, 0.128258
1944.54, 0.128258
1945.27, 0.128258
1946.0, 0.128409
1946.73, 0.128612
1947.47, 0.128713
1948.2, 0.128662
1948.93, 0.128612
1949.66, 0.128460
1950.4, 0.128511
1951.13, 0.128612
1951.86, 0.128561
1952.6, 0.128561
1953.34, 0.128612
1954.07, 0.128763
1954.81, 0.128713
1955.55, 0.128662
1956.29, 0.128763
1957.02, 0.128814
1957.76, 0.128915
1958.5, 0.129067
1959.24, 0.129016
1959.98, 0.128864
1960.72, 0.128915
1961.47, 0.129016
1962.21, 0.129067
1962.95, 0.129067
1963.7, 0.128965
1964.44, 0.128965
1965.18, 0.129067
1965.93, 0.129218
1966.67, 0.129168
1967.42, 0.129117
1968.17, 0.129218
1968.92, 0.129319
1969.66, 0.129319
1970.41, 0.129319
1971.16, 0.129370
1971.91, 0.129319
1972.66, 0.129319
1973.41, 0.129218
1974.16, 0.129016
1974.92, 0.128915
1975.67, 0.129067
1976.42, 0.129269
1977.18, 0.129269
1977.93, 0.129319
1978.69, 0.129319
1979.44, 0.129269
1980.2, 0.129168
1980.95, 0.129218
1981.71, 0.129370
1982.47, 0.129471
1983.23, 0.129471
1983.99, 0.129471
1984.74, 0.129471
1985.51, 0.129471
1986.27, 0.129471
1987.03, 0.129420
1987.79, 0.129420
1988.55, 0.129471
1989.32, 0.129572
1990.08, 0.129572
1990.84, 0.129673
1991.61, 0.129724
1992.37, 0.129623
1993.14, 0.129673
1993.9, 0.129774
1994.67, 0.129825
1995.44, 0.129926
1996.21, 0.129926
1996.98, 0.129875
1997.75, 0.129774
1998.52, 0.129875
1999.29, 0.129875
2000.06, 0.129977
2000.83, 0.130078
2001.6, 0.129926
2002.38, 0.130027
2003.15, 0.130128
2003.93, 0.130179
2004.7, 0.130179
2005.48, 0.130229
2006.25, 0.130381
2007.03, 0.130482
2007.81, 0.130533
2008.58, 0.130381
2009.36, 0.130482
2010.14, 0.130583
2010.92, 0.130583
2011.7, 0.130583
2012.48, 0.130684
2013.26, 0.130684
2014.05, 0.130583
2014.83, 0.130785
2015.61, 0.130937
2016.4, 0.131038
2017.18, 0.130988
2017.97, 0.131038
2018.75, 0.131139
2019.54, 0.131139
2020.32, 0.130937
2021.11, 0.130988
2021.9, 0.131240
2022.69, 0.131392
2023.48, 0.131493
2024.27, 0.131544
2025.06, 0.131443
2025.85, 0.131392
2026.64, 0.131443
2027.44, 0.131594
2028.23, 0.131695
2029.02, 0.131695
2029.82, 0.131695
2030.61, 0.131847
2031.41, 0.131898
2032.2, 0.131898
2033.0, 0.131898
2033.8, 0.131797
2034.6, 0.131948
2035.4, 0.132100
2036.2, 0.132100
2037.0, 0.131999
2037.8, 0.132150
2038.6, 0.132353
2039.4, 0.132504
2040.2, 0.132403
2041.01, 0.132302
2041.81, 0.132454
2042.61, 0.132656
2043.42, 0.132757
2044.22, 0.132757
2045.03, 0.132555
2045.84, 0.132605
2046.65, 0.132808
2047.46, 0.132808
2048.26, 0.132858
2049.07, 0.132858
2049.88, 0.132909
2050.69, 0.133060
2051.51, 0.133111
2052.32, 0.133010
2053.13, 0.132959
2053.94, 0.133010
2054.76, 0.133060
2055.57, 0.133162
2056.39, 0.133162
2057.2, 0.133162
2058.02, 0.133010
2058.84, 0.132959
2059.66, 0.133010
2060.48, 0.133212
2061.29, 0.133263
2062.11, 0.133263
2062.94, 0.133313
2063.76, 0.133313
2064.58, 0.133313
2065.4, 0.133313
2066.22, 0.133263
2067.05, 0.133263
2067.87, 0.133263
2068.7, 0.133263
2069.52, 0.133414
2070.35, 0.133465
2071.18, 0.133465
2072.0, 0.133364
2072.83, 0.133263
2073.66, 0.133364
2074.49, 0.133566
2075.32, 0.133566
2076.15, 0.133465
2076.98, 0.133414
2077.82, 0.133414
2078.65, 0.133465
2079.48, 0.133566
2080.32, 0.133768
2081.15, 0.133819
2081.99, 0.133617
2082.83, 0.133566
2083.66, 0.133617
2084.5, 0.133515
2085.34, 0.133617
2086.18, 0.133718
2087.02, 0.133566
2087.86, 0.133617
2088.7, 0.133768
2089.54, 0.133819
2090.39, 0.133819
2091.23, 0.133718
2092.07, 0.133718
2092.92, 0.133768
2093.76, 0.133819
2094.61, 0.133768
2095.45, 0.133617
2096.3, 0.133515
2097.15, 0.133667
2098.0, 0.133869
2098.85, 0.133920
2099.7, 0.133869
2100.55, 0.133869
2101.4, 0.133819
2102.25, 0.133920
2103.1, 0.134021
2103.96, 0.134122
2104.81, 0.134173
2105.67, 0.134223
2106.52, 0.134173
2107.38, 0.134324
2108.24, 0.134274
2109.09, 0.134173
2109.95, 0.134223
2110.81, 0.134375
2111.67, 0.134375
2112.53, 0.134425
2113.39, 0.134577
2114.25, 0.134577
2115.12, 0.134476
2115.98, 0.134375
2116.84, 0.134527
2117.71, 0.134628
2118.58, 0.134779
2119.44, 0.134880
2120.31, 0.134931
2121.18, 0.135032
2122.04, 0.135032
2122.91, 0.135083
2123.78, 0.135133
2124.65, 0.135133
2125.52, 0.135285
2126.4, 0.135386
2127.27, 0.135285
2128.14, 0.135285
2129.02, 0.135335
2129.89, 0.135437
2130.77, 0.135487
2131.64, 0.135487
2132.52, 0.135588
2133.4, 0.135689
2134.27, 0.135790
2135.15, 0.135740
2136.03, 0.135639
2136.91, 0.135740
2137.79, 0.135740
2138.68, 0.135790
2139.56, 0.135942
2140.44, 0.135790
2141.33, 0.135740
2142.21, 0.136043
2143.1, 0.136245
2143.99, 0.136245
2144.87, 0.136144
2145.76, 0.136094
2146.65, 0.136195
2147.54, 0.136296
2148.43, 0.136296
2149.32, 0.136245
2150.21, 0.136347
2151.1, 0.136498
2151.99, 0.136549
2152.89, 0.136498
2153.78, 0.136498
2154.68, 0.136650
2155.57, 0.136650
2156.47, 0.136650
2157.37, 0.136751
2158.27, 0.136953
2159.16, 0.136953
2160.06, 0.136802
2160.96, 0.136751
2161.86, 0.136751
2162.77, 0.136953
2163.67, 0.137155
2164.57, 0.137155
2165.48, 0.137054
2166.38, 0.137155
2167.29, 0.137155
2168.2, 0.137105
2169.1, 0.137105
2170.01, 0.137105
2170.92, 0.137257
2171.83, 0.137206
2172.74, 0.137155
2173.65, 0.137206
2174.56, 0.137257
2175.47, 0.137257
2176.39, 0.137257
2177.3, 0.137307
2178.22, 0.137358
2179.13, 0.137358
2180.05, 0.137358
2180.96, 0.137509
2181.88, 0.137509
2182.8, 0.137509
2183.72, 0.137358
2184.64, 0.137257
2185.56, 0.137459
2186.48, 0.137560
2187.41, 0.137560
2188.33, 0.137509
2189.25, 0.137560
2190.18, 0.137408
2191.1, 0.137408
2192.03, 0.137509
2192.96, 0.137459
2193.89, 0.137459
2194.82, 0.137459
2195.74, 0.137560
2196.68, 0.137560
2197.61, 0.137408
2198.54, 0.137408
2199.47, 0.137459
2200.4, 0.137509
2201.34, 0.137509
2202.28, 0.137408
2203.21, 0.137408
2204.15, 0.137610
2205.08, 0.137661
2206.02, 0.137459
2206.96, 0.137459
2207.9, 0.137610
2208.84, 0.137610
2209.78, 0.137509
2210.73, 0.137661
2211.67, 0.137813
2212.61, 0.137762
2213.56, 0.137711
2214.5, 0.137610
2215.45, 0.137661
2216.4, 0.137762
2217.35, 0.137762
2218.3, 0.137863
2219.24, 0.137813
2220.2, 0.137813
2221.15, 0.137762
2222.1, 0.137762
2223.05, 0.137863
2224.0, 0.137914
2224.96, 0.137762
2225.91, 0.137813
2226.87, 0.137914
2227.83, 0.138065
2228.79, 0.138166
2229.74, 0.138065
2230.7, 0.138065
2231.66, 0.138116
2232.63, 0.138116
2233.59, 0.138268
2234.55, 0.138369
2235.51, 0.138318
2236.48, 0.138419
2237.44, 0.138571
2238.41, 0.138520
2239.38, 0.138520
2240.34, 0.138621
2241.31, 0.138621
2242.28, 0.138621
2243.25, 0.138723
2244.22, 0.138824
2245.19, 0.138723
2246.17, 0.138723
2247.14, 0.138874
2248.12, 0.139026
2249.09, 0.139026
2250.07, 0.139026
2251.04, 0.138975
2252.02, 0.138975
2253.0, 0.139127
2253.98, 0.139127
2254.96, 0.139076
2255.94, 0.139228
2256.92, 0.139380
2257.91, 0.139329
2258.89, 0.139178
2259.88, 0.139228
2260.86, 0.139380
2261.85, 0.139531
2262.83, 0.139582
2263.82, 0.139683
2264.81, 0.139734
2265.8, 0.139582
2266.79, 0.139582
2267.78, 0.139582
2268.78, 0.139734
2269.77, 0.139784
2270.76, 0.139784
2271.76, 0.139835
2272.75, 0.139885
2273.75, 0.139936
2274.75, 0.140037
2275.75, 0.140138
2276.75, 0.140189
2277.75, 0.140239
2278.75, 0.140340
2279.75, 0.140290
2280.75, 0.140239
2281.76, 0.140391
2282.76, 0.140441
2283.77, 0.140340
2284.77, 0.140189
2285.78, 0.140189
2286.79, 0.140441
2287.8, 0.140593
2288.81, 0.140543
2289.82, 0.140492
2290.83, 0.140492
2291.84, 0.140593
2292.86, 0.140543
2293.87, 0.140593
2294.89, 0.140795
2295.91, 0.140694
2296.92, 0.140644
2297.94, 0.140694
2298.96, 0.140644
2299.98, 0.140593
2301.0, 0.140593
2302.02, 0.140593
2303.04, 0.140694
2304.07, 0.140745
2305.09, 0.140745
2306.12, 0.140458
2307.15, 0.140400
2308.17, 0.140515
2309.2, 0.140458
2310.23, 0.140802
2311.26, 0.140917
2312.29, 0.140802
2313.32, 0.140515
2314.35, 0.140974
2315.39, 0.141204
2316.42, 0.140802
2317.46, 0.140630
2318.5, 0.140860
2319.53, 0.141319
2320.57, 0.141721
2321.61, 0.141663
2322.65, 0.141089
2323.69, 0.140917
2324.73, 0.141147
2325.78, 0.141089
2326.82, 0.140802
2327.86, 0.140802
2328.91, 0.140974
2329.96, 0.141032
2331.01, 0.141147
2332.05, 0.141089
2333.1, 0.140974
2334.15, 0.141434
2335.21, 0.141721
2336.26, 0.141778
2337.31, 0.141434
2338.36, 0.141491
2339.42, 0.141319
2340.48, 0.141319
2341.53, 0.141491
2342.59, 0.141606
2343.65, 0.141778
2344.71, 0.141548
2345.77, 0.141835
2346.83, 0.142122
2347.9, 0.141835
2348.96, 0.141663
2350.02, 0.141721
2351.09, 0.141893
2352.16, 0.142122
2353.23, 0.142008
2354.29, 0.142008
2355.36, 0.141893
2356.43, 0.142180
2357.51, 0.142237
2358.58, 0.141893
2359.65, 0.141893
2360.73, 0.142008
2361.8, 0.141893
2362.88, 0.142237
2363.96, 0.142352
2365.03, 0.141950
2366.11, 0.142180
2367.19, 0.142524
2368.27, 0.142409
2369.36, 0.142409
2370.44, 0.142295
2371.53, 0.142180
2372.61, 0.142180
2373.7, 0.142409
2374.78, 0.142811
2375.87, 0.143041
2376.96, 0.142811
2378.05, 0.142582
2379.14, 0.142352
2380.24, 0.142467
2381.33, 0.142582
2382.42, 0.142582
2383.52, 0.142696
2384.61, 0.142696
2385.71, 0.142639
2386.81, 0.142869
2387.91, 0.143098
2389.01, 0.143270
2390.11, 0.143270
2391.22, 0.143443
2392.32, 0.143615
2393.42, 0.143672
2394.53, 0.143557
2395.64, 0.143328
2396.74, 0.143328
2397.85, 0.143270
2398.96, 0.142983
2400.07, 0.143041
2401.18, 0.143385
2402.3, 0.143557
2403.41, 0.143787
2404.52, 0.143787
2405.64, 0.143787
2406.76, 0.144131
2407.88, 0.144246
2408.99, 0.144131
2410.11, 0.144017
2411.23, 0.143902
2412.36, 0.143844
2413.48, 0.144131
2414.6, 0.144304
2415.73, 0.144361
2416.85, 0.144189
2417.98, 0.144304
2419.11, 0.144418
2420.24, 0.143959
2421.37, 0.144074
2422.5, 0.144533
2423.64, 0.144591
2424.77, 0.144705
2425.9, 0.144476
2427.04, 0.144017
2428.18, 0.144131
2429.31, 0.144418
2430.45, 0.144533
2431.59, 0.144591
2432.73, 0.144705
2433.88, 0.144591
2435.02, 0.144533
2436.16, 0.144591
2437.31, 0.144705
2438.45, 0.144705
2439.6, 0.144361
2440.75, 0.144533
2441.9, 0.144878
2443.05, 0.144763
2444.2, 0.144533
2445.35, 0.144533
2446.51, 0.144820
2447.67, 0.145050
2448.82, 0.144992
2449.98, 0.144878
2451.14, 0.145222
2452.3, 0.145394
2453.46, 0.144992
2454.62, 0.144763
2455.78, 0.144992
2456.94, 0.145337
2458.11, 0.145394
2459.28, 0.145337
2460.44, 0.145050
2461.61, 0.145279
2462.78, 0.145624
2463.95, 0.145566
2465.12, 0.145222
2466.3, 0.145222
2467.47, 0.145681
2468.65, 0.145739
2469.82, 0.145624
2471.0, 0.145452
2472.18, 0.145394
2473.36, 0.145624
2474.54, 0.145739
2475.72, 0.145509
2476.9, 0.145222
2478.08, 0.145337
2479.27, 0.145509
2480.46, 0.145853
2481.64, 0.146026
2482.83, 0.145911
2484.02, 0.145853
2485.21, 0.145853
2486.4, 0.145853
2487.6, 0.146083
2488.79, 0.146083
2489.99, 0.146083
2491.18, 0.146083
2492.38, 0.145968
2493.58, 0.145911
2494.78, 0.145911
2495.98, 0.145968
2497.18, 0.146026
2498.39, 0.145853
2499.59, 0.145911
2500.8, 0.146083
2502.01, 0.146026
2503.21, 0.146026
2504.42, 0.146140
2505.63, 0.146198
2506.84, 0.146198
2508.06, 0.146370
2509.27, 0.146198
2510.49, 0.146083
2511.7, 0.146485
2512.92, 0.146657
2514.14, 0.146485
2515.36, 0.146140
2516.58, 0.145968
2517.8, 0.146255
2519.03, 0.146600
2520.25, 0.146657
2521.48, 0.146427
2522.7, 0.146427
2523.93, 0.146485
2525.16, 0.146600
2526.39, 0.146772
2527.62, 0.146829
2528.86, 0.146714
2530.09, 0.146714
2531.33, 0.147001
2532.56, 0.147288
2533.8, 0.147116
2535.04, 0.147001
2536.28, 0.147116
2537.52, 0.147059
2538.76, 0.146887
2540.01, 0.146714
2541.25, 0.147059
2542.5, 0.147403
2543.75, 0.147518
2544.99, 0.147461
2546.24, 0.147174
2547.49, 0.147231
2548.75, 0.147575
2550.0, 0.147690
2551.26, 0.147920
2552.51, 0.148035
2553.77, 0.148035
2555.03, 0.147977
2556.29, 0.147977
2557.55, 0.147920
2558.81, 0.147690
2560.08, 0.147920
2561.34, 0.148379
2562.61, 0.148264
2563.88, 0.148322
2565.14, 0.148379
2566.41, 0.148322
2567.68, 0.148379
2568.96, 0.148436
2570.23, 0.148379
2571.51, 0.148149
2572.78, 0.148609
2574.06, 0.148896
2575.34, 0.148666
2576.62, 0.148896
2577.9, 0.148781
2579.18, 0.148666
2580.47, 0.148609
2581.75, 0.148436
2583.04, 0.148896
2584.32, 0.149125
2585.61, 0.148666
2586.9, 0.149010
2588.2, 0.149010
2589.49, 0.148896
2590.78, 0.148723
2592.08, 0.148436
2593.37, 0.148609
2594.67, 0.149642
2595.97, 0.149240
2597.27, 0.148551
2598.57, 0.148494
2599.88, 0.148494
2601.18, 0.148436
2602.49, 0.148494
2603.79, 0.149068
2605.1, 0.149642
2606.41, 0.149412
2607.72, 0.149010
2609.03, 0.148953
2610.35, 0.148723
2611.66, 0.148609
2612.98, 0.148838
2614.3, 0.148838
2615.62, 0.149068
2616.94, 0.149412
2618.26, 0.149183
2619.58, 0.149412
2620.91, 0.149584
2622.23, 0.148953
2623.56, 0.148896
2624.89, 0.148838
2626.22, 0.149412
2627.55, 0.149297
2628.88, 0.149068
2630.21, 0.149527
2631.55, 0.149355
2632.89, 0.149125
2634.22, 0.149297
2635.56, 0.149125
2636.9, 0.149355
2638.25, 0.149355
2639.59, 0.148953
2640.93, 0.148838
2642.28, 0.149010
2643.63, 0.148896
2644.98, 0.148838
2646.33, 0.148781
2647.68, 0.148781
2649.03, 0.148781
2650.39, 0.148609
2651.74, 0.148838
2653.1, 0.149183
2654.46, 0.148838
2655.82, 0.148781
2657.18, 0.148666
2658.54, 0.149010
2659.9, 0.149068
2661.27, 0.148781
2662.64, 0.148379
2664.01, 0.148379
2665.38, 0.148838
2666.74, 0.149068
2668.12, 0.148436
2669.49, 0.148609
2670.87, 0.149125
2672.24, 0.148149
2673.62, 0.147805
2675.0, 0.147748
2676.38, 0.147862
2677.76, 0.147575
2679.15, 0.147288
2680.54, 0.146944
2681.92, 0.146600
2683.31, 0.146542
2684.7, 0.146427
2686.09, 0.146026
2687.48, 0.145452
2688.88, 0.145165
2690.27, 0.144705
2691.67, 0.144074
2693.07, 0.143787
2694.47, 0.143156
2695.87, 0.142352
2697.27, 0.141606
2698.67, 0.140687
2700.08, 0.139999
2701.49, 0.139080
2702.9, 0.138104
2704.31, 0.137358
2705.72, 0.136727
2707.13, 0.136038
2708.54, 0.135636
2709.96, 0.134947
2711.38, 0.134316
2712.8, 0.133225
2714.22, 0.132422
2715.64, 0.131963
2717.06, 0.131274
2718.49, 0.130183
2719.91, 0.129839
2721.34, 0.129322
2722.77, 0.128232
2724.2, 0.127715
2725.63, 0.126739
2727.07, 0.125591
2728.5, 0.124443
2729.94, 0.123353
2731.38, 0.122492
2732.82, 0.121745
2734.26, 0.120999
2735.7, 0.119909
2737.15, 0.118761
2738.59, 0.118072
2740.04, 0.117383
2741.49, 0.116178
2742.94, 0.114915
2744.39, 0.113824
2745.84, 0.113021
2747.3, 0.112045
2748.76, 0.111126
2750.21, 0.110208
2751.67, 0.109519
2753.14, 0.108543
2754.6, 0.108027
2756.06, 0.107682
2757.53, 0.106707
2759.0, 0.105846
2760.46, 0.105386
2761.94, 0.105214
2763.41, 0.104812
2764.88, 0.104124
2766.36, 0.103607
2767.83, 0.103263
2769.31, 0.102746
2770.79, 0.102516
2772.27, 0.102344
2773.76, 0.101770
2775.24, 0.101483
2776.73, 0.101254
2778.22, 0.101024
2779.71, 0.100852
2781.2, 0.100680
2782.69, 0.100220
2784.18, 0.0998190
2785.68, 0.0999330
2787.18, 0.100335
2788.68, 0.100220
2790.18, 0.100048
2791.68, 0.100163
2793.19, 0.100163
2794.69, 0.0998760
2796.2, 0.100106
2797.71, 0.100393
2799.22, 0.100622
2800.73, 0.100737
2802.24, 0.100680
2803.76, 0.100852
2805.28, 0.100680
2806.8, 0.100393
2808.32, 0.100335
2809.84, 0.100278
2811.36, 0.0999910
2812.89, 0.0996460
2814.42, 0.0995320
2815.94, 0.0994740
2817.48, 0.0993020
2819.01, 0.0991300
2820.54, 0.0987280
2822.08, 0.0983840
2823.61, 0.0977520
2825.15, 0.0970060
2826.69, 0.0969490
2828.23, 0.0974650
2829.78, 0.0979240
2831.32, 0.0982690
2832.87, 0.0982690
2834.42, 0.0980970
2835.97, 0.0983260
2837.52, 0.0982690
2839.08, 0.0980390
2840.63, 0.0979820
2842.19, 0.0978100
2843.75, 0.0976370
2845.31, 0.0974650
2846.87, 0.0971780
2848.44, 0.0971780
2850.0, 0.0971210
2851.57, 0.0965470
2853.14, 0.0962600
2854.71, 0.0963170
2856.28, 0.0961450
2857.86, 0.0959150
2859.43, 0.0959730
2861.01, 0.0959150
2862.59, 0.0958010
2864.17, 0.0956280
2865.76, 0.0954560
2867.34, 0.0952270
2868.93, 0.0949400
2870.52, 0.0947670
2872.11, 0.0947670
2873.7, 0.0947670
2875.29, 0.0944800
2876.89, 0.0942510
2878.49, 0.0941360
2880.08, 0.0940210
2881.69, 0.0940790
2883.29, 0.0940210
2884.89, 0.0937920
2886.5, 0.0937340
2888.11, 0.0936770
2889.72, 0.0934470
2891.33, 0.0932180
2892.94, 0.0932750
2894.56, 0.0933900
2896.17, 0.0933320
2897.79, 0.0930450
2899.42, 0.0928730
2901.04, 0.0929310
2902.66, 0.0931030
2904.29, 0.0930450
2905.92, 0.0929310
2907.55, 0.0928730
2909.18, 0.0929880
2910.81, 0.0929880
2912.45, 0.0929310
2914.08, 0.0930450
2915.72, 0.0929880
2917.36, 0.0929310
2919.01, 0.0929880
2920.65, 0.0929880
2922.3, 0.0929880
2923.94, 0.0931030
2925.59, 0.0930450
2927.25, 0.0928730
2928.9, 0.0929310
2930.56, 0.0932180
2932.21, 0.0933320
2933.87, 0.0932750
2935.53, 0.0932180
2937.2, 0.0931600
2938.86, 0.0930450
2940.53, 0.0932180
2942.2, 0.0933900
2943.87, 0.0933320
2945.54, 0.0932180
2947.22, 0.0932180
2948.89, 0.0933320
2950.57, 0.0935050
2952.25, 0.0935050
2953.93, 0.0936190
2955.62, 0.0937340
2957.3, 0.0937920
2958.99, 0.0940790
2960.68, 0.0941360
2962.37, 0.0940790
2964.07, 0.0941360
2965.76, 0.0943080
2967.46, 0.0944800
2969.16, 0.0944230
2970.86, 0.0943660
2972.56, 0.0944230
2974.27, 0.0944230
2975.98, 0.0945380
2977.69, 0.0947100
2979.4, 0.0948250
2981.11, 0.0949400
2982.83, 0.0951690
2984.54, 0.0953990
2986.26, 0.0955140
2987.98, 0.0955140
2989.71, 0.0954560
2991.43, 0.0954560
2993.16, 0.0955710
2994.89, 0.0956280
2996.62, 0.0958010
2998.35, 0.0959730
3000.09, 0.0960880
3001.83, 0.0962600
3003.57, 0.0963750
3005.31, 0.0964890
3007.05, 0.0964890
3008.79, 0.0966040
3010.54, 0.0968340
3012.29, 0.0971780
3014.04, 0.0972930
3015.8, 0.0972930
3017.55, 0.0974080
3019.31, 0.0974080
3021.07, 0.0974650
3022.83, 0.0976370
3024.59, 0.0977520
3026.36, 0.0979240
3028.13, 0.0979820
3029.9, 0.0980390
3031.67, 0.0980970
3033.44, 0.0982690
3035.22, 0.0984980
3037.0, 0.0986710
3038.78, 0.0986710
3040.56, 0.0986710
3042.34, 0.0987850
3044.13, 0.0989580
3045.92, 0.0990150
3047.71, 0.0989000
3049.5, 0.0990720
3051.3, 0.0993590
3053.09, 0.0994170
3054.89, 0.0994170
3056.69, 0.0996460
3058.5, 0.0998190
3060.3, 0.0997610
3062.11, 0.0998190
3063.92, 0.0999910
3065.73, 0.100163
3067.55, 0.100220
3069.36, 0.100278
3071.18, 0.100335
3073.0, 0.100507
3074.82, 0.100622
3076.65, 0.100680
3078.48, 0.100794
3080.31, 0.100967
3082.14, 0.101081
3083.97, 0.101254
3085.8, 0.101426
3087.64, 0.101368
3089.48, 0.101483
3091.33, 0.101713
3093.17, 0.102000
3095.02, 0.102115
3096.87, 0.102229
3098.72, 0.102344
3100.57, 0.102631
3102.43, 0.102746
3104.28, 0.102746
3106.14, 0.102918
3108.01, 0.103205
3109.87, 0.103435
3111.74, 0.103664
3113.61, 0.103779
3115.48, 0.103894
3117.35, 0.104009
3119.23, 0.104181
3121.1, 0.104468
3122.98, 0.104640
3124.87, 0.104755
3126.75, 0.104927
3128.64, 0.105157
3130.53, 0.105444
3132.42, 0.105501
3134.31, 0.105788
3136.21, 0.106133
3138.11, 0.106247
3140.01, 0.106362
3141.91, 0.106477
3143.82, 0.106764
3145.73, 0.107108
3147.64, 0.107338
3149.55, 0.107568
3151.46, 0.107682
3153.38, 0.107912
3155.3, 0.108199
3157.22, 0.108486
3159.14, 0.108830
3161.07, 0.109003
3163.0, 0.109175
3164.93, 0.109347
3166.86, 0.109577
3168.8, 0.109806
3170.74, 0.109921
3172.68, 0.109978
3174.62, 0.110151
3176.56, 0.110323
3178.51, 0.110610
3180.46, 0.110954
3182.42, 0.111069
3184.37, 0.111126
3186.33, 0.111471
3188.29, 0.111815
3190.25, 0.112045
3192.21, 0.112217
3194.18, 0.112389
3196.15, 0.112734
3198.12, 0.112963
3200.09, 0.113193
3202.07, 0.113365
3204.05, 0.113537
3206.03, 0.113767
3208.02, 0.113996
3210.0, 0.114054
3211.99, 0.114283
3213.98, 0.114570
3215.98, 0.114685
3217.97, 0.114972
3219.97, 0.115202
3221.97, 0.115431
3223.98, 0.115546
3225.98, 0.115718
3227.99, 0.116063
3230.0, 0.116292
3232.02, 0.116579
3234.03, 0.116637
3236.05, 0.116809
3238.07, 0.117039
3240.1, 0.117268
3242.12, 0.117498
3244.15, 0.117727
3246.18, 0.117900
3248.22, 0.118129
3250.25, 0.118416
3252.29, 0.118646
3254.33, 0.118703
3256.38, 0.118933
3258.43, 0.119277
3260.47, 0.119507
3262.53, 0.119564
3264.58, 0.119679
3266.64, 0.119966
3268.7, 0.120368
3270.76, 0.120655
3272.82, 0.120827
3274.89, 0.120999
3276.96, 0.121286
3279.04, 0.121401
3281.11, 0.121573
3283.19, 0.121860
3285.27, 0.122090
3287.35, 0.122147
3289.44, 0.122377
3291.53, 0.122549
3293.62, 0.122779
3295.71, 0.123066
3297.81, 0.123353
3299.91, 0.123525
3302.01, 0.123697
3304.11, 0.123869
3306.22, 0.124099
3308.33, 0.124214
3310.44, 0.124443
3312.56, 0.124673
3314.68, 0.124845
3316.8, 0.125189
3318.92, 0.125362
3321.05, 0.125419
3323.18, 0.125649
3325.31, 0.125993
3327.44, 0.126165
3329.58, 0.126165
3331.72, 0.126223
3333.86, 0.126510
3336.01, 0.126797
3338.16, 0.126911
3340.31, 0.127141
3342.46, 0.127428
3344.61, 0.127543
3346.77, 0.127543
3348.94, 0.127715
3351.1, 0.127887
3353.27, 0.128174
3355.44, 0.128232
3357.61, 0.128174
3359.79, 0.128174
3361.97, 0.128289
3364.15, 0.128174
3366.33, 0.128002
3368.52, 0.128059
3370.71, 0.128232
3372.9, 0.128461
3375.1, 0.128691
3377.3, 0.128806
3379.5, 0.128978
3381.71, 0.129265
3383.91, 0.129552
3386.12, 0.129667
3388.34, 0.129954
3390.55, 0.130241
3392.77, 0.130413
3394.99, 0.130413
3397.22, 0.130470
3399.45, 0.130470
3401.68, 0.130585
3403.91, 0.130585
3406.15, 0.130642
3408.39, 0.130700
3410.63, 0.130872
3412.87, 0.131044
3415.12, 0.131216
3417.37, 0.131389
3419.63, 0.131676
3421.88, 0.132192
3424.14, 0.132651
3426.41, 0.132996
3428.67, 0.133398
3430.94, 0.133742
3433.21, 0.134201
3435.49, 0.134488
3437.77, 0.134603
3440.05, 0.134718
3442.33, 0.135005
3444.62, 0.135292
3446.91, 0.135464
3449.2, 0.135636
3451.5, 0.135808
3453.8, 0.135981
3456.1, 0.136095
3458.41, 0.136382
3460.72, 0.136669
3463.03, 0.136842
3465.34, 0.136956
3467.66, 0.137071
3469.98, 0.137186
3472.31, 0.137358
3474.63, 0.137530
3476.96, 0.137703
3479.3, 0.137817
3481.64, 0.138104
3483.97, 0.138449
3486.32, 0.138851
3488.66, 0.138965
3491.01, 0.139023
3493.36, 0.139080
3495.72, 0.139195
3498.08, 0.139367
3500.44, 0.139597
3502.81, 0.139826
3505.18, 0.140171
3507.55, 0.140515
3509.92, 0.140860
3512.3, 0.141204
3514.68, 0.141548
3517.06, 0.141893
3519.45, 0.142180
3521.84, 0.142467
3524.24, 0.142696
3526.64, 0.142983
3529.04, 0.143156
3531.44, 0.143328
3533.85, 0.143615
3536.26, 0.143902
3538.67, 0.144131
3541.09, 0.144246
3543.51, 0.144361
3545.93, 0.144591
3548.36, 0.144878
3550.79, 0.145165
3553.22, 0.145222
3555.66, 0.145452
3558.1, 0.145853
3560.54, 0.146026
3562.99, 0.145968
3565.44, 0.146083
3567.9, 0.146427
3570.35, 0.146600
3572.81, 0.146772
3575.28, 0.146944
3577.75, 0.147116
3580.22, 0.147403
3582.69, 0.147633
3585.17, 0.147862
3587.65, 0.147977
3590.14, 0.148149
3592.62, 0.148379
3595.11, 0.148551
3597.61, 0.148609
3600.11, 0.148781
3602.61, 0.149010
3605.11, 0.149125
3607.62, 0.149297
3610.14, 0.149470
3612.65, 0.149527
3615.17, 0.149699
3617.69, 0.150044
3620.22, 0.150273
3622.75, 0.150273
3625.28, 0.150388
3627.82, 0.150560
3630.36, 0.150732
3632.9, 0.150790
3635.45, 0.150905
3638.0, 0.151077
3640.56, 0.151306
3643.12, 0.151479
3645.68, 0.151651
3648.24, 0.151766
3650.81, 0.151938
3653.39, 0.152110
3655.96, 0.152282
3658.54, 0.152340
3661.13, 0.152454
3663.71, 0.152684
3666.3, 0.152799
3668.9, 0.153028
3671.5, 0.153315
3674.1, 0.153430
3676.7, 0.153488
3679.31, 0.153602
3681.93, 0.153832
3684.54, 0.154062
3687.17, 0.154291
3689.79, 0.154521
3692.42, 0.154693
3695.05, 0.154865
3697.69, 0.154980
3700.32, 0.155152
3702.97, 0.155267
3705.61, 0.155497
3708.27, 0.155611
3710.92, 0.155669
3713.58, 0.155898
3716.24, 0.156013
3718.91, 0.156243
3721.58, 0.156415
3724.25, 0.156587
3726.93, 0.156759
3729.61, 0.156989
3732.29, 0.157046
3734.98, 0.157046
3737.67, 0.157161
3740.37, 0.157219
3743.07, 0.157391
3745.78, 0.157678
3748.49, 0.157965
3751.2, 0.158080
3753.91, 0.158137
3756.63, 0.158252
3759.36, 0.158367
3762.09, 0.158539
3764.82, 0.158654
3767.55, 0.158826
3770.29, 0.158941
3773.04, 0.159113
3775.78, 0.159228
3778.54, 0.159342
3781.29, 0.159457
3784.05, 0.159457
3786.82, 0.159457
3789.59, 0.159629
3792.36, 0.159744
3795.13, 0.159802
3797.92, 0.159916
3800.7, 0.160089
3803.49, 0.160203
3806.28, 0.160203
3809.08, 0.160261
3811.88, 0.160433
3814.68, 0.160548
3817.49, 0.160490
3820.31, 0.160605
3823.12, 0.160720
3825.94, 0.160777
3828.77, 0.160777
3831.6, 0.160835
3834.43, 0.160950
3837.27, 0.161064
3840.11, 0.161179
3842.96, 0.161237
3845.81, 0.161409
3848.67, 0.161409
3851.53, 0.161466
3854.39, 0.161466
3857.26, 0.161466
3860.13, 0.161581
3863.01, 0.161696
3865.89, 0.161638
3868.77, 0.161696
3871.66, 0.161868
3874.55, 0.161925
3877.45, 0.161925
3880.35, 0.161983
3883.26, 0.162040
3886.17, 0.162098
3889.09, 0.162212
3892.01, 0.162270
3894.93, 0.162327
3897.86, 0.162442
3900.79, 0.162385
3903.73, 0.162385
3906.67, 0.162499
3909.62, 0.162557
3912.57, 0.162499
3915.52, 0.162499
3918.48, 0.162499
3921.45, 0.162672
3924.42, 0.162672
3927.39, 0.162614
3930.37, 0.162614
3933.35, 0.162557
3936.34, 0.162614
3939.33, 0.162729
3942.32, 0.162729
3945.32, 0.162729
3948.33, 0.162729
3951.34, 0.162672
3954.35, 0.162614
3957.37, 0.162729
3960.39, 0.162729
3963.42, 0.162442
3966.45, 0.162270
3969.49, 0.162155
3972.53, 0.162098
3975.58, 0.162098
3978.63, 0.162270
3981.68, 0.162557
3984.75, 0.162786
3987.81, 0.163073
3990.88, 0.163246
3993.95, 0.163303
3997.03, 0.163303
4000.12, 0.163303
4003.21, 0.163303
4006.3, 0.163246
4009.4, 0.163188
4012.5, 0.163188
4015.61, 0.163188
4018.72, 0.163188
4021.84, 0.163360
4024.96, 0.163647
4028.09, 0.163934
4031.22, 0.164221
4034.36, 0.164336
4037.5, 0.164508
4040.65, 0.164623
4043.8, 0.164623
4046.96, 0.164623
4050.12, 0.164738
4053.29, 0.164853
4056.46, 0.164853
4059.64, 0.164853
4062.82, 0.164968
4066.0, 0.165025
4069.19, 0.164968
4072.39, 0.164853
4075.59, 0.165082
4078.8, 0.165197
4082.01, 0.165197
4085.23, 0.165140
4088.45, 0.165140
4091.68, 0.165197
4094.91, 0.165140
4098.15, 0.165140
4101.39, 0.165082
4104.63, 0.165197
4107.89, 0.165255
4111.14, 0.165197
4114.41, 0.165082
4117.67, 0.165082
4120.95, 0.165255
4124.23, 0.165369
4127.51, 0.165312
4130.8, 0.165312
4134.09, 0.165197
4137.39, 0.165197
4140.7, 0.165197
4144.01, 0.165140
4147.32, 0.165082
4150.64, 0.165082
4153.97, 0.165082
4157.3, 0.165140
4160.64, 0.165140
4163.98, 0.165082
4167.33, 0.165025
4170.68, 0.165025
4174.04, 0.164968
4177.4, 0.164853
4180.77, 0.164910
4184.14, 0.164968
4187.52, 0.164910
4190.91, 0.164853
4194.3, 0.164853
4197.69, 0.164795
4201.1, 0.164738
4204.5, 0.164853
4207.92, 0.164910
4211.34, 0.164910
4214.76, 0.164968
4218.19, 0.164910
4221.62, 0.164853
4225.06, 0.164910
4228.51, 0.164910
4231.96, 0.164795
4235.42, 0.164795
4238.88, 0.164681
4242.35, 0.164508
4245.83, 0.164336
4249.31, 0.164221
4252.79, 0.163934
4256.28, 0.163705
4259.78, 0.163590
4263.29, 0.163418
4266.79, 0.163303
4270.31, 0.163418
4273.83, 0.163590
4277.35, 0.163762
4280.89, 0.163705
4284.42, 0.163590
4287.97, 0.163533
4291.52, 0.163590
4295.07, 0.163533
4298.63, 0.163418
4302.2, 0.163303
4305.78, 0.163188
4309.35, 0.163131
4312.94, 0.163016
4316.53, 0.162959
4320.13, 0.162901
4323.73, 0.162786
4327.34, 0.162614
4330.96, 0.162499
4334.58, 0.162385
4338.21, 0.162155
4341.84, 0.162098
4345.48, 0.162040
4349.12, 0.161811
4352.77, 0.161638
4356.43, 0.161524
4360.1, 0.161409
4363.76, 0.161064
4367.44, 0.160835
4371.12, 0.160720
4374.81, 0.160433
4378.51, 0.160146
4382.21, 0.159916
4385.92, 0.159744
4389.63, 0.159515
4393.35, 0.159228
4397.08, 0.158998
4400.81, 0.158711
4404.55, 0.158424
4408.29, 0.158022
4412.04, 0.157563
4415.8, 0.157161
4419.57, 0.156759
4423.34, 0.156358
4427.12, 0.155956
4430.9, 0.155554
4434.69, 0.155037
4438.49, 0.154463
4442.29, 0.153832
4446.1, 0.153373
4449.92, 0.152799
4453.74, 0.152282
4457.57, 0.151593
4461.41, 0.151019
4465.25, 0.150445
4469.1, 0.149871
4472.95, 0.149183
4476.82, 0.148494
4480.69, 0.147862
4484.56, 0.147231
4488.44, 0.146485
4492.33, 0.145739
4496.23, 0.145165
4500.13, 0.144476
4504.04, 0.143615
4507.96, 0.142869
4511.88, 0.142065
4515.81, 0.141376
4519.75, 0.140630
4523.69, 0.139884
4527.65, 0.139195
4531.6, 0.138391
4535.57, 0.137645
4539.54, 0.137071
4543.52, 0.136497
4547.5, 0.135866
4551.5, 0.135234
4555.5, 0.134603
4559.5, 0.133972
4563.52, 0.133512
4567.54, 0.133053
4571.56, 0.132709
4575.6, 0.132364
4579.64, 0.131963
4583.69, 0.131618
4587.75, 0.131274
4591.81, 0.130815
4595.88, 0.130298
4599.96, 0.129724
4604.04, 0.129207
4608.14, 0.128691
4612.24, 0.128174
4616.34, 0.127658
4620.46, 0.127256
4624.58, 0.127026
4628.71, 0.126797
4632.84, 0.126567
4636.99, 0.126452
4641.14, 0.126165
4645.3, 0.125993
4649.47, 0.125936
4653.64, 0.125878
4657.82, 0.125763
4662.01, 0.125878
4666.21, 0.125936
4670.41, 0.125878
4674.62, 0.125821
4678.84, 0.125763
4683.07, 0.125763
4687.3, 0.125706
4691.54, 0.125706
4695.79, 0.125649
4700.05, 0.125649
4704.31, 0.125821
4708.59, 0.125878
4712.87, 0.125878
4717.15, 0.125936
4721.45, 0.125936
4725.76, 0.125993
4730.07, 0.126050
4734.39, 0.126108
4738.72, 0.126108
4743.05, 0.125993
4747.39, 0.125821
4751.75, 0.125649
4756.1, 0.125649
4760.47, 0.125419
4764.85, 0.125304
4769.23, 0.125247
4773.62, 0.125132
4778.02, 0.124902
4782.43, 0.124673
4786.85, 0.124501
4791.27, 0.124386
4795.7, 0.124328
4800.14, 0.124271
4804.59, 0.124271
4809.05, 0.124501
4813.51, 0.124960
4817.99, 0.125419
4822.47, 0.125763
4826.96, 0.126108
4831.46, 0.126395
4835.96, 0.126739
4840.48, 0.127141
4845.0, 0.127600
4849.54, 0.127945
4854.08, 0.128174
4858.63, 0.128059
4863.18, 0.127887
4867.75, 0.127772
4872.33, 0.127830
4876.91, 0.128174
4881.5, 0.128576
4886.1, 0.128920
4890.71, 0.129207
4895.33, 0.129265
4899.96, 0.129380
4904.59, 0.129437
4909.24, 0.129437
4913.89, 0.129380
4918.55, 0.129322
4923.22, 0.129207
4927.9, 0.129207
4932.59, 0.129265
4937.29, 0.129265
4942.0, 0.129093
4946.71, 0.128806
4951.44, 0.128519
4956.17, 0.128059
4960.91, 0.127543
4965.67, 0.127026
4970.43, 0.126624
4975.2, 0.126337
4979.98, 0.126337
4984.76, 0.126624
4989.56, 0.126797
4994.37, 0.126797
4999.18, 0.126624
5004.01, 0.126395
5008.84, 0.126108
5013.69, 0.126165
5018.54, 0.126911
5023.4, 0.128117
5028.28, 0.129494
5033.16, 0.130929
5038.05, 0.132192
5042.95, 0.132996
5047.86, 0.133627
5052.78, 0.134086
5057.71, 0.134431
5062.65, 0.134775
5067.6, 0.134947
5072.56, 0.135120
5077.53, 0.135349
5082.5, 0.135694
5087.49, 0.135923
5092.49, 0.136153
5097.5, 0.136497
5102.51, 0.136669
5107.54, 0.136784
5112.58, 0.137071
5117.62, 0.137301
5122.68, 0.137473
5127.75, 0.137645
5132.82, 0.137760
5137.91, 0.137875
5143.01, 0.138047
5148.12, 0.138334
5153.23, 0.138506
5158.36, 0.138564
5163.5, 0.138678
5168.65, 0.138851
5173.81, 0.139023
5178.98, 0.139138
5184.15, 0.139252
5189.34, 0.139539
5194.54, 0.139941
5199.75, 0.140286
5204.98, 0.140515
5210.21, 0.140745
5215.45, 0.141089
5220.7, 0.141319
5225.96, 0.141434
5231.23, 0.141548
5236.52, 0.141721
5241.81, 0.141950
5247.12, 0.142180
5252.44, 0.142352
5257.76, 0.142582
5263.1, 0.142754
5268.45, 0.142983
5273.81, 0.143156
5279.18, 0.143328
5284.56, 0.143500
5289.95, 0.143615
5295.36, 0.143730
5300.77, 0.143959
5306.2, 0.144131
5311.63, 0.144304
5317.08, 0.144533
5322.54, 0.144763
5328.01, 0.144992
5333.49, 0.145222
5338.98, 0.145452
5344.49, 0.145624
5350.0, 0.145796
5355.53, 0.146083
5361.07, 0.146427
5366.62, 0.146600
5372.18, 0.146829
5377.75, 0.147174
5383.34, 0.147518
5388.93, 0.147920
5394.54, 0.148264
5400.16, 0.148551
5405.79, 0.148838
5411.44, 0.149010
5417.09, 0.149183
5422.76, 0.149412
5428.43, 0.149527
5434.12, 0.149699
5439.83, 0.149871
5445.54, 0.150044
5451.26, 0.150044
5457.0, 0.150158
5462.75, 0.150331
5468.52, 0.150445
5474.29, 0.150445
5480.08, 0.150503
5485.88, 0.150503
5491.69, 0.150618
5497.51, 0.150675
5503.35, 0.150675
5509.2, 0.150675
5515.06, 0.150790
5520.93, 0.150790
5526.82, 0.150790
5532.71, 0.150847
5538.63, 0.150962
5544.55, 0.151019
5550.49, 0.151134
5556.44, 0.151249
5562.4, 0.151249
5568.37, 0.151134
5574.36, 0.151134
5580.36, 0.151134
5586.37, 0.150962
5592.4, 0.150847
5598.44, 0.150905
5604.49, 0.150962
5610.56, 0.151019
5616.63, 0.151249
5622.73, 0.151421
5628.83, 0.151364
5634.95, 0.151364
5641.08, 0.151364
5647.23, 0.151249
5653.39, 0.151192
5659.56, 0.151077
5665.74, 0.150675
5671.94, 0.150331
5678.15, 0.150101
5684.38, 0.150044
5690.62, 0.150158
5696.87, 0.150101
5703.14, 0.149929
5709.42, 0.149929
5715.72, 0.149642
5722.03, 0.149297
5728.35, 0.148781
5734.69, 0.148322
5741.03, 0.147862
5747.4, 0.147403
5753.78, 0.146714
5760.17, 0.146140
5766.58, 0.145739
5773.0, 0.145050
5779.44, 0.144418
5785.88, 0.143902
5792.35, 0.143328
5798.83, 0.142926
5805.32, 0.142409
5811.83, 0.141893
5818.35, 0.141434
5824.89, 0.141032
5831.45, 0.140343
5838.01, 0.139769
5844.59, 0.139138
5851.19, 0.138449
5857.8, 0.137760
5864.43, 0.137129
5871.07, 0.136440
5877.73, 0.135866
5884.4, 0.135234
5891.09, 0.134546
5897.79, 0.133857
5904.5, 0.132996
5911.23, 0.132192
5917.98, 0.131446
5924.75, 0.130528
5931.53, 0.129724
5938.32, 0.128920
5945.13, 0.127945
5951.96, 0.127084
5958.8, 0.126223
5965.65, 0.125304
5972.53, 0.124328
5979.42, 0.123295
5986.32, 0.122434
5993.24, 0.121516
6000.18, 0.120483
6007.13, 0.119507
6014.1, 0.118703
6021.08, 0.117785
6028.09, 0.116809
6035.1, 0.115833
6042.14, 0.115030
6049.19, 0.114398
6056.25, 0.113537
6063.34, 0.112561
6070.44, 0.111873
6077.55, 0.111184
6084.69, 0.110552
6091.84, 0.110093
6099.0, 0.109749
6106.19, 0.109290
6113.39, 0.109175
6120.61, 0.109232
6127.84, 0.109290
6135.09, 0.109404
6142.36, 0.109806
6149.65, 0.110151
6156.95, 0.110552
6164.27, 0.111012
6171.61, 0.111413
6178.97, 0.111815
6186.34, 0.112561
6193.73, 0.113135
6201.14, 0.113365
6208.57, 0.113652
6216.01, 0.113882
6223.47, 0.113824
6230.95, 0.113652
6238.45, 0.113480
6245.97, 0.113193
6253.5, 0.112791
6261.06, 0.112274
6268.63, 0.111586
6276.21, 0.110782
6283.82, 0.109864
6291.45, 0.108888
6299.1, 0.107625
6306.76, 0.106190
6314.44, 0.104755
6322.14, 0.103205
6329.86, 0.101426
6337.6, 0.0998760
6345.35, 0.0983260
6353.13, 0.0965470
6360.92, 0.0947670
6368.74, 0.0929880
6376.57, 0.0912660
6384.43, 0.0896010
6392.3, 0.0879370
6400.19, 0.0863300
6408.1, 0.0847800
6416.03, 0.0833450
6423.98, 0.0817380
6431.95, 0.0804750
6439.94, 0.0792120
6447.95, 0.0780070
6455.98, 0.0769160
6464.03, 0.0758250
6472.1, 0.0749070
6480.19, 0.0740460
6488.31, 0.0733000
6496.44, 0.0726680
6504.59, 0.0720370
6512.76, 0.0714630
6520.95, 0.0708890
6529.16, 0.0704870
6537.4, 0.0701430
6545.65, 0.0700280
6553.92, 0.0698560
6562.22, 0.0696840
6570.54, 0.0697980
6578.88, 0.0699130
6587.23, 0.0699130
6595.61, 0.0700850
6604.02, 0.0703720
6612.44, 0.0707170
6620.89, 0.0709460
6629.35, 0.0712910
6637.84, 0.0718650
6646.35, 0.0724390
6654.88, 0.0728410
6663.44, 0.0733000
6672.01, 0.0738160
6680.61, 0.0745050
6689.23, 0.0751370
6697.88, 0.0755380
6706.54, 0.0760550
6715.23, 0.0768590
6723.94, 0.0776050
6732.67, 0.0782940
6741.42, 0.0788680
6750.2, 0.0794420
6759.0, 0.0800730
6767.82, 0.0805320
6776.67, 0.0808770
6785.54, 0.0811060
6794.44, 0.0813930
6803.35, 0.0817380
6812.29, 0.0820820
6821.26, 0.0822540
6830.24, 0.0822540
6839.25, 0.0820820
6848.29, 0.0816230
6857.35, 0.0811640
6866.43, 0.0807620
6875.54, 0.0805320
6884.67, 0.0807620
6893.82, 0.0815080
6903.0, 0.0828860
6912.2, 0.0844930
6921.43, 0.0858130
6930.69, 0.0865590
6939.96, 0.0865590
6949.27, 0.0861570
6958.59, 0.0854690
6967.95, 0.0847800
6977.33, 0.0840910
6986.73, 0.0836890
6996.16, 0.0835170
7005.61, 0.0838610
7015.09, 0.0847220
7024.6, 0.0859850
7034.13, 0.0874780
7043.69, 0.0891420
7053.27, 0.0907490
7062.88, 0.0924710
7072.52, 0.0943660
7082.18, 0.0961450
7091.87, 0.0978100
7101.58, 0.0995320
7111.32, 0.101311
7121.09, 0.102976
7130.88, 0.104525
7140.71, 0.105960
7150.56, 0.107338
7160.43, 0.108601
7170.33, 0.109921
7180.27, 0.111012
7190.23, 0.112045
7200.21, 0.113308
7210.23, 0.114628
7220.27, 0.115776
7230.34, 0.116924
7240.44, 0.117842
7250.56, 0.118875
7260.72, 0.119679
7270.9, 0.120368
7281.12, 0.120999
7291.36, 0.121573
7301.63, 0.122032
7311.93, 0.122549
7322.25, 0.122779
7332.61, 0.123066
7343.0, 0.123238
7353.41, 0.123353
7363.86, 0.123410
7374.33, 0.123467
7384.83, 0.123467
7395.37, 0.123525
7405.93, 0.123582
7416.53, 0.123582
7427.15, 0.123525
7437.81, 0.123353
7448.5, 0.123123
7459.22, 0.122951
7469.96, 0.122606
7480.74, 0.122319
7491.55, 0.121975
7502.39, 0.121573
7513.27, 0.121114
7524.17, 0.120712
7535.11, 0.120310
7546.08, 0.119736
7557.08, 0.119220
7568.11, 0.118646
7579.17, 0.118014
7590.27, 0.117268
7601.4, 0.116579
7612.56, 0.115948
7623.76, 0.115202
7634.98, 0.114456
7646.24, 0.113882
7657.54, 0.113193
7668.87, 0.112447
7680.23, 0.111758
7691.62, 0.110954
7703.05, 0.110036
7714.51, 0.109290
7726.01, 0.108371
7737.54, 0.107395
7749.11, 0.106420
7760.71, 0.105386
7772.35, 0.104468
7784.02, 0.103492
7795.72, 0.102459
7807.46, 0.101483
7819.23, 0.100622
7831.04, 0.0997040
7842.89, 0.0987850
7854.77, 0.0979240
7866.69, 0.0972360
7878.65, 0.0965470
7890.64, 0.0959730
7902.67, 0.0953990
7914.74, 0.0948820
7926.84, 0.0943080
7938.98, 0.0936770
7951.16, 0.0932750
7963.37, 0.0928730
7975.62, 0.0924140
7987.91, 0.0919550
8000.24, 0.0914380
8012.6, 0.0908070
8025.01, 0.0902900
8037.45, 0.0896590
8049.93, 0.0890270
8062.45, 0.0883390
8075.01, 0.0875920
8087.61, 0.0869610
8100.24, 0.0861000
8112.91, 0.0851820
8125.63, 0.0843210
8138.39, 0.0833450
8151.18, 0.0823690
8164.02, 0.0812780
8176.9, 0.0801880
8189.81, 0.0790970
8202.77, 0.0780640
8215.77, 0.0769160
8228.82, 0.0757110
8241.9, 0.0746770
8255.02, 0.0736440
8268.19, 0.0726680
8281.39, 0.0715780
8294.65, 0.0703720
8307.94, 0.0692820
8321.28, 0.0683630
8334.66, 0.0674450
8348.08, 0.0665840
8361.54, 0.0658380
8375.05, 0.0649770
8388.6, 0.0641730
8402.2, 0.0634270
8415.84, 0.0626810
8429.52, 0.0619350
8443.25, 0.0611310
8457.02, 0.0605570
8470.84, 0.0598110
8484.7, 0.0591220
8498.61, 0.0587200
8512.57, 0.0584330
8526.57, 0.0579740
8540.62, 0.0572850
8554.71, 0.0566540
8568.85, 0.0561370
8583.04, 0.0557350
8597.27, 0.0552190
8611.55, 0.0547600
8625.88, 0.0546450
8640.26, 0.0548170
8654.68, 0.0548170
8669.16, 0.0548170
8683.68, 0.0545870
8698.25, 0.0542430
8712.87, 0.0540710
8727.53, 0.0540130
8742.25, 0.0539560
8757.02, 0.0538990
8771.83, 0.0537260
8786.7, 0.0538410
8801.62, 0.0538990
8816.59, 0.0539560
8831.61, 0.0539560
8846.68, 0.0541280
8861.8, 0.0541860
8876.97, 0.0540710
8892.2, 0.0540130
8907.48, 0.0540710
8922.81, 0.0540130
8938.2, 0.0538410
8953.63, 0.0535540
8969.13, 0.0530950
8984.67, 0.0526360
9000.27, 0.0520040
9015.92, 0.0513160
9031.63, 0.0509710
9047.39, 0.0505690
9063.21, 0.0501100
9079.08, 0.0495360
9095.01, 0.0491340
9111.0, 0.0489620
9127.04, 0.0485030
9143.13, 0.0478720
9159.28, 0.0471250
9175.49, 0.0462640
9191.76, 0.0454030
9208.09, 0.0452310
9224.47, 0.0457480
9240.92, 0.0466660
9257.42, 0.0472400
9273.98, 0.0475270
9290.6, 0.0478140
9307.28, 0.0479290
9324.02, 0.0479860
9340.82, 0.0483310
9357.68, 0.0484460
9374.6, 0.0482730
9391.58, 0.0484460
9408.62, 0.0485030
9425.73, 0.0486750
9442.9, 0.0487330
9460.13, 0.0487900
9477.42, 0.0486750
9494.78, 0.0487330
9512.2, 0.0490200
9529.69, 0.0490200
9547.24, 0.0491920
9564.86, 0.0495360
9582.54, 0.0494790
9600.28, 0.0494210
9618.1, 0.0490200
9635.97, 0.0484460
9653.92, 0.0477570
9671.93, 0.0471250
9690.01, 0.0464370
9708.16, 0.0455180
9726.37, 0.0449440
9744.65, 0.0446000
9763.0, 0.0440260
9781.43, 0.0436810
9799.92, 0.0433940
9818.48, 0.0429930
9837.1, 0.0427630
9855.8, 0.0425910
9874.58, 0.0425330
9893.42, 0.0424760
9912.34, 0.0422460
9931.33, 0.0419590
9950.39, 0.0419590
9969.52, 0.0418450
9988.74, 0.0415580
10008.0, 0.0415000
10027.4, 0.0414430
10046.8, 0.0413850
10066.3, 0.0413850
10085.9, 0.0415000
10105.6, 0.0413280
10125.3, 0.0410410
10145.1, 0.0406970
10165.0, 0.0404670
10185.0, 0.0402370
10205.0, 0.0399500
10225.2, 0.0398360
10245.4, 0.0395490
10265.7, 0.0392040
10286.0, 0.0388600
10306.5, 0.0385730
10327.0, 0.0381710
10347.6, 0.0377690
10368.3, 0.0375970
10389.1, 0.0374250
10409.9, 0.0374250
10430.9, 0.0373100
10451.9, 0.0370230
10473.0, 0.0367930
10494.2, 0.0366210
10515.5, 0.0364490
10536.9, 0.0362190
10558.4, 0.0359320
10579.9, 0.0357600
10601.5, 0.0355310
10623.3, 0.0353010
10645.1, 0.0351290
10667.0, 0.0348990
10689.0, 0.0346120
10711.1, 0.0344400
10733.2, 0.0343250
10755.5, 0.0340960
10777.9, 0.0339230
10800.3, 0.0338660
10822.9, 0.0336360
10845.5, 0.0334070
10868.2, 0.0332350
10891.1, 0.0331200
10914.0, 0.0331200
10937.0, 0.0332920
10960.2, 0.0332920
10983.4, 0.0330620
11006.7, 0.0330050
11030.1, 0.0328330
11053.6, 0.0326030
11077.3, 0.0325460
11101.0, 0.0324880
11124.8, 0.0324880
11148.7, 0.0324310
11172.7, 0.0323160
11196.9, 0.0320290
11221.1, 0.0319140
11245.4, 0.0318570
11269.9, 0.0316850
11294.4, 0.0317420
11319.1, 0.0318570
11343.9, 0.0316850
11368.8, 0.0313980
11393.7, 0.0309960
11418.8, 0.0308240
11444.0, 0.0308810
11469.4, 0.0308240
11494.8, 0.0304790
11520.3, 0.0302500
11546.0, 0.0300200
11571.8, 0.0298480
11597.7, 0.0296180
11623.7, 0.0293890
11649.8, 0.0291020
11676.0, 0.0289300
11702.4, 0.0285850
11728.9, 0.0283560
11755.5, 0.0280110
11782.2, 0.0277240
11809.0, 0.0277820
11836.0, 0.0280690
11863.0, 0.0277820
11890.3, 0.0273220
11917.6, 0.0269210
11945.0, 0.0265760
11972.6, 0.0266910
12000.4, 0.0268630
12028.2, 0.0264610
12056.2, 0.0260020
12084.3, 0.0257150
12112.5, 0.0253130
12140.9, 0.0247390
12169.4, 0.0242800
12198.0, 0.0242230
12226.8, 0.0239930
12255.7, 0.0238210
12284.7, 0.0239360
12313.9, 0.0235910
12343.2, 0.0231900
12372.7, 0.0228450
12402.3, 0.0225010
12432.0, 0.0223290
12461.9, 0.0222140
12491.9, 0.0216970
12522.1, 0.0214100
12552.4, 0.0211810
12582.9, 0.0209510
12613.5, 0.0206640
12644.3, 0.0206640
12675.2, 0.0204340
12706.3, 0.0201470
12737.5, 0.0197460
12768.9, 0.0193440
12800.4, 0.0188270
12832.1, 0.0184830
12863.9, 0.0184250
12895.9, 0.0177940
12928.1, 0.0170480
12960.4, 0.0168180
12992.9, 0.0165310
13025.5, 0.0163020
13058.3, 0.0160720
13091.3, 0.0158420
13124.4, 0.0154410
13157.8, 0.0148670
13191.2, 0.0141200
13224.9, 0.0136040
13258.7, 0.0130870
13292.7, 0.0129720
13326.9, 0.0126280
13361.2, 0.0119970
13395.7, 0.0115950
13430.4, 0.0112500
13465.3, 0.0105040
13500.4, 0.00981500
13535.7, 0.00958600
13571.1, 0.00947100
13606.7, 0.00912700
13642.5, 0.00884000
13678.5, 0.00843800
13714.7, 0.00803600
13751.1, 0.00763400
13787.6, 0.00740500
13824.4, 0.00723200
13861.4, 0.00683100
13898.5, 0.00648600
13935.9, 0.00608400
13973.5, 0.00568300
14011.2, 0.00528100
14049.2, 0.00533800
14087.4, 0.00516600
14125.8, 0.00464900
14164.3, 0.00447700
14203.2, 0.00407500
14242.2, 0.00419000
14281.4, 0.00442000
14320.9, 0.00419000
14360.5, 0.00419000
14400.4, 0.00464900
14440.5, 0.00505100
14480.9, 0.00533800
14521.4, 0.00585500
14562.2, 0.00688800
14603.3, 0.00757700
14644.5, 0.00895400
14686.0, 0.0109060
14727.7, 0.0132590
14769.7, 0.0163020
14811.9, 0.0203200
14854.3, 0.0251990
14897.0, 0.0310530
14939.9, 0.0382280
14983.1, 0.0465510
15026.5, 0.0554480
15070.2, 0.0656080
15114.2, 0.0773180
15158.3, 0.0894290
15202.8, 0.102000
15247.5, 0.114169
15292.5, 0.124960
15337.7, 0.135062
15383.2, 0.143500
15429.0, 0.150273
15475.1, 0.156185
15521.4, 0.160777
15568.0, 0.163877
15614.9, 0.166517
15662.1, 0.169387
15709.6, 0.171856
15757.3, 0.174037
15805.4, 0.176161
15853.7, 0.178284
15902.3, 0.181097
15951.2, 0.183910
16000.5, 0.186665
16050.0, 0.189764
16099.8, 0.193151
16150.0, 0.196308
16200.5, 0.199235
16251.3, 0.202048
16302.4, 0.204516
16353.8, 0.206525
16405.5, 0.208649
16457.6, 0.210888
16510.0, 0.212782
16562.8, 0.215365
16615.9, 0.217890
16669.3, 0.219153
16723.1, 0.219899
16777.2, 0.221449
16831.7, 0.223229
16886.5, 0.224721
16941.7, 0.225984
16997.2, 0.227935
17053.1, 0.230059
17109.4, 0.232527
17166.1, 0.235455
17223.1, 0.238554
17280.5, 0.241884
17338.3, 0.245155
17396.5, 0.247222
17455.1, 0.249173
17514.0, 0.250838
17573.4, 0.252216
17633.2, 0.253306
17693.4, 0.254626
17754.0, 0.255717
17815.0, 0.257209
17876.4, 0.258587
17938.3, 0.259965
18000.5, 0.261342
18063.3, 0.262720
18126.4, 0.264097
18190.0, 0.264557
18254.1, 0.263925
18318.6, 0.263581
18383.5, 0.263007
18449.0, 0.261687
18514.9, 0.259850
18581.2, 0.257898
18648.0, 0.255947
18715.4, 0.251584
18783.2, 0.245729
18851.5, 0.240965
18920.3, 0.234594
18989.6, 0.226730
19059.4, 0.218751
19129.7, 0.209395
19200.6, 0.197399
19272.0, 0.185804
19343.9, 0.172487
19416.3, 0.158137
19489.3, 0.144705
19562.8, 0.131446
19637.0, 0.120023
19711.6, 0.109290
19786.8, 0.0984980
19862.6, 0.0912090
19939.0, 0.0861000
20016.0, 0.0821970
20093.6, 0.0827710
20171.8, 0.0906350
20250.6, 0.105099
20330.0, 0.121573
20410.0, 0.137932
20490.7, 0.154062
20572.0, 0.169100
20654.0, 0.180982
20736.6, 0.189420
20819.9, 0.196365
20903.8, 0.201991
20988.5, 0.205779
21073.8, 0.208649
21159.8, 0.211519
21246.5, 0.212839
21334.0, 0.212897
21422.1, 0.212323
21511.0, 0.210715
21600.7, 0.208075
21691.0, 0.206123
21782.1, 0.204401
21874.0, 0.202565
21966.7, 0.199006
22060.2, 0.196882
22154.5, 0.194758
22249.6, 0.193208
22345.5, 0.190798
22442.2, 0.187124
22539.8, 0.183967
22638.2, 0.182360
22737.5, 0.179684
22837.7, 0.175929
22938.7, 0.170103
23040.7, 0.161196
23143.5, 0.153025
23247.3, 0.144846
23352.1, 0.137280
23457.7, 0.129645
23564.4, 0.122366
23672.0, 0.117060
23780.5, 0.111033
23890.1, 0.104043
24000.7, 0.0998040
24112.3, 0.0979930
24225.0, 0.0942830
24338.7, 0.0915540
24453.5, 0.0921310
24569.4, 0.0942660
24686.4, 0.0980790
24804.5, 0.103512
24923.8, 0.108206
25044.2, 0.109781
25165.8, 0.111516
25288.6, 0.114120
25412.5, 0.114022
25537.7, 0.114166
25664.1, 0.111634
25791.8, 0.106940
25920.8, 0.102599
26051.1, 0.0973960
26182.6, 0.0906700
26315.5, 0.0841620
26449.8, 0.0767900
26585.4, 0.0701180
26722.5, 0.0633260
26860.9, 0.0600970
27000.8, 0.0655200
27142.1, 0.0804260
27285.0, 0.104463
27429.4, 0.134877
27575.3, 0.162922
27722.7, 0.186086
27871.8, 0.204575
28022.4, 0.222303
28174.7, 0.238826
28328.7, 0.253055
28484.4, 0.264057
28641.7, 0.276105
28800.9, 0.288705
28961.8, 0.298890
29124.5, 0.308555
29289.0, 0.318200
29455.4, 0.326900
29623.8, 0.334283
29794.0, 0.338998
29966.3, 0.344508
30140.5, 0.350524
30316.7, 0.355933
30495.1, 0.362752
30675.5, 0.367840
30858.1, 0.373352
31042.8, 0.377676
31229.8, 0.380584
31419.1, 0.385094
31610.7, 0.389300
31804.6, 0.393769
32000.9, 0.397183
32199.7, 0.400913
32400.9, 0.404621
32604.8, 0.407983
32811.1, 0.408806
33020.1, 0.409932
33231.8, 0.405246
33446.2, 0.397478
33663.4, 0.387507
33883.4, 0.374096
34106.3, 0.356050
34332.1, 0.338035
34561.0, 0.317865
34792.9, 0.299844
35028.0, 0.285739
35266.3, 0.272127
35507.8, 0.260086
35752.7, 0.253457
36001.0, 0.244579
36252.8, 0.237973
36508.1, 0.232279
36767.0, 0.224249
37029.7, 0.219993
37296.1, 0.216634
37566.3, 0.212498
37840.5, 0.207924
38118.8, 0.205303
38401.2, 0.203902
38687.8, 0.201694
38978.6, 0.199723
39273.9, 0.197961
39573.7, 0.193107
39878.1, 0.188870
40187.3, 0.185236
40501.2, 0.182888
40820.0, 0.181784
41144.0, 0.177093
41473.2, 0.170474
41807.6, 0.166147
42147.5, 0.165740
42493.0, 0.173881
42844.2, 0.185367
43201.2, 0.189134
43564.3, 0.187129
43933.5, 0.184122
44309.0, 0.181693
44691.0, 0.180244
45079.6, 0.175032
45475.0, 0.171180
45877.5, 0.168887
46287.1, 0.169494
46704.2, 0.168756
47128.7, 0.166783
47561.1, 0.167090
48001.5, 0.167924
48450.1, 0.166126
48907.2, 0.163942
49373.0, 0.157693
49847.7, 0.155829
50331.5, 0.157915
50825.0, 0.158132
51328.2, 0.157866
51841.5, 0.156649
52365.1, 0.154824
52899.4, 0.152470
53444.8, 0.149765
54001.5, 0.150412
54570.1, 0.151996
55150.6, 0.151772
55743.6, 0.149361
56349.5, 0.150326
56968.7, 0.149971
57601.7, 0.148591
58248.9, 0.148299
58910.9, 0.147701
59588.1, 0.149439
60281.0, 0.147533
60990.2, 0.144230
61716.3, 0.142995
62459.8, 0.142581
63221.6, 0.146537
64002.1, 0.147671
64802.1, 0.139244
65622.1, 0.136689
66463.4, 0.146570
67326.6, 0.146296
68212.4, 0.138769
69121.9, 0.136404
70056.0, 0.134214
71015.7, 0.130818
72002.0, 0.132981
73016.3, 0.137289
74059.4, 0.140729
75132.7, 0.134118
76237.6, 0.128092
77375.5, 0.132997
78547.9, 0.144938
79756.3, 0.137228
81002.5, 0.134603
82288.5, 0.145917
83615.7, 0.145312
84986.5, 0.135210
86402.9, 0.130484
87867.4, 0.132407
89382.4, 0.139231
90950.5, 0.137697
92574.6, 0.127816
94257.2, 0.124145
96002.7, 0.124460
97814.1, 0.131953
99695.1, 0.125871
101650.0, 0.125233
103683.0, 0.133728
105799.0, 0.145033
108003.0, 0.149396
110301.0, 0.132294
112699.0, 0.119601
115204.0, 0.132521
117822.0, 0.155339
120562.0, 0.156901
123433.0, 0.148998
126443.0, 0.156455
129604.0, 0.151508
132926.0, 0.147317
136424.0, 0.169905
140111.0, 0.141642
144003.0, 0.144797
148118.0, 0.189865
152474.0, 0.195955
157095.0, 0.145689
162004.0, 0.135841
167231.0, 0.143805
172805.0, 0.184035
178764.0, 0.291684
185148.0, 0.368218
192005.0, 0.229854
199390.0, 0.200717
207366.0, 0.200861
216006.0, 0.200861
