Database of Origin,USGS Spectral Database
Sample Description,See USGS database for additional info
Date Added,2017-02-22 02:49:15.686167

Data ID,USGS_thu09          
Sample ID,thuringite_smr15.21983
Mineral Name,thuringite

Wavelength
1374.38, 0.216502
1374.74, 0.216502
1375.11, 0.216714
1375.47, 0.216661
1375.84, 0.216793
1376.2, 0.216952
1376.57, 0.217110
1376.93, 0.217163
1377.3, 0.217322
1377.67, 0.217295
1378.03, 0.217375
1378.4, 0.217322
1378.76, 0.217216
1379.13, 0.217533
1379.5, 0.217824
1379.87, 0.217692
1380.23, 0.217850
1380.6, 0.217956
1380.97, 0.217903
1381.34, 0.217983
1381.7, 0.218168
1382.07, 0.218168
1382.44, 0.218035
1382.81, 0.218062
1383.18, 0.218273
1383.55, 0.218300
1383.92, 0.218353
1384.29, 0.218406
1384.66, 0.218168
1385.03, 0.218194
1385.4, 0.218353
1385.77, 0.218511
1386.14, 0.218326
1386.51, 0.218564
1386.88, 0.218908
1387.25, 0.219040
1387.62, 0.218961
1387.99, 0.218829
1388.36, 0.218696
1388.74, 0.218670
1389.11, 0.218696
1389.48, 0.218855
1389.85, 0.218934
1390.23, 0.219014
1390.6, 0.218987
1390.97, 0.218749
1391.35, 0.218591
1391.72, 0.218749
1392.09, 0.218670
1392.47, 0.218749
1392.84, 0.218723
1393.21, 0.218696
1393.59, 0.218538
1393.96, 0.218353
1394.34, 0.218062
1394.71, 0.217983
1395.09, 0.218221
1395.46, 0.218168
1395.84, 0.217956
1396.22, 0.217718
1396.59, 0.217850
1396.97, 0.217798
1397.35, 0.217560
1397.72, 0.217665
1398.1, 0.217612
1398.48, 0.217560
1398.85, 0.217322
1399.23, 0.217057
1399.61, 0.217084
1399.99, 0.217057
1400.37, 0.216899
1400.74, 0.216608
1401.12, 0.216423
1401.5, 0.216053
1401.88, 0.215471
1402.26, 0.215022
1402.64, 0.214651
1403.02, 0.214387
1403.4, 0.214202
1403.78, 0.213964
1404.16, 0.213435
1404.54, 0.212906
1404.92, 0.212642
1405.3, 0.212589
1405.68, 0.212589
1406.06, 0.212351
1406.44, 0.211928
1406.83, 0.211637
1407.21, 0.211611
1407.59, 0.211690
1407.97, 0.211743
1408.35, 0.211585
1408.74, 0.211505
1409.12, 0.211267
1409.5, 0.211294
1409.89, 0.211162
1410.27, 0.210924
1410.65, 0.210739
1411.04, 0.210553
1411.42, 0.210183
1411.81, 0.209972
1412.19, 0.209840
1412.58, 0.209390
1412.96, 0.209046
1413.35, 0.208994
1413.73, 0.208835
1414.12, 0.208861
1414.5, 0.209099
1414.89, 0.209522
1415.28, 0.209972
1415.66, 0.210474
1416.05, 0.211029
1416.44, 0.211585
1416.82, 0.212034
1417.21, 0.212669
1417.6, 0.213197
1417.98, 0.213673
1418.37, 0.214096
1418.76, 0.214704
1419.15, 0.215127
1419.54, 0.215445
1419.93, 0.215920
1420.32, 0.216581
1420.71, 0.216899
1421.09, 0.217031
1421.48, 0.217295
1421.88, 0.217612
1422.27, 0.217903
1422.66, 0.218035
1423.05, 0.217983
1423.44, 0.218168
1423.83, 0.218353
1424.22, 0.218591
1424.61, 0.218776
1425.0, 0.218829
1425.39, 0.219014
1425.78, 0.219067
1426.18, 0.219199
1426.57, 0.219305
1426.96, 0.219357
1427.36, 0.219463
1427.75, 0.219701
1428.14, 0.219648
1428.54, 0.219780
1428.93, 0.219913
1429.32, 0.219780
1429.72, 0.219728
1430.11, 0.219728
1430.51, 0.219833
1430.9, 0.219860
1431.3, 0.219886
1431.69, 0.219860
1432.09, 0.220071
1432.48, 0.220098
1432.88, 0.220098
1433.28, 0.220124
1433.67, 0.220045
1434.07, 0.219833
1434.46, 0.219886
1434.86, 0.220098
1435.26, 0.220098
1435.66, 0.220177
1436.05, 0.220283
1436.45, 0.220177
1436.85, 0.220203
1437.25, 0.220230
1437.65, 0.220098
1438.05, 0.219965
1438.44, 0.220018
1438.84, 0.220151
1439.24, 0.220203
1439.64, 0.220256
1440.04, 0.220547
1440.44, 0.220574
1440.84, 0.220388
1441.24, 0.220336
1441.65, 0.220336
1442.05, 0.220415
1442.45, 0.220600
1442.85, 0.220706
1443.25, 0.220653
1443.65, 0.220574
1444.05, 0.220679
1444.46, 0.220706
1444.86, 0.220679
1445.26, 0.220732
1445.67, 0.220732
1446.07, 0.220706
1446.47, 0.220679
1446.88, 0.220706
1447.28, 0.220891
1447.68, 0.221023
1448.09, 0.221129
1448.49, 0.221182
1448.9, 0.221208
1449.3, 0.221076
1449.71, 0.220997
1450.11, 0.221102
1450.52, 0.221446
1450.93, 0.221552
1451.33, 0.221578
1451.74, 0.221631
1452.14, 0.221657
1452.55, 0.221552
1452.96, 0.221737
1453.36, 0.221869
1453.77, 0.221895
1454.18, 0.221922
1454.59, 0.222001
1455.0, 0.222081
1455.41, 0.222054
1455.81, 0.221948
1456.22, 0.221975
1456.63, 0.222186
1457.04, 0.222371
1457.45, 0.222556
1457.86, 0.222583
1458.27, 0.222451
1458.68, 0.222609
1459.09, 0.222715
1459.5, 0.222662
1459.91, 0.222662
1460.32, 0.222689
1460.74, 0.222794
1461.15, 0.222741
1461.56, 0.222741
1461.97, 0.222794
1462.39, 0.222847
1462.8, 0.222874
1463.21, 0.222979
1463.62, 0.223217
1464.04, 0.223164
1464.45, 0.223191
1464.86, 0.223402
1465.28, 0.223561
1465.69, 0.223587
1466.11, 0.223561
1466.52, 0.223587
1466.94, 0.223587
1467.35, 0.223614
1467.77, 0.223693
1468.18, 0.223640
1468.6, 0.223746
1469.02, 0.223958
1469.43, 0.223984
1469.85, 0.224196
1470.27, 0.224196
1470.68, 0.224248
1471.1, 0.224248
1471.52, 0.224275
1471.94, 0.224248
1472.35, 0.224513
1472.77, 0.224698
1473.19, 0.224698
1473.61, 0.224539
1474.03, 0.224513
1474.45, 0.224777
1474.87, 0.224909
1475.29, 0.225042
1475.71, 0.224989
1476.13, 0.225015
1476.55, 0.225147
1476.97, 0.225280
1477.39, 0.225332
1477.81, 0.225517
1478.23, 0.225491
1478.65, 0.225517
1479.07, 0.225570
1479.5, 0.225597
1479.92, 0.225650
1480.34, 0.225782
1480.76, 0.226046
1481.19, 0.226126
1481.61, 0.226073
1482.03, 0.226073
1482.46, 0.226126
1482.88, 0.226337
1483.31, 0.226443
1483.73, 0.226549
1484.16, 0.226601
1484.58, 0.226628
1485.01, 0.226787
1485.43, 0.226945
1485.86, 0.226972
1486.28, 0.226919
1486.71, 0.227051
1487.14, 0.227157
1487.56, 0.227104
1487.99, 0.227130
1488.42, 0.227289
1488.84, 0.227368
1489.27, 0.227421
1489.7, 0.227606
1490.13, 0.227685
1490.56, 0.227712
1490.98, 0.227870
1491.41, 0.227870
1491.84, 0.228029
1492.27, 0.228082
1492.7, 0.228082
1493.13, 0.228188
1493.56, 0.228294
1493.99, 0.228294
1494.42, 0.228320
1494.85, 0.228531
1495.29, 0.228611
1495.72, 0.228611
1496.15, 0.228690
1496.58, 0.228822
1497.01, 0.228875
1497.44, 0.228902
1497.88, 0.228954
1498.31, 0.229060
1498.74, 0.229087
1499.18, 0.229192
1499.61, 0.229377
1500.04, 0.229404
1500.48, 0.229589
1500.91, 0.229774
1501.35, 0.229800
1501.78, 0.229933
1502.22, 0.229880
1502.65, 0.229986
1503.09, 0.230012
1503.53, 0.230144
1503.96, 0.230356
1504.4, 0.230409
1504.83, 0.230303
1505.27, 0.230303
1505.71, 0.230488
1506.15, 0.230673
1506.58, 0.230699
1507.02, 0.230832
1507.46, 0.230832
1507.9, 0.230752
1508.34, 0.230964
1508.78, 0.231228
1509.21, 0.231202
1509.66, 0.231175
1510.09, 0.231228
1510.53, 0.231360
1510.97, 0.231466
1511.42, 0.231572
1511.86, 0.231704
1512.3, 0.231836
1512.74, 0.231889
1513.18, 0.231916
1513.62, 0.231995
1514.06, 0.232048
1514.51, 0.232127
1514.95, 0.232127
1515.39, 0.232180
1515.83, 0.232312
1516.28, 0.232206
1516.72, 0.232471
1517.16, 0.232656
1517.61, 0.232629
1518.05, 0.232788
1518.5, 0.232867
1518.94, 0.232894
1519.39, 0.232973
1519.83, 0.233079
1520.28, 0.233185
1520.73, 0.233237
1521.17, 0.233396
1521.62, 0.233396
1522.07, 0.233343
1522.51, 0.233317
1522.96, 0.233475
1523.41, 0.233555
1523.85, 0.233687
1524.3, 0.233766
1524.75, 0.233713
1525.2, 0.233819
1525.65, 0.233898
1526.1, 0.234031
1526.55, 0.234189
1527.0, 0.234242
1527.45, 0.234269
1527.9, 0.234401
1528.35, 0.234533
1528.8, 0.234559
1529.25, 0.234639
1529.7, 0.234877
1530.15, 0.234982
1530.6, 0.234877
1531.05, 0.234824
1531.51, 0.234929
1531.96, 0.235062
1532.41, 0.235088
1532.87, 0.235141
1533.32, 0.235247
1533.77, 0.235326
1534.23, 0.235405
1534.68, 0.235538
1535.14, 0.235749
1535.59, 0.235855
1536.05, 0.235934
1536.5, 0.236013
1536.96, 0.236172
1537.41, 0.236251
1537.87, 0.236304
1538.32, 0.236410
1538.78, 0.236463
1539.24, 0.236648
1539.7, 0.236754
1540.15, 0.236727
1540.61, 0.236859
1541.07, 0.236833
1541.53, 0.236912
1541.98, 0.237044
1542.44, 0.237044
1542.9, 0.237256
1543.36, 0.237362
1543.82, 0.237547
1544.28, 0.237679
1544.74, 0.237732
1545.2, 0.237891
1545.66, 0.237917
1546.12, 0.237891
1546.59, 0.237970
1547.05, 0.238128
1547.51, 0.238393
1547.97, 0.238631
1548.43, 0.238684
1548.9, 0.238631
1549.36, 0.238789
1549.82, 0.239027
1550.29, 0.239107
1550.75, 0.239265
1551.21, 0.239265
1551.68, 0.239318
1552.14, 0.239371
1552.61, 0.239450
1553.07, 0.239503
1553.54, 0.239662
1554.0, 0.239821
1554.47, 0.239847
1554.93, 0.239979
1555.4, 0.240191
1555.87, 0.240244
1556.34, 0.240296
1556.8, 0.240429
1557.27, 0.240481
1557.74, 0.240561
1558.21, 0.240825
1558.68, 0.240957
1559.14, 0.241063
1559.61, 0.241248
1560.08, 0.241301
1560.55, 0.241380
1561.02, 0.241380
1561.49, 0.241565
1561.96, 0.241724
1562.43, 0.241777
1562.9, 0.241830
1563.38, 0.241936
1563.85, 0.242094
1564.32, 0.242253
1564.79, 0.242359
1565.26, 0.242676
1565.74, 0.242702
1566.21, 0.242755
1566.68, 0.242861
1567.16, 0.242967
1567.63, 0.243072
1568.1, 0.243257
1568.58, 0.243469
1569.05, 0.243628
1569.53, 0.243654
1570.0, 0.243681
1570.48, 0.243786
1570.96, 0.243892
1571.43, 0.244024
1571.91, 0.244024
1572.39, 0.244051
1572.86, 0.244315
1573.34, 0.244685
1573.82, 0.244738
1574.3, 0.244764
1574.77, 0.244844
1575.25, 0.244923
1575.73, 0.245187
1576.21, 0.245293
1576.69, 0.245346
1577.17, 0.245478
1577.65, 0.245584
1578.13, 0.245663
1578.61, 0.245743
1579.09, 0.245848
1579.57, 0.245928
1580.05, 0.246192
1580.54, 0.246377
1581.02, 0.246377
1581.5, 0.246324
1581.98, 0.246430
1582.47, 0.246615
1582.95, 0.246774
1583.43, 0.246853
1583.92, 0.247012
1584.4, 0.247117
1584.88, 0.247250
1585.37, 0.247355
1585.85, 0.247408
1586.34, 0.247620
1586.82, 0.247646
1587.31, 0.247778
1587.8, 0.247911
1588.28, 0.248016
1588.77, 0.248096
1589.26, 0.248175
1589.74, 0.248254
1590.23, 0.248439
1590.72, 0.248651
1591.21, 0.248810
1591.7, 0.248995
1592.19, 0.249127
1592.67, 0.249100
1593.16, 0.249259
1593.65, 0.249391
1594.14, 0.249470
1594.63, 0.249629
1595.12, 0.249814
1595.61, 0.249814
1596.11, 0.249920
1596.6, 0.250026
1597.09, 0.250184
1597.58, 0.250396
1598.08, 0.250502
1598.57, 0.250502
1599.06, 0.250554
1599.55, 0.250739
1600.05, 0.250872
1600.54, 0.250925
1601.04, 0.251057
1601.53, 0.251162
1602.03, 0.251374
1602.52, 0.251506
1603.02, 0.251638
1603.51, 0.251665
1604.01, 0.251771
1604.5, 0.251850
1605.0, 0.252141
1605.5, 0.252379
1606.0, 0.252484
1606.49, 0.252564
1606.99, 0.252617
1607.49, 0.252669
1607.99, 0.252775
1608.49, 0.252960
1608.99, 0.253225
1609.49, 0.253278
1609.99, 0.253357
1610.49, 0.253436
1610.99, 0.253542
1611.49, 0.253780
1611.99, 0.254018
1612.49, 0.253938
1612.99, 0.254071
1613.49, 0.254282
1614.0, 0.254388
1614.5, 0.254494
1615.0, 0.254626
1615.51, 0.254785
1616.01, 0.254943
1616.51, 0.255128
1617.02, 0.255234
1617.52, 0.255419
1618.03, 0.255472
1618.53, 0.255472
1619.04, 0.255736
1619.54, 0.255948
1620.05, 0.256027
1620.55, 0.256080
1621.06, 0.256186
1621.57, 0.256371
1622.08, 0.256450
1622.58, 0.256688
1623.09, 0.256794
1623.6, 0.256900
1624.11, 0.256979
1624.62, 0.257138
1625.13, 0.257349
1625.64, 0.257402
1626.15, 0.257561
1626.66, 0.257772
1627.17, 0.257878
1627.68, 0.257957
1628.19, 0.257984
1628.7, 0.258063
1629.21, 0.258327
1629.72, 0.258354
1630.24, 0.258407
1630.75, 0.258750
1631.26, 0.258988
1631.78, 0.259094
1632.29, 0.259200
1632.8, 0.259305
1633.32, 0.259491
1633.83, 0.259543
1634.35, 0.259702
1634.86, 0.259861
1635.38, 0.259914
1635.9, 0.260072
1636.41, 0.260310
1636.93, 0.260389
1637.45, 0.260495
1637.96, 0.260574
1638.48, 0.260601
1639.0, 0.260839
1639.52, 0.260998
1640.04, 0.261130
1640.56, 0.261288
1641.08, 0.261368
1641.59, 0.261500
1642.11, 0.261658
1642.63, 0.261791
1643.16, 0.261844
1643.68, 0.262029
1644.2, 0.262267
1644.72, 0.262267
1645.24, 0.262240
1645.76, 0.262372
1646.29, 0.262478
1646.81, 0.262610
1647.33, 0.262795
1647.86, 0.262954
1648.38, 0.263113
1648.9, 0.263271
1649.43, 0.263403
1649.95, 0.263430
1650.48, 0.263509
1651.0, 0.263588
1651.53, 0.263721
1652.06, 0.263932
1652.58, 0.263985
1653.11, 0.264144
1653.64, 0.264249
1654.17, 0.264329
1654.69, 0.264382
1655.22, 0.264567
1655.75, 0.264805
1656.28, 0.265016
1656.81, 0.265043
1657.34, 0.265069
1657.87, 0.265069
1658.4, 0.265122
1658.93, 0.265386
1659.46, 0.265439
1659.99, 0.265518
1660.52, 0.265703
1661.05, 0.265783
1661.59, 0.265783
1662.12, 0.265941
1662.65, 0.266179
1663.19, 0.266259
1663.72, 0.266259
1664.26, 0.266391
1664.79, 0.266576
1665.32, 0.266840
1665.86, 0.267131
1666.39, 0.267078
1666.93, 0.267078
1667.47, 0.267105
1668.0, 0.267316
1668.54, 0.267475
1669.08, 0.267633
1669.61, 0.267660
1670.15, 0.267713
1670.69, 0.267739
1671.23, 0.267898
1671.77, 0.268189
1672.31, 0.268268
1672.85, 0.268347
1673.39, 0.268612
1673.93, 0.268665
1674.47, 0.268612
1675.01, 0.268691
1675.55, 0.268876
1676.09, 0.269088
1676.64, 0.269167
1677.18, 0.269352
1677.72, 0.269537
1678.26, 0.269511
1678.81, 0.269511
1679.35, 0.269643
1679.89, 0.269801
1680.44, 0.269907
1680.98, 0.270039
1681.53, 0.270224
1682.07, 0.270330
1682.62, 0.270383
1683.17, 0.270462
1683.71, 0.270462
1684.26, 0.270621
1684.81, 0.270727
1685.36, 0.270938
1685.9, 0.271018
1686.45, 0.271150
1687.0, 0.271335
1687.55, 0.271441
1688.1, 0.271520
1688.65, 0.271678
1689.2, 0.271784
1689.75, 0.271864
1690.3, 0.272101
1690.85, 0.272154
1691.41, 0.272339
1691.96, 0.272551
1692.51, 0.272657
1693.06, 0.272630
1693.61, 0.272710
1694.17, 0.273000
1694.72, 0.273080
1695.28, 0.273238
1695.83, 0.273371
1696.39, 0.273476
1696.94, 0.273609
1697.5, 0.273661
1698.05, 0.273688
1698.61, 0.273873
1699.17, 0.273952
1699.72, 0.274031
1700.28, 0.274164
1700.84, 0.274217
1701.4, 0.274375
1701.95, 0.274640
1702.51, 0.274825
1703.07, 0.274878
1703.63, 0.274904
1704.19, 0.274983
1704.75, 0.275195
1705.31, 0.275380
1705.88, 0.275512
1706.44, 0.275459
1707.0, 0.275512
1707.56, 0.275644
1708.12, 0.275724
1708.69, 0.275961
1709.25, 0.276173
1709.81, 0.276147
1710.38, 0.276173
1710.94, 0.276411
1711.51, 0.276517
1712.07, 0.276675
1712.64, 0.276781
1713.2, 0.276940
1713.77, 0.277151
1714.34, 0.277178
1714.9, 0.277231
1715.47, 0.277178
1716.04, 0.277363
1716.61, 0.277548
1717.18, 0.277680
1717.74, 0.277786
1718.31, 0.277891
1718.88, 0.277971
1719.45, 0.278103
1720.02, 0.278209
1720.59, 0.278288
1721.17, 0.278447
1721.74, 0.278605
1722.31, 0.278685
1722.88, 0.278711
1723.45, 0.278764
1724.03, 0.278843
1724.6, 0.278975
1725.18, 0.279160
1725.75, 0.279213
1726.33, 0.279319
1726.9, 0.279504
1727.48, 0.279584
1728.05, 0.279689
1728.63, 0.279848
1729.2, 0.279874
1729.78, 0.280059
1730.36, 0.280139
1730.94, 0.280192
1731.51, 0.280297
1732.09, 0.280297
1732.67, 0.280403
1733.25, 0.280482
1733.83, 0.280535
1734.41, 0.280641
1734.99, 0.280826
1735.57, 0.280879
1736.15, 0.281038
1736.73, 0.281170
1737.32, 0.281249
1737.9, 0.281276
1738.48, 0.281408
1739.07, 0.281593
1739.65, 0.281619
1740.23, 0.281778
1740.82, 0.281963
1741.4, 0.281963
1741.99, 0.282042
1742.57, 0.282174
1743.16, 0.282333
1743.74, 0.282412
1744.33, 0.282465
1744.92, 0.282677
1745.51, 0.282650
1746.09, 0.282597
1746.68, 0.282783
1747.27, 0.282835
1747.86, 0.283020
1748.45, 0.283258
1749.04, 0.283258
1749.63, 0.283338
1750.22, 0.283523
1750.81, 0.283470
1751.4, 0.283496
1751.99, 0.283655
1752.59, 0.283814
1753.18, 0.283893
1753.77, 0.284025
1754.37, 0.284078
1754.96, 0.284237
1755.56, 0.284316
1756.15, 0.284527
1756.74, 0.284554
1757.34, 0.284527
1757.94, 0.284686
1758.53, 0.284765
1759.13, 0.284765
1759.73, 0.284818
1760.32, 0.284977
1760.92, 0.285136
1761.52, 0.285241
1762.12, 0.285347
1762.72, 0.285453
1763.32, 0.285611
1763.92, 0.285664
1764.52, 0.285717
1765.12, 0.285770
1765.72, 0.285929
1766.32, 0.286114
1766.92, 0.286378
1767.53, 0.286537
1768.13, 0.286484
1768.73, 0.286537
1769.34, 0.286590
1769.94, 0.286722
1770.55, 0.286801
1771.15, 0.286828
1771.76, 0.286933
1772.36, 0.287171
1772.97, 0.287277
1773.57, 0.287277
1774.18, 0.287409
1774.79, 0.287568
1775.4, 0.287621
1776.0, 0.287647
1776.61, 0.287859
1777.22, 0.287964
1777.83, 0.288070
1778.44, 0.288255
1779.05, 0.288440
1779.66, 0.288467
1780.27, 0.288493
1780.88, 0.288572
1781.5, 0.288599
1782.11, 0.288652
1782.72, 0.288758
1783.33, 0.288916
1783.95, 0.289101
1784.56, 0.289207
1785.18, 0.289286
1785.79, 0.289419
1786.41, 0.289445
1787.02, 0.289471
1787.64, 0.289577
1788.26, 0.289604
1788.87, 0.289709
1789.49, 0.289815
1790.11, 0.289921
1790.73, 0.290000
1791.35, 0.290053
1791.96, 0.290106
1792.58, 0.290185
1793.21, 0.290291
1793.83, 0.290397
1794.45, 0.290450
1795.07, 0.290582
1795.69, 0.290661
1796.31, 0.290793
1796.93, 0.291031
1797.56, 0.291058
1798.18, 0.291058
1798.8, 0.291084
1799.43, 0.291216
1800.05, 0.291296
1800.68, 0.291428
1801.3, 0.291481
1801.93, 0.291666
1802.56, 0.291719
1803.18, 0.291772
1803.81, 0.291798
1804.44, 0.291877
1805.07, 0.291877
1805.7, 0.291930
1806.33, 0.292036
1806.95, 0.292142
1807.58, 0.292221
1808.22, 0.292300
1808.85, 0.292353
1809.48, 0.292380
1810.11, 0.292432
1810.74, 0.292512
1811.38, 0.292618
1812.01, 0.292750
1812.64, 0.292776
1813.28, 0.292829
1813.91, 0.292961
1814.55, 0.293041
1815.18, 0.293173
1815.82, 0.293278
1816.45, 0.293331
1817.09, 0.293384
1817.73, 0.293358
1818.36, 0.293384
1819.0, 0.293358
1819.64, 0.293437
1820.28, 0.293464
1820.92, 0.293543
1821.56, 0.293701
1822.2, 0.293834
1822.84, 0.293913
1823.48, 0.293887
1824.12, 0.293966
1824.76, 0.294124
1825.41, 0.294151
1826.05, 0.294257
1826.69, 0.294468
1827.34, 0.294468
1827.98, 0.294468
1828.63, 0.294627
1829.27, 0.294653
1829.92, 0.294653
1830.56, 0.294680
1831.21, 0.294838
1831.86, 0.294891
1832.5, 0.294944
1833.15, 0.295050
1833.8, 0.295076
1834.45, 0.295076
1835.1, 0.295208
1835.75, 0.295288
1836.4, 0.295261
1837.05, 0.295367
1837.7, 0.295526
1838.35, 0.295711
1839.01, 0.295658
1839.66, 0.295631
1840.31, 0.295764
1840.96, 0.295817
1841.62, 0.295843
1842.27, 0.295922
1842.93, 0.296054
1843.58, 0.296240
1844.24, 0.296240
1844.9, 0.296240
1845.55, 0.296319
1846.21, 0.296240
1846.87, 0.296266
1847.53, 0.296530
1848.18, 0.296715
1848.84, 0.296795
1849.5, 0.296768
1850.16, 0.296821
1850.82, 0.296927
1851.48, 0.297033
1852.14, 0.297059
1852.81, 0.297086
1853.47, 0.297191
1854.13, 0.297244
1854.8, 0.297297
1855.46, 0.297323
1856.12, 0.297323
1856.79, 0.297456
1857.45, 0.297509
1858.12, 0.297535
1858.79, 0.297561
1859.45, 0.297561
1860.12, 0.297694
1860.79, 0.297773
1861.46, 0.297958
1862.12, 0.298037
1862.79, 0.298011
1863.46, 0.298011
1864.13, 0.298064
1864.8, 0.298143
1865.48, 0.298249
1866.15, 0.298249
1866.82, 0.298275
1867.49, 0.298249
1868.16, 0.298381
1868.84, 0.298434
1869.51, 0.298513
1870.19, 0.298593
1870.86, 0.298645
1871.54, 0.298751
1872.21, 0.298804
1872.89, 0.298751
1873.56, 0.298883
1874.24, 0.298963
1874.92, 0.298989
1875.6, 0.299068
1876.28, 0.299068
1876.96, 0.299174
1877.64, 0.299386
1878.32, 0.299412
1879.0, 0.299439
1879.68, 0.299518
1880.36, 0.299544
1881.04, 0.299597
1881.73, 0.299729
1882.41, 0.299782
1883.09, 0.299782
1883.78, 0.299809
1884.46, 0.299914
1885.15, 0.299994
1885.83, 0.299994
1886.52, 0.300073
1887.21, 0.300179
1887.89, 0.300205
1888.58, 0.300337
1889.27, 0.300337
1889.96, 0.300390
1890.65, 0.300655
1891.34, 0.300708
1892.03, 0.300655
1892.72, 0.300655
1893.41, 0.300708
1894.1, 0.300813
1894.79, 0.300972
1895.49, 0.301078
1896.18, 0.301078
1896.87, 0.301051
1897.57, 0.301131
1898.26, 0.301157
1898.96, 0.301263
1899.65, 0.301263
1900.35, 0.301369
1901.05, 0.301448
1901.74, 0.301448
1902.44, 0.301369
1903.14, 0.301580
1903.84, 0.301739
1904.54, 0.301792
1905.24, 0.301792
1905.94, 0.301844
1906.64, 0.301977
1907.34, 0.302082
1908.04, 0.302029
1908.75, 0.302029
1909.45, 0.302082
1910.15, 0.302215
1910.86, 0.302347
1911.56, 0.302453
1912.27, 0.302426
1912.97, 0.302426
1913.68, 0.302532
1914.39, 0.302690
1915.09, 0.302717
1915.8, 0.302743
1916.51, 0.302796
1917.22, 0.303008
1917.93, 0.303140
1918.64, 0.303166
1919.35, 0.303140
1920.06, 0.303193
1920.77, 0.303431
1921.48, 0.303563
1922.19, 0.303589
1922.91, 0.303616
1923.62, 0.303642
1924.33, 0.303748
1925.05, 0.303801
1925.76, 0.303933
1926.48, 0.304039
1927.19, 0.304065
1927.91, 0.304092
1928.63, 0.304250
1929.35, 0.304277
1930.07, 0.304330
1930.78, 0.304462
1931.5, 0.304462
1932.22, 0.304541
1932.94, 0.304726
1933.66, 0.304805
1934.39, 0.304858
1935.11, 0.304858
1935.83, 0.304938
1936.55, 0.304964
1937.28, 0.305070
1938.0, 0.305149
1938.73, 0.305176
1939.45, 0.305229
1940.18, 0.305255
1940.9, 0.305202
1941.63, 0.305202
1942.36, 0.305281
1943.09, 0.305414
1943.81, 0.305519
1944.54, 0.305519
1945.27, 0.305466
1946.0, 0.305519
1946.73, 0.305572
1947.47, 0.305546
1948.2, 0.305599
1948.93, 0.305599
1949.66, 0.305546
1950.4, 0.305678
1951.13, 0.305731
1951.86, 0.305784
1952.6, 0.305784
1953.34, 0.305757
1954.07, 0.305810
1954.81, 0.305810
1955.55, 0.305889
1956.29, 0.305995
1957.02, 0.306022
1957.76, 0.306022
1958.5, 0.305995
1959.24, 0.306048
1959.98, 0.306101
1960.72, 0.306075
1961.47, 0.306075
1962.21, 0.306022
1962.95, 0.305995
1963.7, 0.305995
1964.44, 0.306075
1965.18, 0.306101
1965.93, 0.306127
1966.67, 0.306127
1967.42, 0.306154
1968.17, 0.306154
1968.92, 0.306101
1969.66, 0.306127
1970.41, 0.306154
1971.16, 0.306127
1971.91, 0.306127
1972.66, 0.306101
1973.41, 0.306101
1974.16, 0.306048
1974.92, 0.305995
1975.67, 0.305969
1976.42, 0.305995
1977.18, 0.306022
1977.93, 0.305995
1978.69, 0.305889
1979.44, 0.305810
1980.2, 0.305784
1980.95, 0.305837
1981.71, 0.305784
1982.47, 0.305678
1983.23, 0.305652
1983.99, 0.305546
1984.74, 0.305466
1985.51, 0.305493
1986.27, 0.305466
1987.03, 0.305466
1987.79, 0.305466
1988.55, 0.305387
1989.32, 0.305281
1990.08, 0.305202
1990.84, 0.305202
1991.61, 0.305176
1992.37, 0.305043
1993.14, 0.304991
1993.9, 0.305043
1994.67, 0.305070
1995.44, 0.305017
1996.21, 0.304991
1996.98, 0.304938
1997.75, 0.304832
1998.52, 0.304832
1999.29, 0.304858
2000.06, 0.304858
2000.83, 0.304885
2001.6, 0.304858
2002.38, 0.304911
2003.15, 0.304991
2003.93, 0.305123
2004.7, 0.305149
2005.48, 0.305176
2006.25, 0.305070
2007.03, 0.305096
2007.81, 0.305149
2008.58, 0.305255
2009.36, 0.305308
2010.14, 0.305334
2010.92, 0.305387
2011.7, 0.305493
2012.48, 0.305599
2013.26, 0.305678
2014.05, 0.305731
2014.83, 0.305863
2015.61, 0.306022
2016.4, 0.305995
2017.18, 0.306180
2017.97, 0.306339
2018.75, 0.306365
2019.54, 0.306550
2020.32, 0.306788
2021.11, 0.306868
2021.9, 0.307000
2022.69, 0.307053
2023.48, 0.307238
2024.27, 0.307449
2025.06, 0.307608
2025.85, 0.307687
2026.64, 0.307793
2027.44, 0.307978
2028.23, 0.308242
2029.02, 0.308428
2029.82, 0.308560
2030.61, 0.308771
2031.41, 0.308930
2032.2, 0.309115
2033.0, 0.309353
2033.8, 0.309591
2034.6, 0.309855
2035.4, 0.310040
2036.2, 0.310172
2037.0, 0.310331
2037.8, 0.310516
2038.6, 0.310728
2039.4, 0.311018
2040.2, 0.311256
2041.01, 0.311468
2041.81, 0.311600
2042.61, 0.311838
2043.42, 0.312050
2044.22, 0.312182
2045.03, 0.312288
2045.84, 0.312499
2046.65, 0.312631
2047.46, 0.312816
2048.26, 0.313054
2049.07, 0.313239
2049.88, 0.313451
2050.69, 0.313583
2051.51, 0.313742
2052.32, 0.313874
2053.13, 0.314112
2053.94, 0.314376
2054.76, 0.314588
2055.57, 0.314720
2056.39, 0.314720
2057.2, 0.314746
2058.02, 0.314984
2058.84, 0.315249
2059.66, 0.315381
2060.48, 0.315407
2061.29, 0.315460
2062.11, 0.315513
2062.94, 0.315672
2063.76, 0.315910
2064.58, 0.316042
2065.4, 0.316174
2066.22, 0.316333
2067.05, 0.316438
2067.87, 0.316571
2068.7, 0.316650
2069.52, 0.316861
2070.35, 0.316941
2071.18, 0.316941
2072.0, 0.317020
2072.83, 0.317311
2073.66, 0.317443
2074.49, 0.317575
2075.32, 0.317602
2076.15, 0.317707
2076.98, 0.317787
2077.82, 0.317892
2078.65, 0.318025
2079.48, 0.318077
2080.32, 0.318157
2081.15, 0.318315
2081.99, 0.318342
2082.83, 0.318448
2083.66, 0.318633
2084.5, 0.318738
2085.34, 0.318791
2086.18, 0.318871
2087.02, 0.318950
2087.86, 0.319003
2088.7, 0.319029
2089.54, 0.319003
2090.39, 0.319135
2091.23, 0.319373
2092.07, 0.319426
2092.92, 0.319479
2093.76, 0.319611
2094.61, 0.319664
2095.45, 0.319770
2096.3, 0.319796
2097.15, 0.319822
2098.0, 0.319796
2098.85, 0.319822
2099.7, 0.319875
2100.55, 0.319981
2101.4, 0.320007
2102.25, 0.320060
2103.1, 0.320140
2103.96, 0.320219
2104.81, 0.320245
2105.67, 0.320298
2106.52, 0.320325
2107.38, 0.320351
2108.24, 0.320378
2109.09, 0.320378
2109.95, 0.320351
2110.81, 0.320378
2111.67, 0.320483
2112.53, 0.320457
2113.39, 0.320404
2114.25, 0.320404
2115.12, 0.320430
2115.98, 0.320510
2116.84, 0.320483
2117.71, 0.320483
2118.58, 0.320457
2119.44, 0.320404
2120.31, 0.320351
2121.18, 0.320272
2122.04, 0.320298
2122.91, 0.320404
2123.78, 0.320430
2124.65, 0.320457
2125.52, 0.320325
2126.4, 0.320219
2127.27, 0.320272
2128.14, 0.320378
2129.02, 0.320378
2129.89, 0.320351
2130.77, 0.320404
2131.64, 0.320404
2132.52, 0.320457
2133.4, 0.320483
2134.27, 0.320536
2135.15, 0.320510
2136.03, 0.320457
2136.91, 0.320510
2137.79, 0.320483
2138.68, 0.320510
2139.56, 0.320563
2140.44, 0.320563
2141.33, 0.320589
2142.21, 0.320642
2143.1, 0.320668
2143.99, 0.320642
2144.87, 0.320616
2145.76, 0.320642
2146.65, 0.320721
2147.54, 0.320827
2148.43, 0.320853
2149.32, 0.320853
2150.21, 0.320774
2151.1, 0.320906
2151.99, 0.320906
2152.89, 0.320827
2153.78, 0.320827
2154.68, 0.320827
2155.57, 0.320774
2156.47, 0.320827
2157.37, 0.320827
2158.27, 0.320880
2159.16, 0.320853
2160.06, 0.320774
2160.96, 0.320748
2161.86, 0.320827
2162.77, 0.320853
2163.67, 0.320801
2164.57, 0.320880
2165.48, 0.320853
2166.38, 0.320958
2167.29, 0.320880
2168.2, 0.320801
2169.1, 0.320723
2170.01, 0.320775
2170.92, 0.320854
2171.83, 0.321114
2172.74, 0.321193
2173.65, 0.321114
2174.56, 0.321114
2175.47, 0.321114
2176.39, 0.320880
2177.3, 0.320880
2178.22, 0.321010
2179.13, 0.320984
2180.05, 0.321114
2180.96, 0.321036
2181.88, 0.320801
2182.8, 0.320749
2183.72, 0.320958
2184.64, 0.321062
2185.56, 0.320958
2186.48, 0.320827
2187.41, 0.320775
2188.33, 0.320801
2189.25, 0.320749
2190.18, 0.320854
2191.1, 0.320827
2192.03, 0.320671
2192.96, 0.320436
2193.89, 0.320436
2194.82, 0.320332
2195.74, 0.320227
2196.68, 0.320201
2197.61, 0.319992
2198.54, 0.320123
2199.47, 0.320175
2200.4, 0.319862
2201.34, 0.319679
2202.28, 0.319653
2203.21, 0.319496
2204.15, 0.319340
2205.08, 0.318896
2206.02, 0.318714
2206.96, 0.318661
2207.9, 0.318583
2208.84, 0.318348
2209.78, 0.318087
2210.73, 0.318009
2211.67, 0.318270
2212.61, 0.318061
2213.56, 0.317852
2214.5, 0.317774
2215.45, 0.317879
2216.4, 0.317722
2217.35, 0.317357
2218.3, 0.317200
2219.24, 0.317122
2220.2, 0.316782
2221.15, 0.316469
2222.1, 0.316026
2223.05, 0.315817
2224.0, 0.315634
2224.96, 0.315191
2225.91, 0.314721
2226.87, 0.314356
2227.83, 0.313938
2228.79, 0.313625
2229.74, 0.313129
2230.7, 0.312503
2231.66, 0.312033
2232.63, 0.311198
2233.59, 0.310232
2234.55, 0.309606
2235.51, 0.308771
2236.48, 0.307884
2237.44, 0.306970
2238.41, 0.306109
2239.38, 0.305117
2240.34, 0.304048
2241.31, 0.302612
2242.28, 0.301255
2243.25, 0.299611
2244.22, 0.297993
2245.19, 0.296480
2246.17, 0.295070
2247.14, 0.293479
2248.12, 0.291756
2249.09, 0.290112
2250.07, 0.288572
2251.04, 0.287007
2252.02, 0.285545
2253.0, 0.284319
2253.98, 0.283066
2254.96, 0.281735
2255.94, 0.280483
2256.92, 0.279804
2257.91, 0.279413
2258.89, 0.278969
2259.88, 0.278734
2260.86, 0.278734
2261.85, 0.278734
2262.83, 0.279021
2263.82, 0.279621
2264.81, 0.280222
2265.8, 0.280952
2266.79, 0.281474
2267.78, 0.282283
2268.78, 0.283353
2269.77, 0.284084
2270.76, 0.284971
2271.76, 0.286041
2272.75, 0.286772
2273.75, 0.287529
2274.75, 0.288364
2275.75, 0.289120
2276.75, 0.289799
2277.75, 0.290269
2278.75, 0.290660
2279.75, 0.291182
2280.75, 0.291626
2281.76, 0.292043
2282.76, 0.292330
2283.77, 0.292487
2284.77, 0.292748
2285.78, 0.293035
2286.79, 0.293061
2287.8, 0.292983
2288.81, 0.293035
2289.82, 0.293218
2290.83, 0.293244
2291.84, 0.293087
2292.86, 0.292983
2293.87, 0.292904
2294.89, 0.292670
2295.91, 0.292461
2296.92, 0.292304
2297.94, 0.292200
2298.96, 0.292095
2299.98, 0.291861
2301.0, 0.291678
2302.02, 0.291417
2303.04, 0.291182
2304.07, 0.290947
2305.09, 0.290477
2306.12, 0.290112
2307.15, 0.289773
2308.17, 0.289590
2309.2, 0.289355
2310.23, 0.289094
2311.26, 0.288651
2312.29, 0.288364
2313.32, 0.287868
2314.35, 0.287502
2315.39, 0.287242
2316.42, 0.286981
2317.46, 0.286589
2318.5, 0.286224
2319.53, 0.285832
2320.57, 0.285650
2321.61, 0.285284
2322.65, 0.284919
2323.69, 0.284528
2324.73, 0.284214
2325.78, 0.283849
2326.82, 0.283510
2327.86, 0.283014
2328.91, 0.282701
2329.96, 0.282283
2331.01, 0.281866
2332.05, 0.281344
2333.1, 0.280926
2334.15, 0.280613
2335.21, 0.280117
2336.26, 0.279360
2337.31, 0.278839
2338.36, 0.278369
2339.42, 0.277821
2340.48, 0.277221
2341.53, 0.276751
2342.59, 0.276255
2343.65, 0.275916
2344.71, 0.275420
2345.77, 0.274846
2346.83, 0.274376
2347.9, 0.273906
2348.96, 0.273541
2350.02, 0.273150
2351.09, 0.272915
2352.16, 0.272810
2353.23, 0.272628
2354.29, 0.272523
2355.36, 0.272575
2356.43, 0.272602
2357.51, 0.272523
2358.58, 0.272497
2359.65, 0.272549
2360.73, 0.272732
2361.8, 0.272941
2362.88, 0.273202
2363.96, 0.273306
2365.03, 0.273567
2366.11, 0.274089
2367.19, 0.274585
2368.27, 0.275002
2369.36, 0.275629
2370.44, 0.276098
2371.53, 0.276777
2372.61, 0.277351
2373.7, 0.277951
2374.78, 0.278734
2375.87, 0.279621
2376.96, 0.280404
2378.05, 0.281213
2379.14, 0.282048
2380.24, 0.282962
2381.33, 0.283953
2382.42, 0.284762
2383.52, 0.285467
2384.61, 0.286276
2385.71, 0.287007
2386.81, 0.287711
2387.91, 0.288520
2389.01, 0.289173
2390.11, 0.289486
2391.22, 0.290060
2392.32, 0.290738
2393.42, 0.291182
2394.53, 0.291600
2395.64, 0.292043
2396.74, 0.292330
2397.85, 0.292722
2398.96, 0.292983
2400.07, 0.293218
2401.18, 0.293348
2402.3, 0.293400
2403.41, 0.293661
2404.52, 0.294000
2405.64, 0.293922
2406.76, 0.294079
2407.88, 0.294261
2408.99, 0.294235
2410.11, 0.294131
2411.23, 0.294288
2412.36, 0.294366
2413.48, 0.294444
2414.6, 0.294470
2415.73, 0.294522
2416.85, 0.294444
2417.98, 0.294496
2419.11, 0.294522
2420.24, 0.294548
2421.37, 0.294444
2422.5, 0.294444
2423.64, 0.294392
2424.77, 0.294418
2425.9, 0.294366
2427.04, 0.294496
2428.18, 0.294496
2429.31, 0.294627
2430.45, 0.294575
2431.59, 0.294496
2432.73, 0.294470
2433.88, 0.294522
2435.02, 0.294470
2436.16, 0.294418
2437.31, 0.294444
2438.45, 0.294444
2439.6, 0.294418
2440.75, 0.294522
2441.9, 0.294548
2443.05, 0.294470
2444.2, 0.294418
2445.35, 0.294392
2446.51, 0.294288
2447.67, 0.294261
2448.82, 0.294314
2449.98, 0.294288
2451.14, 0.294131
2452.3, 0.294079
2453.46, 0.293870
2454.62, 0.293844
2455.78, 0.293818
2456.94, 0.293922
2458.11, 0.293792
2459.28, 0.293452
2460.44, 0.293244
2461.61, 0.293035
2462.78, 0.292774
2463.95, 0.292565
2465.12, 0.292330
2466.3, 0.292148
2467.47, 0.291913
2468.65, 0.291652
2469.82, 0.291286
2471.0, 0.290947
2472.18, 0.290608
2473.36, 0.290321
2474.54, 0.289825
2475.72, 0.289408
2476.9, 0.289120
2478.08, 0.288859
2479.27, 0.288468
2480.46, 0.288181
2481.64, 0.287737
2482.83, 0.287424
2484.02, 0.287268
2485.21, 0.287111
2486.4, 0.286772
2487.6, 0.286354
2488.79, 0.285963
2489.99, 0.285702
2491.18, 0.285493
2492.38, 0.285180
2493.58, 0.284736
2494.78, 0.284449
2495.98, 0.284397
2497.18, 0.284136
2498.39, 0.283797
2499.59, 0.283588
2500.8, 0.283275
2502.01, 0.283014
2503.21, 0.282883
2504.42, 0.282753
2505.63, 0.282440
2506.84, 0.282257
2508.06, 0.282127
2509.27, 0.281944
2510.49, 0.281787
2511.7, 0.281709
2512.92, 0.281422
2514.14, 0.281318
2515.36, 0.281161
2516.58, 0.281005
2517.8, 0.280926
2519.03, 0.280717
2520.25, 0.280509
2521.48, 0.280483
2522.7, 0.280274
2523.93, 0.280143
2525.16, 0.280039
2526.39, 0.279908
2527.62, 0.279804
2528.86, 0.279543
2530.09, 0.279308
2531.33, 0.279230
2532.56, 0.279152
2533.8, 0.278969
2535.04, 0.278604
2536.28, 0.278421
2537.52, 0.278343
2538.76, 0.278238
2540.01, 0.277977
2541.25, 0.277664
2542.5, 0.277351
2543.75, 0.277351
2544.99, 0.277168
2546.24, 0.276986
2547.49, 0.276855
2548.75, 0.276777
2550.0, 0.276516
2551.26, 0.276255
2552.51, 0.275994
2553.77, 0.275994
2555.03, 0.275733
2556.29, 0.275498
2557.55, 0.275237
2558.81, 0.274846
2560.08, 0.274298
2561.34, 0.273959
2562.61, 0.273959
2563.88, 0.273985
2565.14, 0.274115
2566.41, 0.273959
2567.68, 0.273410
2568.96, 0.273045
2570.23, 0.273202
2571.51, 0.273150
2572.78, 0.272549
2574.06, 0.272784
2575.34, 0.272628
2576.62, 0.272236
2577.9, 0.272262
2579.18, 0.272106
2580.47, 0.271740
2581.75, 0.271662
2583.04, 0.271010
2584.32, 0.271375
2585.61, 0.271427
2586.9, 0.270984
2588.2, 0.271062
2589.49, 0.271140
2590.78, 0.270931
2592.08, 0.270279
2593.37, 0.269079
2594.67, 0.269131
2595.97, 0.270540
2597.27, 0.270670
2598.57, 0.270227
2599.88, 0.269705
2601.18, 0.269418
2602.49, 0.269366
2603.79, 0.268948
2605.1, 0.268791
2606.41, 0.269261
2607.72, 0.269235
2609.03, 0.269052
2610.35, 0.269026
2611.66, 0.268922
2612.98, 0.268687
2614.3, 0.268557
2615.62, 0.267956
2616.94, 0.268035
2618.26, 0.268217
2619.58, 0.267565
2620.91, 0.268165
2622.23, 0.268348
2623.56, 0.267722
2624.89, 0.267069
2626.22, 0.266756
2627.55, 0.267147
2628.88, 0.266495
2630.21, 0.266104
2631.55, 0.266782
2632.89, 0.266286
2634.22, 0.265921
2635.56, 0.265869
2636.9, 0.265529
2638.25, 0.265086
2639.59, 0.264747
2640.93, 0.264433
2642.28, 0.263964
2643.63, 0.263390
2644.98, 0.262711
2646.33, 0.262372
2647.68, 0.262137
2649.03, 0.261563
2650.39, 0.260832
2651.74, 0.260101
2653.1, 0.259814
2654.46, 0.259423
2655.82, 0.258823
2657.18, 0.258275
2658.54, 0.257309
2659.9, 0.256918
2661.27, 0.256552
2662.64, 0.255717
2664.01, 0.254465
2665.38, 0.253943
2666.74, 0.253890
2668.12, 0.253551
2669.49, 0.251881
2670.87, 0.251985
2672.24, 0.252012
2673.62, 0.250576
2675.0, 0.249167
2676.38, 0.248175
2677.76, 0.247575
2679.15, 0.246505
2680.54, 0.245566
2681.92, 0.243870
2683.31, 0.242173
2684.7, 0.240425
2686.09, 0.238311
2687.48, 0.235988
2688.88, 0.233379
2690.27, 0.230038
2691.67, 0.225994
2693.07, 0.221061
2694.47, 0.216207
2695.87, 0.210727
2697.27, 0.204569
2698.67, 0.197836
2700.08, 0.191364
2701.49, 0.185831
2702.9, 0.182126
2704.31, 0.180377
2705.72, 0.180821
2707.13, 0.182282
2708.54, 0.184031
2709.96, 0.185153
2711.38, 0.186171
2712.8, 0.185988
2714.22, 0.184344
2715.64, 0.182047
2717.06, 0.178890
2718.49, 0.174949
2719.91, 0.170330
2721.34, 0.165946
2722.77, 0.160962
2724.2, 0.155377
2725.63, 0.150314
2727.07, 0.145017
2728.5, 0.139641
2729.94, 0.134370
2731.38, 0.129490
2732.82, 0.124766
2734.26, 0.120121
2735.7, 0.115528
2737.15, 0.110805
2738.59, 0.105585
2740.04, 0.100653
2741.49, 0.0960860
2742.94, 0.0919890
2744.39, 0.0884660
2745.84, 0.0856220
2747.3, 0.0834040
2748.76, 0.0816550
2750.21, 0.0801160
2751.67, 0.0785240
2753.14, 0.0767490
2754.6, 0.0748960
2756.06, 0.0730960
2757.53, 0.0714520
2759.0, 0.0700950
2760.46, 0.0693120
2761.94, 0.0694160
2763.41, 0.0704600
2764.88, 0.0717390
2766.36, 0.0727560
2767.83, 0.0735130
2769.31, 0.0739830
2770.79, 0.0739310
2772.27, 0.0735130
2773.76, 0.0725740
2775.24, 0.0712430
2776.73, 0.0695730
2778.22, 0.0677980
2779.71, 0.0658150
2781.2, 0.0638310
2782.69, 0.0620050
2784.18, 0.0601000
2785.68, 0.0579860
2787.18, 0.0561070
2788.68, 0.0543850
2790.18, 0.0527410
2791.68, 0.0510700
2793.19, 0.0495830
2794.69, 0.0482520
2796.2, 0.0470520
2797.71, 0.0458770
2799.22, 0.0448330
2800.73, 0.0438940
2802.24, 0.0429810
2803.76, 0.0423020
2805.28, 0.0416760
2806.8, 0.0411020
2808.32, 0.0406320
2809.84, 0.0401880
2811.36, 0.0398750
2812.89, 0.0395360
2814.42, 0.0392750
2815.94, 0.0390660
2817.48, 0.0388570
2819.01, 0.0387270
2820.54, 0.0387010
2822.08, 0.0386750
2823.61, 0.0387010
2825.15, 0.0386750
2826.69, 0.0386490
2828.23, 0.0387790
2829.78, 0.0389100
2831.32, 0.0390140
2832.87, 0.0391970
2834.42, 0.0393530
2835.97, 0.0395880
2837.52, 0.0397970
2839.08, 0.0399530
2840.63, 0.0400840
2842.19, 0.0402930
2843.75, 0.0405800
2845.31, 0.0408670
2846.87, 0.0409710
2848.44, 0.0411800
2850.0, 0.0413360
2851.57, 0.0414930
2853.14, 0.0417020
2854.71, 0.0419370
2856.28, 0.0419890
2857.86, 0.0421190
2859.43, 0.0423020
2861.01, 0.0424850
2862.59, 0.0425890
2864.17, 0.0426150
2865.76, 0.0425890
2867.34, 0.0426410
2868.93, 0.0425890
2870.52, 0.0425110
2872.11, 0.0425370
2873.7, 0.0425630
2875.29, 0.0424590
2876.89, 0.0423800
2878.49, 0.0423020
2880.08, 0.0422500
2881.69, 0.0420930
2883.29, 0.0418840
2884.89, 0.0416240
2886.5, 0.0414150
2888.11, 0.0411800
2889.72, 0.0408930
2891.33, 0.0406320
2892.94, 0.0403710
2894.56, 0.0400840
2896.17, 0.0397710
2897.79, 0.0394310
2899.42, 0.0390400
2901.04, 0.0387270
2902.66, 0.0384140
2904.29, 0.0381790
2905.92, 0.0379180
2907.55, 0.0376570
2909.18, 0.0372920
2910.81, 0.0370830
2912.45, 0.0370040
2914.08, 0.0367960
2915.72, 0.0365350
2917.36, 0.0362740
2919.01, 0.0360390
2920.65, 0.0359080
2922.3, 0.0358300
2923.94, 0.0357520
2925.59, 0.0356740
2927.25, 0.0355690
2928.9, 0.0355170
2930.56, 0.0354910
2932.21, 0.0354390
2933.87, 0.0354650
2935.53, 0.0354650
2937.2, 0.0353870
2938.86, 0.0354650
2940.53, 0.0356210
2942.2, 0.0356210
2943.87, 0.0355950
2945.54, 0.0356470
2947.22, 0.0358560
2948.89, 0.0360130
2950.57, 0.0360910
2952.25, 0.0361960
2953.93, 0.0364300
2955.62, 0.0365870
2957.3, 0.0367960
2958.99, 0.0370570
2960.68, 0.0372130
2962.37, 0.0373960
2964.07, 0.0376310
2965.76, 0.0378130
2967.46, 0.0379700
2969.16, 0.0382050
2970.86, 0.0384660
2972.56, 0.0387010
2974.27, 0.0389620
2975.98, 0.0393790
2977.69, 0.0396400
2979.4, 0.0397970
2981.11, 0.0401100
2982.83, 0.0405010
2984.54, 0.0407620
2986.26, 0.0409710
2987.98, 0.0413100
2989.71, 0.0417280
2991.43, 0.0420150
2993.16, 0.0423280
2994.89, 0.0427460
2996.62, 0.0431370
2998.35, 0.0435020
3000.09, 0.0438680
3001.83, 0.0442330
3003.57, 0.0446250
3005.31, 0.0450160
3007.05, 0.0453550
3008.79, 0.0457990
3010.54, 0.0462690
3012.29, 0.0466600
3014.04, 0.0470250
3015.8, 0.0474950
3017.55, 0.0479910
3019.31, 0.0484870
3021.07, 0.0489570
3022.83, 0.0493740
3024.59, 0.0498440
3026.36, 0.0503660
3028.13, 0.0508620
3029.9, 0.0513310
3031.67, 0.0518270
3033.44, 0.0522710
3035.22, 0.0527410
3037.0, 0.0533670
3038.78, 0.0539410
3040.56, 0.0544630
3042.34, 0.0549850
3044.13, 0.0555850
3045.92, 0.0561590
3047.71, 0.0567070
3049.5, 0.0572550
3051.3, 0.0579080
3053.09, 0.0584560
3054.89, 0.0590300
3056.69, 0.0596560
3058.5, 0.0602820
3060.3, 0.0609090
3062.11, 0.0615090
3063.92, 0.0620830
3065.73, 0.0627350
3067.55, 0.0633620
3069.36, 0.0640400
3071.18, 0.0646930
3073.0, 0.0652930
3074.82, 0.0658930
3076.65, 0.0665450
3078.48, 0.0672240
3080.31, 0.0679290
3082.14, 0.0686070
3083.97, 0.0692590
3085.8, 0.0699380
3087.64, 0.0705900
3089.48, 0.0712950
3091.33, 0.0720260
3093.17, 0.0726520
3095.02, 0.0733570
3096.87, 0.0741390
3098.72, 0.0748700
3100.57, 0.0755490
3102.43, 0.0762530
3104.28, 0.0769580
3106.14, 0.0776890
3108.01, 0.0784190
3109.87, 0.0791760
3111.74, 0.0799330
3113.61, 0.0805850
3115.48, 0.0813420
3117.35, 0.0821510
3119.23, 0.0829080
3121.1, 0.0836120
3122.98, 0.0843430
3124.87, 0.0850480
3126.75, 0.0857520
3128.64, 0.0865350
3130.53, 0.0873960
3132.42, 0.0882310
3134.31, 0.0889880
3136.21, 0.0896930
3138.11, 0.0904760
3140.01, 0.0912590
3141.91, 0.0920410
3143.82, 0.0928770
3145.73, 0.0936590
3147.64, 0.0944420
3149.55, 0.0952510
3151.46, 0.0960340
3153.38, 0.0967650
3155.3, 0.0975220
3157.22, 0.0982260
3159.14, 0.0990090
3161.07, 0.0998180
3163.0, 0.100653
3164.93, 0.101488
3166.86, 0.102350
3168.8, 0.103185
3170.74, 0.103941
3172.68, 0.104698
3174.62, 0.105455
3176.56, 0.106186
3178.51, 0.106995
3180.46, 0.107856
3182.42, 0.108691
3184.37, 0.109500
3186.33, 0.110387
3188.29, 0.111170
3190.25, 0.111979
3192.21, 0.112762
3194.18, 0.113493
3196.15, 0.114276
3198.12, 0.115032
3200.09, 0.115815
3202.07, 0.116598
3204.05, 0.117433
3206.03, 0.118268
3208.02, 0.119051
3210.0, 0.119834
3211.99, 0.120617
3213.98, 0.121348
3215.98, 0.122078
3217.97, 0.122809
3219.97, 0.123592
3221.97, 0.124349
3223.98, 0.125079
3225.98, 0.125862
3227.99, 0.126619
3230.0, 0.127376
3232.02, 0.128159
3234.03, 0.128889
3236.05, 0.129594
3238.07, 0.130325
3240.1, 0.131055
3242.12, 0.131760
3244.15, 0.132517
3246.18, 0.133221
3248.22, 0.133952
3250.25, 0.134657
3252.29, 0.135361
3254.33, 0.136092
3256.38, 0.136770
3258.43, 0.137501
3260.47, 0.138206
3262.53, 0.138910
3264.58, 0.139589
3266.64, 0.140293
3268.7, 0.140946
3270.76, 0.141650
3272.82, 0.142355
3274.89, 0.143008
3276.96, 0.143686
3279.04, 0.144338
3281.11, 0.144965
3283.19, 0.145669
3285.27, 0.146374
3287.35, 0.147052
3289.44, 0.147705
3291.53, 0.148409
3293.62, 0.149062
3295.71, 0.149688
3297.81, 0.150341
3299.91, 0.150967
3302.01, 0.151593
3304.11, 0.152219
3306.22, 0.152872
3308.33, 0.153524
3310.44, 0.154125
3312.56, 0.154699
3314.68, 0.155377
3316.8, 0.155977
3318.92, 0.156525
3321.05, 0.157178
3323.18, 0.157804
3325.31, 0.158378
3327.44, 0.158926
3329.58, 0.159422
3331.72, 0.159996
3333.86, 0.160570
3336.01, 0.161066
3338.16, 0.161510
3340.31, 0.162084
3342.46, 0.162501
3344.61, 0.162893
3346.77, 0.163336
3348.94, 0.163728
3351.1, 0.164067
3353.27, 0.164380
3355.44, 0.164693
3357.61, 0.164981
3359.79, 0.165189
3361.97, 0.165268
3364.15, 0.165163
3366.33, 0.165059
3368.52, 0.165033
3370.71, 0.165033
3372.9, 0.165163
3375.1, 0.165346
3377.3, 0.165763
3379.5, 0.166285
3381.71, 0.166938
3383.91, 0.167668
3386.12, 0.168295
3388.34, 0.168791
3390.55, 0.169234
3392.77, 0.169495
3394.99, 0.169547
3397.22, 0.169469
3399.45, 0.169339
3401.68, 0.169025
3403.91, 0.168712
3406.15, 0.168425
3408.39, 0.168190
3410.63, 0.168190
3412.87, 0.168321
3415.12, 0.168608
3417.37, 0.169130
3419.63, 0.169965
3421.88, 0.171009
3424.14, 0.172183
3426.41, 0.173410
3428.67, 0.174636
3430.94, 0.175784
3433.21, 0.176750
3435.49, 0.177585
3437.77, 0.178420
3440.05, 0.179203
3442.33, 0.179908
3444.62, 0.180560
3446.91, 0.181212
3449.2, 0.181865
3451.5, 0.182543
3453.8, 0.183196
3456.1, 0.183770
3458.41, 0.184318
3460.72, 0.184814
3463.03, 0.185257
3465.34, 0.185727
3467.66, 0.186014
3469.98, 0.186197
3472.31, 0.186379
3474.63, 0.186614
3476.96, 0.186875
3479.3, 0.187162
3481.64, 0.187423
3483.97, 0.187658
3486.32, 0.187841
3488.66, 0.187893
3491.01, 0.187867
3493.36, 0.187867
3495.72, 0.187815
3498.08, 0.187763
3500.44, 0.187997
3502.81, 0.188519
3505.18, 0.189381
3507.55, 0.190555
3509.92, 0.191729
3512.3, 0.192930
3514.68, 0.194052
3517.06, 0.195070
3519.45, 0.196009
3521.84, 0.196896
3524.24, 0.197653
3526.64, 0.198332
3529.04, 0.198958
3531.44, 0.199584
3533.85, 0.200106
3536.26, 0.200680
3538.67, 0.201254
3541.09, 0.201724
3543.51, 0.202220
3545.93, 0.202716
3548.36, 0.203185
3550.79, 0.203733
3553.22, 0.204229
3555.66, 0.204699
3558.1, 0.205247
3560.54, 0.205795
3562.99, 0.206265
3565.44, 0.206787
3567.9, 0.207309
3570.35, 0.207857
3572.81, 0.208405
3575.28, 0.208979
3577.75, 0.209527
3580.22, 0.210049
3582.69, 0.210545
3585.17, 0.211067
3587.65, 0.211588
3590.14, 0.212110
3592.62, 0.212632
3595.11, 0.213154
3597.61, 0.213624
3600.11, 0.214068
3602.61, 0.214537
3605.11, 0.215059
3607.62, 0.215503
3610.14, 0.215973
3612.65, 0.216390
3615.17, 0.216808
3617.69, 0.217304
3620.22, 0.217721
3622.75, 0.218113
3625.28, 0.218582
3627.82, 0.219026
3630.36, 0.219365
3632.9, 0.219757
3635.45, 0.220148
3638.0, 0.220566
3640.56, 0.220983
3643.12, 0.221348
3645.68, 0.221714
3648.24, 0.222053
3650.81, 0.222471
3653.39, 0.222810
3655.96, 0.223123
3658.54, 0.223488
3661.13, 0.223880
3663.71, 0.224245
3666.3, 0.224637
3668.9, 0.224924
3671.5, 0.225211
3674.1, 0.225602
3676.7, 0.225968
3679.31, 0.226307
3681.93, 0.226646
3684.54, 0.226959
3687.17, 0.227220
3689.79, 0.227481
3692.42, 0.227820
3695.05, 0.228212
3697.69, 0.228525
3700.32, 0.228812
3702.97, 0.229125
3705.61, 0.229386
3708.27, 0.229673
3710.92, 0.229986
3713.58, 0.230273
3716.24, 0.230560
3718.91, 0.230874
3721.58, 0.231082
3724.25, 0.231291
3726.93, 0.231604
3729.61, 0.231944
3732.29, 0.232257
3734.98, 0.232570
3737.67, 0.232883
3740.37, 0.233144
3743.07, 0.233379
3745.78, 0.233666
3748.49, 0.233979
3751.2, 0.234266
3753.91, 0.234579
3756.63, 0.234945
3759.36, 0.235206
3762.09, 0.235414
3764.82, 0.235701
3767.55, 0.236015
3770.29, 0.236276
3773.04, 0.236563
3775.78, 0.236771
3778.54, 0.237006
3781.29, 0.237267
3784.05, 0.237554
3786.82, 0.237815
3789.59, 0.237998
3792.36, 0.238233
3795.13, 0.238468
3797.92, 0.238676
3800.7, 0.238911
3803.49, 0.239120
3806.28, 0.239329
3809.08, 0.239616
3811.88, 0.239851
3814.68, 0.240033
3817.49, 0.240242
3820.31, 0.240477
3823.12, 0.240686
3825.94, 0.240868
3828.77, 0.241103
3831.6, 0.241286
3834.43, 0.241521
3837.27, 0.241782
3840.11, 0.241991
3842.96, 0.242199
3845.81, 0.242434
3848.67, 0.242643
3851.53, 0.242878
3854.39, 0.243034
3857.26, 0.243269
3860.13, 0.243530
3863.01, 0.243765
3865.89, 0.243948
3868.77, 0.244183
3871.66, 0.244391
3874.55, 0.244626
3877.45, 0.244809
3880.35, 0.245044
3883.26, 0.245279
3886.17, 0.245488
3889.09, 0.245670
3892.01, 0.245905
3894.93, 0.246088
3897.86, 0.246270
3900.79, 0.246479
3903.73, 0.246662
3906.67, 0.246845
3909.62, 0.247001
3912.57, 0.247105
3915.52, 0.247236
3918.48, 0.247366
3921.45, 0.247497
3924.42, 0.247653
3927.39, 0.247784
3930.37, 0.247888
3933.35, 0.247993
3936.34, 0.248071
3939.33, 0.248149
3942.32, 0.248202
3945.32, 0.248332
3948.33, 0.248384
3951.34, 0.248462
3954.35, 0.248593
3957.37, 0.248671
3960.39, 0.248723
3963.42, 0.248776
3966.45, 0.248802
3969.49, 0.248854
3972.53, 0.248906
3975.58, 0.248984
3978.63, 0.249063
3981.68, 0.249089
3984.75, 0.249167
3987.81, 0.249245
3990.88, 0.249271
3993.95, 0.249376
3997.03, 0.249402
4000.12, 0.249480
4003.21, 0.249506
4006.3, 0.249559
4009.4, 0.249637
4012.5, 0.249689
4015.61, 0.249663
4018.72, 0.249715
4021.84, 0.249767
4024.96, 0.249846
4028.09, 0.249872
4031.22, 0.249846
4034.36, 0.249846
4037.5, 0.249872
4040.65, 0.249950
4043.8, 0.250002
4046.96, 0.249976
4050.12, 0.250002
4053.29, 0.250028
4056.46, 0.250080
4059.64, 0.250028
4062.82, 0.250028
4066.0, 0.250002
4069.19, 0.250002
4072.39, 0.249976
4075.59, 0.250002
4078.8, 0.250002
4082.01, 0.250002
4085.23, 0.249950
4088.45, 0.249872
4091.68, 0.249819
4094.91, 0.249793
4098.15, 0.249793
4101.39, 0.249767
4104.63, 0.249741
4107.89, 0.249663
4111.14, 0.249585
4114.41, 0.249532
4117.67, 0.249506
4120.95, 0.249454
4124.23, 0.249402
4127.51, 0.249376
4130.8, 0.249298
4134.09, 0.249219
4137.39, 0.249089
4140.7, 0.249037
4144.01, 0.248984
4147.32, 0.248880
4150.64, 0.248776
4153.97, 0.248697
4157.3, 0.248593
4160.64, 0.248462
4163.98, 0.248358
4167.33, 0.248228
4170.68, 0.248097
4174.04, 0.248019
4177.4, 0.247914
4180.77, 0.247732
4184.14, 0.247680
4187.52, 0.247601
4190.91, 0.247445
4194.3, 0.247314
4197.69, 0.247158
4201.1, 0.246923
4204.5, 0.246688
4207.92, 0.246479
4211.34, 0.246296
4214.76, 0.246088
4218.19, 0.245905
4221.62, 0.245696
4225.06, 0.245514
4228.51, 0.245409
4231.96, 0.245331
4235.42, 0.245227
4238.88, 0.245044
4242.35, 0.244913
4245.83, 0.244757
4249.31, 0.244626
4252.79, 0.244496
4256.28, 0.244287
4259.78, 0.243948
4263.29, 0.243713
4266.79, 0.243530
4270.31, 0.243348
4273.83, 0.243165
4277.35, 0.243008
4280.89, 0.242852
4284.42, 0.242669
4287.97, 0.242434
4291.52, 0.242199
4295.07, 0.241991
4298.63, 0.241782
4302.2, 0.241547
4305.78, 0.241338
4309.35, 0.241103
4312.94, 0.240868
4316.53, 0.240660
4320.13, 0.240451
4323.73, 0.240216
4327.34, 0.239929
4330.96, 0.239694
4334.58, 0.239433
4338.21, 0.239172
4341.84, 0.238885
4345.48, 0.238598
4349.12, 0.238311
4352.77, 0.238024
4356.43, 0.237763
4360.1, 0.237476
4363.76, 0.237163
4367.44, 0.236824
4371.12, 0.236563
4374.81, 0.236276
4378.51, 0.235936
4382.21, 0.235571
4385.92, 0.235232
4389.63, 0.234919
4393.35, 0.234605
4397.08, 0.234266
4400.81, 0.233979
4404.55, 0.233640
4408.29, 0.233274
4412.04, 0.232909
4415.8, 0.232596
4419.57, 0.232283
4423.34, 0.231996
4427.12, 0.231578
4430.9, 0.231213
4434.69, 0.230874
4438.49, 0.230560
4442.29, 0.230169
4446.1, 0.229778
4449.92, 0.229360
4453.74, 0.228969
4457.57, 0.228577
4461.41, 0.228186
4465.25, 0.227768
4469.1, 0.227351
4472.95, 0.226959
4476.82, 0.226516
4480.69, 0.226072
4484.56, 0.225602
4488.44, 0.225132
4492.33, 0.224663
4496.23, 0.224141
4500.13, 0.223697
4504.04, 0.223253
4507.96, 0.222758
4511.88, 0.222262
4515.81, 0.221766
4519.75, 0.221218
4523.69, 0.220618
4527.65, 0.220018
4531.6, 0.219443
4535.57, 0.218843
4539.54, 0.218243
4543.52, 0.217591
4547.5, 0.216938
4551.5, 0.216338
4555.5, 0.215659
4559.5, 0.214981
4563.52, 0.214250
4567.54, 0.213546
4571.56, 0.212841
4575.6, 0.212110
4579.64, 0.211354
4583.69, 0.210597
4587.75, 0.209840
4591.81, 0.209135
4595.88, 0.208353
4599.96, 0.207596
4604.04, 0.206891
4608.14, 0.206134
4612.24, 0.205378
4616.34, 0.204621
4620.46, 0.203916
4624.58, 0.203212
4628.71, 0.202507
4632.84, 0.201828
4636.99, 0.201228
4641.14, 0.200628
4645.3, 0.199976
4649.47, 0.199297
4653.64, 0.198671
4657.82, 0.198045
4662.01, 0.197496
4666.21, 0.196948
4670.41, 0.196296
4674.62, 0.195644
4678.84, 0.195043
4683.07, 0.194417
4687.3, 0.193713
4691.54, 0.193060
4695.79, 0.192460
4700.05, 0.191808
4704.31, 0.191181
4708.59, 0.190503
4712.87, 0.189876
4717.15, 0.189172
4721.45, 0.188467
4725.76, 0.187763
4730.07, 0.187084
4734.39, 0.186327
4738.72, 0.185597
4743.05, 0.184866
4747.39, 0.184135
4751.75, 0.183300
4756.1, 0.182517
4760.47, 0.181734
4764.85, 0.180951
4769.23, 0.180195
4773.62, 0.179412
4778.02, 0.178629
4782.43, 0.177846
4786.85, 0.177115
4791.27, 0.176411
4795.7, 0.175680
4800.14, 0.174975
4804.59, 0.174297
4809.05, 0.173697
4813.51, 0.173123
4817.99, 0.172548
4822.47, 0.171974
4826.96, 0.171400
4831.46, 0.170852
4835.96, 0.170330
4840.48, 0.169756
4845.0, 0.169182
4849.54, 0.168582
4854.08, 0.168034
4858.63, 0.167460
4863.18, 0.166912
4867.75, 0.166338
4872.33, 0.165737
4876.91, 0.165137
4881.5, 0.164589
4886.1, 0.164041
4890.71, 0.163467
4895.33, 0.162893
4899.96, 0.162293
4904.59, 0.161640
4909.24, 0.160988
4913.89, 0.160335
4918.55, 0.159683
4923.22, 0.159004
4927.9, 0.158326
4932.59, 0.157726
4937.29, 0.157126
4942.0, 0.156499
4946.71, 0.155821
4951.44, 0.155142
4956.17, 0.154568
4960.91, 0.153968
4965.67, 0.153342
4970.43, 0.152715
4975.2, 0.152193
4979.98, 0.151724
4984.76, 0.151332
4989.56, 0.150941
4994.37, 0.150549
4999.18, 0.150158
5004.01, 0.149845
5008.84, 0.149532
5013.69, 0.149244
5018.54, 0.148957
5023.4, 0.148775
5028.28, 0.148644
5033.16, 0.148514
5038.05, 0.148357
5042.95, 0.148175
5047.86, 0.147966
5052.78, 0.147757
5057.71, 0.147574
5062.65, 0.147339
5067.6, 0.147131
5072.56, 0.146896
5077.53, 0.146687
5082.5, 0.146530
5087.49, 0.146296
5092.49, 0.146035
5097.5, 0.145852
5102.51, 0.145591
5107.54, 0.145330
5112.58, 0.145147
5117.62, 0.144886
5122.68, 0.144678
5127.75, 0.144495
5132.82, 0.144234
5137.91, 0.144051
5143.01, 0.143869
5148.12, 0.143738
5153.23, 0.143582
5158.36, 0.143373
5163.5, 0.143190
5168.65, 0.143034
5173.81, 0.142877
5178.98, 0.142694
5184.15, 0.142538
5189.34, 0.142407
5194.54, 0.142225
5199.75, 0.142068
5204.98, 0.141938
5210.21, 0.141781
5215.45, 0.141755
5220.7, 0.141650
5225.96, 0.141442
5231.23, 0.141259
5236.52, 0.141076
5241.81, 0.140998
5247.12, 0.140841
5252.44, 0.140659
5257.76, 0.140502
5263.1, 0.140320
5268.45, 0.140137
5273.81, 0.139954
5279.18, 0.139824
5284.56, 0.139641
5289.95, 0.139406
5295.36, 0.139276
5300.77, 0.139224
5306.2, 0.139119
5311.63, 0.138963
5317.08, 0.138806
5322.54, 0.138728
5328.01, 0.138623
5333.49, 0.138519
5338.98, 0.138415
5344.49, 0.138232
5350.0, 0.138154
5355.53, 0.138232
5361.07, 0.138258
5366.62, 0.138258
5372.18, 0.138232
5377.75, 0.138284
5383.34, 0.138362
5388.93, 0.138493
5394.54, 0.138519
5400.16, 0.138571
5405.79, 0.138597
5411.44, 0.138623
5417.09, 0.138519
5422.76, 0.138545
5428.43, 0.138676
5434.12, 0.138597
5439.83, 0.138519
5445.54, 0.138467
5451.26, 0.138336
5457.0, 0.138154
5462.75, 0.137919
5468.52, 0.137788
5474.29, 0.137606
5480.08, 0.137423
5485.88, 0.137266
5491.69, 0.137031
5497.51, 0.136770
5503.35, 0.136536
5509.2, 0.136275
5515.06, 0.135909
5520.93, 0.135570
5526.82, 0.135309
5532.71, 0.135074
5538.63, 0.134761
5544.55, 0.134370
5550.49, 0.134004
5556.44, 0.133769
5562.4, 0.133535
5568.37, 0.133169
5574.36, 0.132673
5580.36, 0.132465
5586.37, 0.132334
5592.4, 0.132047
5598.44, 0.131708
5604.49, 0.131447
5610.56, 0.131212
5616.63, 0.130977
5622.73, 0.130821
5628.83, 0.130560
5634.95, 0.130220
5641.08, 0.129985
5647.23, 0.129959
5653.39, 0.129777
5659.56, 0.129646
5665.74, 0.129490
5671.94, 0.129203
5678.15, 0.129046
5684.38, 0.128837
5690.62, 0.128576
5696.87, 0.128446
5703.14, 0.128054
5709.42, 0.127689
5715.72, 0.127454
5722.03, 0.127167
5728.35, 0.126776
5734.69, 0.126332
5741.03, 0.125888
5747.4, 0.125445
5753.78, 0.125001
5760.17, 0.124218
5766.58, 0.123592
5773.0, 0.123227
5779.44, 0.122522
5785.88, 0.121791
5792.35, 0.121061
5798.83, 0.120278
5805.32, 0.119469
5811.83, 0.118503
5818.35, 0.117511
5824.89, 0.116911
5831.45, 0.116337
5838.01, 0.115633
5844.59, 0.114928
5851.19, 0.114197
5857.8, 0.113493
5864.43, 0.112919
5871.07, 0.112370
5877.73, 0.111614
5884.4, 0.111405
5891.09, 0.110909
5897.79, 0.110492
5904.5, 0.110204
5911.23, 0.109604
5917.98, 0.108978
5924.75, 0.108326
5931.53, 0.107569
5938.32, 0.107151
5945.13, 0.106838
5951.96, 0.106264
5958.8, 0.105690
5965.65, 0.105011
5972.53, 0.104698
5979.42, 0.104228
5986.32, 0.103733
5993.24, 0.103446
6000.18, 0.103185
6007.13, 0.102767
6014.1, 0.102480
6021.08, 0.102271
6028.09, 0.102010
6035.1, 0.101645
6042.14, 0.101019
6049.19, 0.100836
6056.25, 0.101019
6063.34, 0.100601
6070.44, 0.100131
6077.55, 0.100001
6084.69, 0.0998700
6091.84, 0.0995050
6099.0, 0.0991660
6106.19, 0.0986700
6113.39, 0.0983310
6120.61, 0.0982520
6127.84, 0.0980440
6135.09, 0.0977300
6142.36, 0.0975220
6149.65, 0.0973910
6156.95, 0.0972350
6164.27, 0.0972350
6171.61, 0.0972350
6178.97, 0.0970520
6186.34, 0.0971040
6193.73, 0.0972610
6201.14, 0.0971300
6208.57, 0.0970520
6216.01, 0.0970000
6223.47, 0.0970000
6230.95, 0.0969480
6238.45, 0.0969220
6245.97, 0.0968950
6253.5, 0.0969220
6261.06, 0.0969740
6268.63, 0.0970780
6276.21, 0.0972610
6283.82, 0.0974700
6291.45, 0.0977040
6299.1, 0.0979650
6306.76, 0.0982260
6314.44, 0.0984610
6322.14, 0.0987220
6329.86, 0.0990350
6337.6, 0.0992440
6345.35, 0.0997400
6353.13, 0.100314
6360.92, 0.100523
6368.74, 0.100836
6376.57, 0.101384
6384.43, 0.101802
6392.3, 0.102167
6400.19, 0.102376
6408.1, 0.102454
6416.03, 0.103054
6423.98, 0.103811
6431.95, 0.104202
6439.94, 0.104698
6447.95, 0.105064
6455.98, 0.105559
6464.03, 0.105977
6472.1, 0.106290
6480.19, 0.106525
6488.31, 0.106838
6496.44, 0.107517
6504.59, 0.108221
6512.76, 0.108482
6520.95, 0.108821
6529.16, 0.109291
6537.4, 0.109630
6545.65, 0.109917
6553.92, 0.110309
6562.22, 0.110596
6570.54, 0.110909
6578.88, 0.111509
6587.23, 0.111849
6595.61, 0.112188
6604.02, 0.112501
6612.44, 0.112736
6620.89, 0.112919
6629.35, 0.112919
6637.84, 0.113284
6646.35, 0.113884
6654.88, 0.114171
6663.44, 0.114276
6672.01, 0.114380
6680.61, 0.114536
6689.23, 0.114771
6697.88, 0.114797
6706.54, 0.114745
6715.23, 0.114902
6723.94, 0.115111
6732.67, 0.115293
6741.42, 0.115319
6750.2, 0.115267
6759.0, 0.115215
6767.82, 0.115058
6776.67, 0.114850
6785.54, 0.114510
6794.44, 0.114328
6803.35, 0.114171
6812.29, 0.113936
6821.26, 0.113701
6830.24, 0.113754
6839.25, 0.113780
6848.29, 0.113597
6857.35, 0.113284
6866.43, 0.113388
6875.54, 0.113519
6884.67, 0.113362
6893.82, 0.113179
6903.0, 0.113023
6912.2, 0.112997
6921.43, 0.112840
6930.69, 0.112579
6939.96, 0.112344
6949.27, 0.111953
6958.59, 0.111614
6967.95, 0.111561
6977.33, 0.111222
6986.73, 0.110831
6996.16, 0.110518
7005.61, 0.110283
7015.09, 0.109996
7024.6, 0.109787
7034.13, 0.109500
7043.69, 0.109265
7053.27, 0.109239
7062.88, 0.109187
7072.52, 0.109082
7082.18, 0.109004
7091.87, 0.108952
7101.58, 0.108874
7111.32, 0.108717
7121.09, 0.108560
7130.88, 0.108352
7140.71, 0.108039
7150.56, 0.107778
7160.43, 0.107490
7170.33, 0.107177
7180.27, 0.106916
7190.23, 0.106629
7200.21, 0.106290
7210.23, 0.106003
7220.27, 0.105716
7230.34, 0.105246
7240.44, 0.104829
7250.56, 0.104489
7260.72, 0.104150
7270.9, 0.103733
7281.12, 0.103367
7291.36, 0.102976
7301.63, 0.102610
7311.93, 0.102193
7322.25, 0.101749
7332.61, 0.101280
7343.0, 0.100888
7353.41, 0.100444
7363.86, 0.0999490
7374.33, 0.0994270
7384.83, 0.0989050
7395.37, 0.0983570
7405.93, 0.0978090
7416.53, 0.0972610
7427.15, 0.0967650
7437.81, 0.0962950
7448.5, 0.0957730
7459.22, 0.0951470
7469.96, 0.0945990
7480.74, 0.0940770
7491.55, 0.0935030
7502.39, 0.0928500
7513.27, 0.0922240
7524.17, 0.0915720
7535.11, 0.0909190
7546.08, 0.0902410
7557.08, 0.0895360
7568.11, 0.0888320
7579.17, 0.0881270
7590.27, 0.0874220
7601.4, 0.0867700
7612.56, 0.0861180
7623.76, 0.0855700
7634.98, 0.0850220
7646.24, 0.0844740
7657.54, 0.0839520
7668.87, 0.0834300
7680.23, 0.0828820
7691.62, 0.0823860
7703.05, 0.0819680
7714.51, 0.0815510
7726.01, 0.0810290
7737.54, 0.0804810
7749.11, 0.0799850
7760.71, 0.0795150
7772.35, 0.0790460
7784.02, 0.0785760
7795.72, 0.0781840
7807.46, 0.0777150
7819.23, 0.0771670
7831.04, 0.0766450
7842.89, 0.0761490
7854.77, 0.0755750
7866.69, 0.0750530
7878.65, 0.0745310
7890.64, 0.0739830
7902.67, 0.0734090
7914.74, 0.0728350
7926.84, 0.0722870
7938.98, 0.0716600
7951.16, 0.0710600
7963.37, 0.0703820
7975.62, 0.0697030
7987.91, 0.0689200
8000.24, 0.0681630
8012.6, 0.0673810
8025.01, 0.0665720
8037.45, 0.0657360
8049.93, 0.0649010
8062.45, 0.0641190
8075.01, 0.0633360
8087.61, 0.0625270
8100.24, 0.0617180
8112.91, 0.0608560
8125.63, 0.0599690
8138.39, 0.0590560
8151.18, 0.0580900
8164.02, 0.0570730
8176.9, 0.0560030
8189.81, 0.0548540
8202.77, 0.0537580
8215.77, 0.0526100
8228.82, 0.0514100
8241.9, 0.0501310
8255.02, 0.0488520
8268.19, 0.0476000
8281.39, 0.0463990
8294.65, 0.0451470
8307.94, 0.0439200
8321.28, 0.0426410
8334.66, 0.0414150
8348.08, 0.0402400
8361.54, 0.0390920
8375.05, 0.0378920
8388.6, 0.0367440
8402.2, 0.0356210
8415.84, 0.0344990
8429.52, 0.0333250
8443.25, 0.0322030
8457.02, 0.0311070
8470.84, 0.0299590
8484.7, 0.0289410
8498.61, 0.0278970
8512.57, 0.0267750
8526.57, 0.0257050
8540.62, 0.0246610
8554.71, 0.0236170
8568.85, 0.0224690
8583.04, 0.0212950
8597.27, 0.0200680
8611.55, 0.0188410
8625.88, 0.0177190
8640.26, 0.0170410
8654.68, 0.0164670
8669.16, 0.0159710
8683.68, 0.0154490
8698.25, 0.0149270
8712.87, 0.0143530
8727.53, 0.0139090
8742.25, 0.0134920
8757.02, 0.0130480
8771.83, 0.0126830
8786.7, 0.0124740
8801.62, 0.0122390
8816.59, 0.0120040
8831.61, 0.0118220
8846.68, 0.0117430
8861.8, 0.0116910
8876.97, 0.0117960
8892.2, 0.0119260
8907.48, 0.0120560
8922.81, 0.0122130
8938.2, 0.0124220
8953.63, 0.0126040
8969.13, 0.0130480
8984.67, 0.0136480
9000.27, 0.0144830
9015.92, 0.0154490
9031.63, 0.0166760
9047.39, 0.0179280
9063.21, 0.0192590
9079.08, 0.0206160
9095.01, 0.0220510
9111.0, 0.0235650
9127.04, 0.0251050
9143.13, 0.0265660
9159.28, 0.0280010
9175.49, 0.0293580
9191.76, 0.0307150
9208.09, 0.0320200
9224.47, 0.0335080
9240.92, 0.0349690
9257.42, 0.0365610
9273.98, 0.0382050
9290.6, 0.0398230
9307.28, 0.0414670
9324.02, 0.0431110
9340.82, 0.0446510
9357.68, 0.0461380
9374.6, 0.0474430
9391.58, 0.0485650
9408.62, 0.0494790
9425.73, 0.0500790
9442.9, 0.0504440
9460.13, 0.0507310
9477.42, 0.0508360
9494.78, 0.0507570
9512.2, 0.0506270
9529.69, 0.0505480
9547.24, 0.0505480
9564.86, 0.0506270
9582.54, 0.0506530
9600.28, 0.0506790
9618.1, 0.0507830
9635.97, 0.0511490
9653.92, 0.0514620
9671.93, 0.0517490
9690.01, 0.0520360
9708.16, 0.0524010
9726.37, 0.0527140
9744.65, 0.0530540
9763.0, 0.0534450
9781.43, 0.0538100
9799.92, 0.0539410
9818.48, 0.0538370
9837.1, 0.0536800
9855.8, 0.0533930
9874.58, 0.0531320
9893.42, 0.0528710
9912.34, 0.0526100
9931.33, 0.0522710
9950.39, 0.0519050
9969.52, 0.0515140
9988.74, 0.0509400
10008.0, 0.0503140
10027.4, 0.0495050
10046.8, 0.0486430
10066.3, 0.0476780
10085.9, 0.0466080
10105.6, 0.0455120
10125.3, 0.0444420
10145.1, 0.0434240
10165.0, 0.0424060
10185.0, 0.0413630
10205.0, 0.0405010
10225.2, 0.0397710
10245.4, 0.0392490
10265.7, 0.0385960
10286.0, 0.0379960
10306.5, 0.0375000
10327.0, 0.0370310
10347.6, 0.0365350
10368.3, 0.0361170
10389.1, 0.0358300
10409.9, 0.0353870
10430.9, 0.0348650
10451.9, 0.0343170
10473.0, 0.0337160
10494.2, 0.0332470
10515.5, 0.0326990
10536.9, 0.0320720
10558.4, 0.0315500
10579.9, 0.0312370
10601.5, 0.0309500
10623.3, 0.0307940
10645.1, 0.0304800
10667.0, 0.0301930
10689.0, 0.0300370
10711.1, 0.0297760
10733.2, 0.0295150
10755.5, 0.0294100
10777.9, 0.0291500
10800.3, 0.0288620
10822.9, 0.0286280
10845.5, 0.0284450
10868.2, 0.0282620
10891.1, 0.0281060
10914.0, 0.0278970
10937.0, 0.0277140
10960.2, 0.0275580
10983.4, 0.0274530
11006.7, 0.0272970
11030.1, 0.0271140
11053.6, 0.0269570
11077.3, 0.0268790
11101.0, 0.0267750
11124.8, 0.0266440
11148.7, 0.0264620
11172.7, 0.0263310
11196.9, 0.0261750
11221.1, 0.0260960
11245.4, 0.0259400
11269.9, 0.0258350
11294.4, 0.0258610
11319.1, 0.0258610
11343.9, 0.0256530
11368.8, 0.0254180
11393.7, 0.0251570
11418.8, 0.0250000
11444.0, 0.0248960
11469.4, 0.0246350
11494.8, 0.0242430
11520.3, 0.0238520
11546.0, 0.0235390
11571.8, 0.0232780
11597.7, 0.0228860
11623.7, 0.0224690
11649.8, 0.0221820
11676.0, 0.0218950
11702.4, 0.0213730
11728.9, 0.0208770
11755.5, 0.0203810
11782.2, 0.0198590
11809.0, 0.0192590
11836.0, 0.0187370
11863.0, 0.0183200
11890.3, 0.0177450
11917.6, 0.0171710
11945.0, 0.0166490
11972.6, 0.0159970
12000.4, 0.0155010
12028.2, 0.0151100
12056.2, 0.0150050
12084.3, 0.0148490
12112.5, 0.0146660
12140.9, 0.0146920
12169.4, 0.0147700
12198.0, 0.0147700
12226.8, 0.0148230
12255.7, 0.0149010
12284.7, 0.0151100
12313.9, 0.0152400
12343.2, 0.0153710
12372.7, 0.0153970
12402.3, 0.0153970
12432.0, 0.0154490
12461.9, 0.0155530
12491.9, 0.0155530
12522.1, 0.0156060
12552.4, 0.0154750
12582.9, 0.0152920
12613.5, 0.0151620
12644.3, 0.0151620
12675.2, 0.0152660
12706.3, 0.0152400
12737.5, 0.0151360
12768.9, 0.0152920
12800.4, 0.0155010
12832.1, 0.0155270
12863.9, 0.0154230
12895.9, 0.0154230
12928.1, 0.0155270
12960.4, 0.0157620
12992.9, 0.0159190
13025.5, 0.0161010
13058.3, 0.0162320
13091.3, 0.0163620
13124.4, 0.0164930
13157.8, 0.0166760
13191.2, 0.0169890
13224.9, 0.0172760
13258.7, 0.0174320
13292.7, 0.0176670
13326.9, 0.0176930
13361.2, 0.0176410
13395.7, 0.0178240
13430.4, 0.0180590
13465.3, 0.0181630
13500.4, 0.0182410
13535.7, 0.0181110
13571.1, 0.0180850
13606.7, 0.0180330
13642.5, 0.0179540
13678.5, 0.0179280
13714.7, 0.0178240
13751.1, 0.0174580
13787.6, 0.0173280
13824.4, 0.0172760
13861.4, 0.0168840
13898.5, 0.0164670
13935.9, 0.0162840
13973.5, 0.0161540
14011.2, 0.0159190
14049.2, 0.0156320
14087.4, 0.0153710
14125.8, 0.0152140
14164.3, 0.0151620
14203.2, 0.0149790
14242.2, 0.0147180
14281.4, 0.0144830
14320.9, 0.0143010
14360.5, 0.0141440
14400.4, 0.0141180
14440.5, 0.0141180
14480.9, 0.0141700
14521.4, 0.0141440
14562.2, 0.0142750
14603.3, 0.0144050
14644.5, 0.0149530
14686.0, 0.0154490
14727.7, 0.0156840
14769.7, 0.0159710
14811.9, 0.0164410
14854.3, 0.0168060
14897.0, 0.0173020
14939.9, 0.0174840
14983.1, 0.0176150
15026.5, 0.0178500
15070.2, 0.0180330
15114.2, 0.0181630
15158.3, 0.0182930
15202.8, 0.0184240
15247.5, 0.0184240
15292.5, 0.0184240
15337.7, 0.0183720
15383.2, 0.0183460
15429.0, 0.0181890
15475.1, 0.0181370
15521.4, 0.0181890
15568.0, 0.0177720
15614.9, 0.0174060
15662.1, 0.0172240
15709.6, 0.0169360
15757.3, 0.0166760
15805.4, 0.0165450
15853.7, 0.0163360
15902.3, 0.0162320
15951.2, 0.0159450
16000.5, 0.0155010
16050.0, 0.0152920
16099.8, 0.0152140
16150.0, 0.0151360
16200.5, 0.0150310
16251.3, 0.0149270
16302.4, 0.0149270
16353.8, 0.0147440
16405.5, 0.0144050
16457.6, 0.0141440
16510.0, 0.0140400
16562.8, 0.0135960
16615.9, 0.0131000
16669.3, 0.0127870
16723.1, 0.0126310
16777.2, 0.0119000
16831.7, 0.0114040
16886.5, 0.0110650
16941.7, 0.0105690
16997.2, 0.0102300
17053.1, 0.0100210
17109.4, 0.00960300
17166.1, 0.00921200
17223.1, 0.00916000
17280.5, 0.00929000
17338.3, 0.00960300
17396.5, 0.00999500
17455.1, 0.0103340
17514.0, 0.0110390
17573.4, 0.0119000
17633.2, 0.0127610
17693.4, 0.0136740
17754.0, 0.0146660
17815.0, 0.0157100
17876.4, 0.0171970
17938.3, 0.0180330
18000.5, 0.0188680
18063.3, 0.0195980
18126.4, 0.0201720
18190.0, 0.0203810
18254.1, 0.0204860
18318.6, 0.0203550
18383.5, 0.0200420
18449.0, 0.0199380
18514.9, 0.0200680
18581.2, 0.0195980
18648.0, 0.0191550
18715.4, 0.0185810
18783.2, 0.0183980
18851.5, 0.0182150
18920.3, 0.0181630
18989.6, 0.0181370
19059.4, 0.0181630
19129.7, 0.0187630
19200.6, 0.0200680
19272.0, 0.0216860
19343.9, 0.0240350
19416.3, 0.0262790
19489.3, 0.0285230
19562.8, 0.0308200
19637.0, 0.0327250
19711.6, 0.0343950
19786.8, 0.0359350
19862.6, 0.0373960
19939.0, 0.0385960
20016.0, 0.0395360
20093.6, 0.0404490
20171.8, 0.0415190
20250.6, 0.0429020
20330.0, 0.0444160
20410.0, 0.0451730
20490.7, 0.0454600
20572.0, 0.0464250
20654.0, 0.0473130
20736.6, 0.0481480
20819.9, 0.0491650
20903.8, 0.0499740
20988.5, 0.0504180
21073.8, 0.0509920
21159.8, 0.0518530
21246.5, 0.0525840
21334.0, 0.0530020
21422.1, 0.0536280
21511.0, 0.0537580
21600.7, 0.0531580
21691.0, 0.0523750
21782.1, 0.0519580
21874.0, 0.0512010
21966.7, 0.0497130
22060.2, 0.0478870
22154.5, 0.0473650
22249.6, 0.0467380
22345.5, 0.0462160
22442.2, 0.0459030
22539.8, 0.0456950
22638.2, 0.0449900
22737.5, 0.0443900
22837.7, 0.0448330
22938.7, 0.0453550
23040.7, 0.0455900
23143.5, 0.0461120
23247.3, 0.0476000
23352.1, 0.0489830
23457.7, 0.0492960
23564.4, 0.0489040
23672.0, 0.0477040
23780.5, 0.0459030
23890.1, 0.0436850
24000.7, 0.0429020
24112.3, 0.0434240
24225.0, 0.0422500
24338.7, 0.0403190
24453.5, 0.0397190
24569.4, 0.0397970
24686.4, 0.0382050
24804.5, 0.0366390
