Database of Origin,USGS Spectral Database
Sample Description,See USGS database for additional info
Date Added,2017-02-22 02:49:15.236940

Data ID,USGS_top03          
Sample ID,topaz_12.22664
Mineral Name,topaz

Wavelength
221.1, 0.271815
229.1, 0.401107
236.1, 0.455448
242.1, 0.497619
248.1, 0.516451
253.6, 0.544417
258.6, 0.557096
263.6, 0.585976
268.6, 0.603636
273.1, 0.621113
277.1, 0.638045
281.1, 0.646542
285.1, 0.654286
289.1, 0.662783
293.1, 0.671189
297.1, 0.673880
301.1, 0.683706
305.1, 0.692866
309.1, 0.700642
313.1, 0.705898
317.1, 0.713255
321.1, 0.725173
325.1, 0.731604
329.1, 0.737808
333.1, 0.747704
337.1, 0.753878
341.1, 0.758208
345.1, 0.767420
349.1, 0.774586
353.1, 0.801008
357.1, 0.805209
360.6, 0.807632
363.6, 0.812362
366.6, 0.815339
369.6, 0.820715
372.6, 0.818455
375.6, 0.821645
378.6, 0.825414
381.1, 0.823959
383.1, 0.828553
385.1, 0.826747
387.1, 0.826721
389.1, 0.827075
391.1, 0.828288
393.1, 0.833522
395.1, 0.828948
397.1, 0.833106
399.1, 0.833062
401.1, 0.836468
403.1, 0.832747
405.1, 0.836858
407.1, 0.835495
409.1, 0.835575
411.1, 0.838795
412.8, 0.841078
415.8, 0.840237
418.8, 0.841505
421.8, 0.844181
424.8, 0.844756
427.8, 0.847221
430.8, 0.851046
433.8, 0.851582
436.8, 0.853476
439.8, 0.854685
442.8, 0.854604
445.8, 0.859056
448.8, 0.860220
451.3, 0.858926
453.3, 0.860093
455.3, 0.860788
457.3, 0.864902
459.3, 0.863464
461.3, 0.866721
463.3, 0.865989
465.3, 0.865246
467.3, 0.867853
469.3, 0.869272
471.3, 0.866476
473.3, 0.869202
475.3, 0.868390
477.3, 0.870993
479.3, 0.870383
481.3, 0.873089
483.3, 0.873072
485.3, 0.873055
487.3, 0.874402
489.3, 0.873149
491.3, 0.873719
493.3, 0.874461
495.3, 0.877197
497.3, 0.874998
499.3, 0.877042
501.3, 0.877659
503.3, 0.876312
505.3, 0.878349
507.3, 0.877684
509.3, 0.876224
511.3, 0.878257
513.3, 0.878840
515.3, 0.878785
517.3, 0.876697
519.3, 0.878023
521.3, 0.876011
523.3, 0.878621
525.3, 0.875870
527.3, 0.878559
529.3, 0.877066
531.3, 0.880548
533.3, 0.877059
535.3, 0.877657
537.3, 0.878975
539.3, 0.878889
541.3, 0.878242
543.3, 0.880263
545.3, 0.880152
547.3, 0.882333
549.3, 0.882223
551.3, 0.881619
553.3, 0.884395
555.3, 0.884488
557.3, 0.885880
559.3, 0.885230
561.3, 0.887335
563.3, 0.883832
565.3, 0.887308
567.3, 0.887251
569.3, 0.888572
571.3, 0.889957
573.3, 0.889963
575.3, 0.889259
577.3, 0.890526
579.3, 0.889060
581.3, 0.891096
583.3, 0.891651
585.3, 0.892428
587.3, 0.893761
589.3, 0.894467
591.3, 0.894491
593.3, 0.899329
595.3, 0.897355
597.3, 0.900165
599.3, 0.898063
601.1, 0.900856
602.7, 0.903715
604.3, 0.903074
605.9, 0.901064
607.5, 0.902446
609.1, 0.905239
610.7, 0.903916
612.3, 0.906011
613.9, 0.904610
615.5, 0.904612
617.1, 0.906705
618.7, 0.906083
620.3, 0.904738
621.9, 0.905373
623.5, 0.905435
625.1, 0.906148
626.7, 0.906837
628.3, 0.906820
629.9, 0.906759
631.7, 0.906120
633.7, 0.906820
635.7, 0.906125
637.7, 0.906066
639.7, 0.908100
641.7, 0.908799
643.7, 0.906760
645.7, 0.907393
647.7, 0.909416
649.7, 0.908728
651.7, 0.909427
653.7, 0.910125
655.7, 0.908666
657.7, 0.909300
659.7, 0.911409
661.7, 0.910755
663.7, 0.911401
665.7, 0.911348
667.7, 0.912750
670.2, 0.910571
673.2, 0.912579
676.2, 0.915347
679.2, 0.914683
682.2, 0.913825
685.2, 0.913858
688.2, 0.915153
691.2, 0.917094
694.2, 0.915635
697.2, 0.916934
700.2, 0.917539
702.0, 0.916240
704.0, 0.916234
706.0, 0.917474
708.0, 0.917476
710.0, 0.915238
712.0, 0.914474
714.0, 0.917976
716.0, 0.918518
718.0, 0.914957
720.0, 0.917034
722.0, 0.915558
724.0, 0.919011
726.0, 0.914673
728.0, 0.918085
730.0, 0.918074
732.0, 0.915864
734.0, 0.918681
736.0, 0.918575
738.0, 0.916357
740.0, 0.922061
742.0, 0.920507
744.0, 0.919736
746.0, 0.920344
748.0, 0.921077
750.5, 0.918129
753.5, 0.919515
756.5, 0.920130
759.5, 0.917902
762.5, 0.919973
765.5, 0.920575
768.5, 0.919798
771.5, 0.919691
774.5, 0.918178
777.5, 0.920881
781.0, 0.920095
785.0, 0.920711
789.0, 0.920602
793.0, 0.922700
797.0, 0.920329
801.5, 0.920164
806.5, 0.919310
811.5, 0.921000
816.5, 0.922000
822.0, 0.923000
828.0, 0.924000
835.0, 0.924500
843.0, 0.925000
851.0, 0.926000
859.0, 0.926500
871.0, 0.928033
883.0, 0.923292
894.0, 0.927111
904.0, 0.926169
914.0, 0.922234
924.0, 0.930744
933.0, 0.929803
941.0, 0.929782
949.0, 0.927333
957.0, 0.931144
964.0, 0.932000
970.0, 0.935065
976.0, 0.930348
982.0, 0.934958
988.0, 0.930994
994.0, 0.935718
1000.0, 0.937192
1006.0, 0.934834
1012.0, 0.934008
1018.0, 0.939505
1023.5, 0.934733
1028.5, 0.934702
1033.5, 0.937023
1038.5, 0.937794
1043.5, 0.940169
1048.5, 0.937768
1053.5, 0.943253
1058.5, 0.937715
1063.5, 0.939284
1068.5, 0.940092
1073.5, 0.940057
1078.5, 0.944770
1083.5, 0.940731
1088.5, 0.939117
1093.5, 0.943908
1098.5, 0.939139
1103.5, 0.944690
1108.5, 0.948720
1113.5, 0.945527
1118.5, 0.948685
1123.5, 0.946301
1128.5, 0.950258
1133.5, 0.943928
1138.5, 0.942286
1143.5, 0.949390
1148.5, 0.946157
1153.5, 0.946900
1158.5, 0.941985
1163.5, 0.946661
1168.5, 0.950544
1173.5, 0.943206
1178.5, 0.951075
1183.5, 0.943019
1188.5, 0.943669
1193.5, 0.949122
1198.5, 0.947409
1203.5, 0.947372
1208.5, 0.946567
1213.5, 0.946499
1218.5, 0.948129
1223.5, 0.948962
1228.5, 0.951370
1233.5, 0.953795
1238.5, 0.949753
1243.5, 0.954584
1248.5, 0.953732
1253.5, 0.950496
1258.5, 0.951241
1263.5, 0.953523
1268.5, 0.951058
1273.5, 0.954152
1278.5, 0.950844
1283.5, 0.952353
1288.5, 0.952169
1293.5, 0.958452
1298.5, 0.951145
1303.5, 0.955029
1308.5, 0.956457
1313.5, 0.957957
1318.5, 0.954627
1323.5, 0.954536
1328.5, 0.951996
1333.5, 0.953498
1338.5, 0.953376
1343.5, 0.950943
1348.5, 0.949228
1353.5, 0.950781
1358.5, 0.949939
1363.5, 0.949095
1368.5, 0.952280
1373.5, 0.951437
1378.5, 0.953846
1383.5, 0.952248
1388.5, 0.950633
1393.5, 0.950690
1398.5, 0.933045
1403.5, 0.865512
1408.5, 0.903365
1413.5, 0.944489
1418.5, 0.953463
1423.5, 0.955183
1428.5, 0.952045
1433.5, 0.954595
1438.5, 0.952295
1443.5, 0.954763
1448.5, 0.955647
1453.5, 0.955711
1458.5, 0.956518
1463.5, 0.954115
1468.5, 0.953311
1473.5, 0.953325
1478.5, 0.955714
1483.5, 0.954064
1488.5, 0.953250
1493.5, 0.956425
1498.5, 0.955602
1503.5, 0.955760
1508.5, 0.954879
1513.5, 0.958107
1518.5, 0.956498
1523.5, 0.961325
1528.5, 0.955697
1534.0, 0.957261
1540.0, 0.955627
1546.0, 0.954059
1552.0, 0.958918
1558.0, 0.961328
1564.0, 0.958948
1570.5, 0.956514
1577.5, 0.955702
1584.5, 0.958921
1591.5, 0.964557
1598.5, 0.955632
1605.5, 0.961153
1612.5, 0.960246
1619.5, 0.958507
1626.5, 0.960833
1633.5, 0.958209
1640.5, 0.960479
1647.5, 0.962741
1654.5, 0.959324
1661.5, 0.963199
1668.5, 0.959804
1676.0, 0.949964
1684.0, 0.951399
1692.0, 0.946446
1700.0, 0.952783
1708.0, 0.953564
1716.0, 0.957505
1724.0, 0.954219
1732.0, 0.951825
1740.0, 0.952632
1748.0, 0.944617
1756.0, 0.952036
1764.0, 0.952122
1772.0, 0.957130
1780.0, 0.959613
1788.0, 0.953851
1796.0, 0.962564
1805.0, 0.962102
1815.0, 0.958927
1825.0, 0.952386
1835.0, 0.956333
1845.0, 0.953135
1855.0, 0.954159
1865.0, 0.958691
1875.0, 0.952005
1885.0, 0.954362
1895.0, 0.951028
1905.0, 0.942773
1915.0, 0.940146
1925.0, 0.941467
1935.0, 0.939605
1945.0, 0.942712
1955.0, 0.944290
1965.0, 0.944258
1975.0, 0.944099
1985.0, 0.945915
1995.0, 0.947954
2005.0, 0.947571
2015.0, 0.947900
2025.0, 0.950430
2035.0, 0.948943
2045.0, 0.946752
2055.0, 0.941951
2065.0, 0.925051
2075.0, 0.829771
2085.0, 0.681670
2095.0, 0.853495
2105.0, 0.916418
2115.0, 0.925960
2125.0, 0.941067
2135.0, 0.925583
2145.0, 0.900002
2155.0, 0.899739
2165.0, 0.910077
2175.0, 0.915442
2185.0, 0.916045
2195.0, 0.919654
2205.0, 0.914091
2215.0, 0.904665
2225.0, 0.930471
2235.0, 0.929739
2245.0, 0.926898
2255.0, 0.926460
2265.0, 0.905865
2275.0, 0.920400
2285.0, 0.923400
2295.0, 0.918300
2305.0, 0.914800
2315.0, 0.905600
2325.0, 0.895000
2335.0, 0.898429
2345.0, 0.897079
2355.0, 0.897094
2365.0, 0.887318
2375.0, 0.878097
2386.0, 0.886998
2400.0, 0.880153
2418.0, 0.866509
2440.0, 0.852747
2466.0, 0.827796
2496.0, 0.784736
2528.0, 0.714800
2560.0, 0.702730
2592.0, 0.774491
2624.0, 0.768748
2656.0, 0.792286
2688.0, 0.772396
2720.0, 0.666428
2752.0, 0.246553
2784.0, 0.501247
2816.0, 0.567885
2848.0, 0.531615
2880.0, 0.559672
2912.0, 0.557748
2944.0, 0.566622
2976.0, 0.602308
