Database of Origin,USGS Spectral Database
Sample Description,See USGS database for additional info
Date Added,2017-02-22 02:49:15.083317

Data ID,USGS_top05          
Sample ID,topaz_13.22719
Mineral Name,topaz

Wavelength
242.1, 0.489298
248.1, 0.500010
253.6, 0.517784
258.6, 0.540966
263.6, 0.572651
268.6, 0.599742
273.1, 0.633095
277.1, 0.660956
281.1, 0.683371
285.1, 0.700627
289.1, 0.713430
293.1, 0.723332
297.1, 0.736933
301.1, 0.735907
313.1, 0.751128
317.1, 0.763367
321.1, 0.778522
325.1, 0.790526
329.1, 0.795827
333.1, 0.810105
337.1, 0.812765
341.1, 0.818654
345.1, 0.828327
349.1, 0.835876
353.1, 0.840850
357.1, 0.845793
360.6, 0.849616
363.6, 0.853740
366.6, 0.855406
369.6, 0.856853
372.6, 0.861975
375.6, 0.860530
378.6, 0.862353
381.1, 0.862272
383.1, 0.863585
385.1, 0.864449
387.1, 0.866488
389.1, 0.865482
391.1, 0.867449
393.1, 0.869417
395.1, 0.868211
397.1, 0.869703
399.1, 0.869705
401.1, 0.869773
403.1, 0.870718
405.1, 0.870133
407.1, 0.869461
409.1, 0.869539
411.1, 0.876333
412.8, 0.871129
415.8, 0.875063
418.8, 0.875674
421.8, 0.875649
424.8, 0.876237
427.8, 0.880103
430.8, 0.882616
433.8, 0.881807
436.8, 0.883719
439.8, 0.886308
442.8, 0.885549
445.8, 0.890066
448.8, 0.890584
451.3, 0.894044
453.3, 0.893894
455.3, 0.891171
457.3, 0.893927
459.3, 0.895239
461.3, 0.895122
463.3, 0.899200
465.3, 0.897793
467.3, 0.901134
469.3, 0.899810
471.3, 0.901152
473.3, 0.902527
475.3, 0.901758
477.3, 0.902350
479.3, 0.903802
481.3, 0.901712
483.3, 0.903783
485.3, 0.905856
487.3, 0.907230
489.3, 0.904574
491.3, 0.903803
493.3, 0.903163
495.3, 0.905923
497.3, 0.909998
499.3, 0.907904
501.3, 0.906466
503.3, 0.907891
505.3, 0.905782
507.3, 0.906503
509.3, 0.910623
511.3, 0.908504
513.3, 0.909815
515.3, 0.909078
517.3, 0.908380
519.3, 0.910423
521.3, 0.909083
523.3, 0.908952
525.3, 0.909673
527.3, 0.909600
529.3, 0.910221
531.3, 0.909519
533.3, 0.908115
535.3, 0.906638
537.3, 0.903078
539.3, 0.907205
541.3, 0.906542
543.3, 0.907882
545.3, 0.907091
547.3, 0.905758
549.3, 0.909169
551.3, 0.908541
553.3, 0.908526
555.3, 0.908600
557.3, 0.909295
559.3, 0.909332
561.3, 0.910042
563.3, 0.910726
565.3, 0.909321
567.3, 0.912070
569.3, 0.910612
571.3, 0.910603
573.3, 0.910608
575.3, 0.909903
577.3, 0.911197
579.3, 0.911843
581.3, 0.912494
583.3, 0.912375
585.3, 0.913843
587.3, 0.914491
589.3, 0.915901
591.3, 0.916624
593.3, 0.919381
595.3, 0.920889
597.3, 0.920195
599.3, 0.921599
601.1, 0.921593
602.7, 0.923747
604.3, 0.923794
605.9, 0.923864
607.5, 0.923852
609.1, 0.925251
610.7, 0.926712
612.3, 0.926011
613.9, 0.926708
615.5, 0.926010
617.1, 0.926008
618.7, 0.926769
620.3, 0.926109
621.9, 0.930259
623.5, 0.928906
625.1, 0.926821
626.7, 0.926115
628.3, 0.928899
629.9, 0.929551
631.7, 0.928197
633.7, 0.928898
635.7, 0.930298
637.7, 0.929554
639.7, 0.929507
641.7, 0.932308
643.7, 0.931649
645.7, 0.934402
647.7, 0.931544
649.7, 0.932955
651.7, 0.931553
653.7, 0.930150
655.7, 0.930804
657.7, 0.932859
659.7, 0.932865
661.7, 0.934304
663.7, 0.936369
665.7, 0.931413
667.7, 0.935628
670.2, 0.934868
673.2, 0.934796
676.2, 0.936877
679.2, 0.936202
682.2, 0.938905
685.2, 0.934699
688.2, 0.940260
691.2, 0.939426
694.2, 0.937975
697.2, 0.939307
700.2, 0.941360
702.0, 0.938608
704.0, 0.938604
706.0, 0.940603
708.0, 0.939184
710.0, 0.939813
712.0, 0.939774
714.0, 0.938313
716.0, 0.942467
718.0, 0.941752
720.0, 0.941709
722.0, 0.937384
724.0, 0.941591
726.0, 0.941554
728.0, 0.942155
730.0, 0.939274
732.0, 0.939229
734.0, 0.941348
736.0, 0.942711
738.0, 0.941226
740.0, 0.945517
742.0, 0.943992
744.0, 0.943233
746.0, 0.944599
748.0, 0.944606
750.5, 0.942392
753.5, 0.943074
756.5, 0.944447
759.5, 0.942228
762.5, 0.942153
765.5, 0.946435
768.5, 0.944942
771.5, 0.944137
774.5, 0.947022
777.5, 0.946143
781.0, 0.945372
785.0, 0.945291
789.0, 0.946686
793.0, 0.948087
797.0, 0.945023
801.5, 0.945647
806.5, 0.946310
811.5, 0.945412
816.5, 0.947502
822.0, 0.946568
828.0, 0.945589
835.0, 0.943603
843.0, 0.946377
851.0, 0.946629
859.0, 0.961533
871.0, 0.952091
883.0, 0.958257
894.0, 0.959000
904.0, 0.956576
914.0, 0.958897
924.0, 0.959639
933.0, 0.961902
941.0, 0.961891
949.0, 0.960274
957.0, 0.957858
964.0, 0.958683
970.0, 0.965710
976.0, 0.962566
982.0, 0.960935
988.0, 0.964071
994.0, 0.964858
1000.0, 0.967963
1006.0, 0.967179
1012.0, 0.966374
1018.0, 0.968730
1023.5, 0.972669
1028.5, 0.971867
1033.5, 0.970264
1038.5, 0.975006
1043.5, 0.973420
1048.5, 0.967865
1053.5, 0.969417
1058.5, 0.974175
1063.5, 0.970201
1068.5, 0.975752
1073.5, 0.970979
1078.5, 0.974131
1083.5, 0.974104
1088.5, 0.978073
1093.5, 0.973317
1098.5, 0.971734
1103.5, 0.971739
1108.5, 0.978136
1113.5, 0.978148
1118.5, 0.976562
1123.5, 0.977372
1128.5, 0.976571
1133.5, 0.976587
1138.5, 0.979750
1143.5, 0.975718
1148.5, 0.979660
1153.5, 0.973215
1158.5, 0.978694
1163.5, 0.976990
1168.5, 0.976080
1173.5, 0.975947
1178.5, 0.972635
1183.5, 0.974931
1188.5, 0.977206
1193.5, 0.973902
1198.5, 0.981014
1203.5, 0.980171
1208.5, 0.976155
1213.5, 0.978530
1218.5, 0.978545
1223.5, 0.976166
1228.5, 0.976182
1233.5, 0.982605
1238.5, 0.981803
1243.5, 0.974604
1248.5, 0.982588
1253.5, 0.981753
1258.5, 0.983300
1263.5, 0.982412
1268.5, 0.983133
1273.5, 0.982226
1278.5, 0.983720
1283.5, 0.979599
1288.5, 0.983467
1293.5, 0.978520
1298.5, 0.979209
1303.5, 0.979885
1308.5, 0.986168
1313.5, 0.981236
1318.5, 0.981121
1323.5, 0.979413
1328.5, 0.977696
1333.5, 0.975991
1338.5, 0.972674
1343.5, 0.971819
1348.5, 0.972535
1353.5, 0.975691
1358.5, 0.974843
1363.5, 0.973196
1368.5, 0.970759
1373.5, 0.969927
1378.5, 0.971534
1383.5, 0.964309
1388.5, 0.969948
1393.5, 0.962758
1398.5, 0.936264
1403.5, 0.834126
1408.5, 0.885647
1413.5, 0.952552
1418.5, 0.964754
1423.5, 0.972123
1428.5, 0.973033
1433.5, 0.978800
1438.5, 0.974070
1443.5, 0.974949
1448.5, 0.979870
1453.5, 0.979122
1458.5, 0.974297
1463.5, 0.978360
1468.5, 0.979174
1473.5, 0.979985
1478.5, 0.974307
1483.5, 0.979134
1488.5, 0.979117
1493.5, 0.980700
1498.5, 0.979871
1503.5, 0.978301
1508.5, 0.982296
1513.5, 0.983096
1518.5, 0.976645
1523.5, 0.981476
1528.5, 0.980675
1534.0, 0.981470
1540.0, 0.980665
1546.0, 0.977462
1552.0, 0.978287
1558.0, 0.980719
1564.0, 0.977519
1570.5, 0.981567
1577.5, 0.981575
1584.5, 0.987230
1591.5, 0.981545
1598.5, 0.979886
1605.5, 0.979785
1612.5, 0.984543
1619.5, 0.981179
1626.5, 0.984281
1633.5, 0.981685
1640.5, 0.983139
1647.5, 0.981351
1654.5, 0.978750
1661.5, 0.981010
1668.5, 0.980852
1676.0, 0.975847
1684.0, 0.958684
1692.0, 0.968281
1700.0, 0.971392
1708.0, 0.974565
1716.0, 0.976913
1724.0, 0.974449
1732.0, 0.972851
1740.0, 0.972876
1748.0, 0.969723
1756.0, 0.973904
1764.0, 0.979704
1772.0, 0.974967
1780.0, 0.978264
1788.0, 0.979823
1796.0, 0.978803
1805.0, 0.980782
1815.0, 0.976785
1825.0, 0.978333
1835.0, 0.977415
1845.0, 0.975805
1855.0, 0.971164
1865.0, 0.971638
1875.0, 0.969017
1885.0, 0.970557
1895.0, 0.963182
1905.0, 0.963845
1915.0, 0.961205
1925.0, 0.957683
1935.0, 0.957444
1945.0, 0.954867
1955.0, 0.956444
1965.0, 0.954796
1975.0, 0.961104
1985.0, 0.962922
1995.0, 0.964132
2005.0, 0.960505
2015.0, 0.962406
2025.0, 0.958480
2035.0, 0.969058
2045.0, 0.953170
2055.0, 0.946757
2065.0, 0.911428
2075.0, 0.779559
2085.0, 0.603781
2095.0, 0.812761
2105.0, 0.899667
2115.0, 0.934729
2125.0, 0.930723
2135.0, 0.907291
2145.0, 0.880919
2155.0, 0.877435
2165.0, 0.895693
2175.0, 0.904209
2185.0, 0.907993
2195.0, 0.909159
2205.0, 0.897942
2215.0, 0.899006
2225.0, 0.923996
2235.0, 0.937016
2245.0, 0.933365
2255.0, 0.909511
2265.0, 0.888135
2275.0, 0.911911
2285.0, 0.914362
2295.0, 0.910210
2305.0, 0.906060
2315.0, 0.901914
2325.0, 0.885777
2335.0, 0.875067
2345.0, 0.876979
2355.0, 0.872201
2365.0, 0.869702
2375.0, 0.853261
2386.0, 0.859723
2400.0, 0.854475
2418.0, 0.833596
2440.0, 0.827001
2466.0, 0.788610
2496.0, 0.734277
2528.0, 0.651782
2560.0, 0.641273
2592.0, 0.719313
2624.0, 0.731975
2656.0, 0.759086
2688.0, 0.742874
2720.0, 0.545967
2752.0, 0.213224
2784.0, 0.503490
2816.0, 0.534805
2848.0, 0.520616
2880.0, 0.588840
2912.0, 0.510855
2944.0, 0.552772
2976.0, 0.572818
