Database of Origin, USGS Spectral Database
Sample Description, See USGS database for additional info
Date Added,2016-08-10 05:12:42.707624

Data ID,USGS_mus01          
Sample ID, muscovite_cu93-1.14848
Mineral Name, muscovite
Material Class,Phyllosilicate

Wavelength
1489.7, 0.357600
1490.13, 0.357312
1490.56, 0.356736
1490.98, 0.357216
1491.41, 0.356256
1491.84, 0.357504
1492.27, 0.359328
1492.7, 0.358848
1493.13, 0.357984
1493.56, 0.357888
1493.99, 0.358752
1494.42, 0.357792
1494.85, 0.357984
1495.29, 0.358848
1495.72, 0.360096
1496.15, 0.359520
1496.58, 0.358464
1497.01, 0.359616
1497.44, 0.359904
1497.88, 0.358848
1498.31, 0.358848
1498.74, 0.359040
1499.18, 0.358464
1499.61, 0.359712
1500.04, 0.360192
1500.48, 0.360480
1500.91, 0.360384
1501.35, 0.359328
1501.78, 0.360480
1502.22, 0.361728
1502.65, 0.361728
1503.09, 0.359808
1503.53, 0.360288
1503.96, 0.361824
1504.4, 0.361536
1504.83, 0.362784
1505.27, 0.364512
1505.71, 0.364128
1506.15, 0.364224
1506.58, 0.364992
1507.02, 0.364896
1507.46, 0.364992
1507.9, 0.364896
1508.34, 0.364992
1508.78, 0.365280
1509.21, 0.365472
1509.66, 0.366240
1510.09, 0.367296
1510.53, 0.367968
1510.97, 0.367680
1511.42, 0.367392
1511.86, 0.367872
1512.3, 0.368928
1512.74, 0.369216
1513.18, 0.370176
1513.62, 0.371136
1514.06, 0.370752
1514.51, 0.369696
1514.95, 0.370080
1515.39, 0.371712
1515.83, 0.372288
1516.28, 0.372000
1516.72, 0.373152
1517.16, 0.374400
1517.61, 0.374688
1518.05, 0.375360
1518.5, 0.375456
1518.94, 0.375360
1519.39, 0.376320
1519.83, 0.378048
1520.28, 0.378912
1520.73, 0.377952
1521.17, 0.378336
1521.62, 0.379296
1522.07, 0.379584
1522.51, 0.379584
1522.96, 0.379872
1523.41, 0.380256
1523.85, 0.381696
1524.3, 0.382176
1524.75, 0.382848
1525.2, 0.383328
1525.65, 0.383616
1526.1, 0.383808
1526.55, 0.384960
1527.0, 0.385536
1527.45, 0.385728
1527.9, 0.386400
1528.35, 0.387552
1528.8, 0.388128
1529.25, 0.388224
1529.7, 0.388416
1530.15, 0.388992
1530.6, 0.390432
1531.05, 0.391008
1531.51, 0.391488
1531.96, 0.391296
1532.41, 0.390240
1532.87, 0.390336
1533.32, 0.391488
1533.77, 0.392832
1534.23, 0.394368
1534.68, 0.395712
1535.14, 0.396288
1535.59, 0.396768
1536.05, 0.396096
1536.5, 0.396192
1536.96, 0.396480
1537.41, 0.397728
1537.87, 0.398688
1538.32, 0.398880
1538.78, 0.398496
1539.24, 0.398880
1539.7, 0.399744
1540.15, 0.401568
1540.61, 0.402912
1541.07, 0.402816
1541.53, 0.402720
1541.98, 0.403776
1542.44, 0.404352
1542.9, 0.404832
1543.36, 0.405408
1543.82, 0.405504
1544.28, 0.405024
1544.74, 0.406464
1545.2, 0.407808
1545.66, 0.408000
1546.12, 0.407712
1546.59, 0.408288
1547.05, 0.409152
1547.51, 0.409824
1547.97, 0.410400
1548.43, 0.410592
1548.9, 0.411456
1549.36, 0.412896
1549.82, 0.413280
1550.29, 0.412992
1550.75, 0.412704
1551.21, 0.413376
1551.68, 0.414240
1552.14, 0.414720
1552.61, 0.415008
1553.07, 0.414720
1553.54, 0.414912
1554.0, 0.415968
1554.47, 0.416160
1554.93, 0.416544
1555.4, 0.416928
1555.87, 0.417312
1556.34, 0.417792
1556.8, 0.418944
1557.27, 0.419904
1557.74, 0.420480
1558.21, 0.420288
1558.68, 0.420672
1559.14, 0.420672
1559.61, 0.420864
1560.08, 0.421248
1560.55, 0.422496
1561.02, 0.422976
1561.49, 0.422496
1561.96, 0.423840
1562.43, 0.425472
1562.9, 0.425376
1563.38, 0.425472
1563.85, 0.426528
1564.32, 0.427200
1564.79, 0.426624
1565.26, 0.426816
1565.74, 0.428448
1566.21, 0.428928
1566.68, 0.428352
1567.16, 0.428352
1567.63, 0.428736
1568.1, 0.430080
1568.58, 0.430560
1569.05, 0.431328
1569.53, 0.431424
1570.0, 0.431424
1570.48, 0.431808
1570.96, 0.432384
1571.43, 0.432768
1571.91, 0.433248
1572.39, 0.433152
1572.86, 0.433440
1573.34, 0.433536
1573.82, 0.433728
1574.3, 0.434016
1574.77, 0.434976
1575.25, 0.435072
1575.73, 0.435456
1576.21, 0.436896
1576.69, 0.437472
1577.17, 0.437472
1577.65, 0.438240
1578.13, 0.438240
1578.61, 0.438432
1579.09, 0.438720
1579.57, 0.438720
1580.05, 0.438528
1580.54, 0.439488
1581.02, 0.439968
1581.5, 0.440352
1581.98, 0.441120
1582.47, 0.441696
1582.95, 0.441888
1583.43, 0.441888
1583.92, 0.441984
1584.4, 0.442656
1584.88, 0.443136
1585.37, 0.443424
1585.85, 0.443808
1586.34, 0.444768
1586.82, 0.445248
1587.31, 0.445632
1587.8, 0.445152
1588.28, 0.444960
1588.77, 0.445824
1589.26, 0.445440
1589.74, 0.445344
1590.23, 0.446784
1590.72, 0.447072
1591.21, 0.447168
1591.7, 0.447072
1592.19, 0.447552
1592.67, 0.448032
1593.16, 0.448800
1593.65, 0.448992
1594.14, 0.449088
1594.63, 0.449376
1595.12, 0.450048
1595.61, 0.450048
1596.11, 0.450528
1596.6, 0.450912
1597.09, 0.451104
1597.58, 0.451104
1598.08, 0.452064
1598.57, 0.452448
1599.06, 0.452064
1599.55, 0.451968
1600.05, 0.452640
1600.54, 0.453696
1601.04, 0.454080
1601.53, 0.453984
1602.03, 0.454368
1602.52, 0.454560
1603.02, 0.454464
1603.51, 0.454848
1604.01, 0.454752
1604.5, 0.454368
1605.0, 0.455232
1605.5, 0.455808
1606.0, 0.456384
1606.49, 0.456768
1606.99, 0.456672
1607.49, 0.456192
1607.99, 0.457248
1608.49, 0.457920
1608.99, 0.457056
1609.49, 0.456576
1609.99, 0.457824
1610.49, 0.458592
1610.99, 0.457920
1611.49, 0.457824
1611.99, 0.458880
1612.49, 0.459840
1612.99, 0.460800
1613.49, 0.460704
1614.0, 0.460800
1614.5, 0.460608
1615.0, 0.460320
1615.51, 0.460608
1616.01, 0.460992
1616.51, 0.461376
1617.02, 0.461376
1617.52, 0.461184
1618.03, 0.461856
1618.53, 0.462240
1619.04, 0.462624
1619.54, 0.462528
1620.05, 0.462816
1620.55, 0.463104
1621.06, 0.463296
1621.57, 0.462816
1622.08, 0.462528
1622.58, 0.462816
1623.09, 0.463680
1623.6, 0.464064
1624.11, 0.464256
1624.62, 0.464544
1625.13, 0.465408
1625.64, 0.465504
1626.15, 0.465120
1626.66, 0.464640
1627.17, 0.465120
1627.68, 0.465408
1628.19, 0.465888
1628.7, 0.465792
1629.21, 0.465984
1629.72, 0.465888
1630.24, 0.466176
1630.75, 0.466656
1631.26, 0.466944
1631.78, 0.466848
1632.29, 0.466848
1632.8, 0.466560
1633.32, 0.466560
1633.83, 0.466944
1634.35, 0.467424
1634.86, 0.467808
1635.38, 0.468192
1635.9, 0.468384
1636.41, 0.468384
1636.93, 0.468192
1637.45, 0.468864
1637.96, 0.469056
1638.48, 0.469152
1639.0, 0.469248
1639.52, 0.469440
1640.04, 0.469248
1640.56, 0.469248
1641.08, 0.469632
1641.59, 0.469920
1642.11, 0.470016
1642.63, 0.470112
1643.16, 0.469920
1643.68, 0.470016
1644.2, 0.470208
1644.72, 0.470496
1645.24, 0.470304
1645.76, 0.470784
1646.29, 0.471552
1646.81, 0.471456
1647.33, 0.471264
1647.86, 0.471744
1648.38, 0.472224
1648.9, 0.472320
1649.43, 0.471936
1649.95, 0.472032
1650.48, 0.472224
1651.0, 0.472416
1651.53, 0.472512
1652.06, 0.472800
1652.58, 0.473184
1653.11, 0.472992
1653.64, 0.472608
1654.17, 0.472512
1654.69, 0.473376
1655.22, 0.474240
1655.75, 0.474144
1656.28, 0.473952
1656.81, 0.473952
1657.34, 0.474624
1657.87, 0.475296
1658.4, 0.475488
1658.93, 0.475488
1659.46, 0.475584
1659.99, 0.475680
1660.52, 0.475296
1661.05, 0.475104
1661.59, 0.475584
1662.12, 0.475968
1662.65, 0.476544
1663.19, 0.477024
1663.72, 0.477216
1664.26, 0.476928
1664.79, 0.477024
1665.32, 0.477120
1665.86, 0.477312
1666.39, 0.477792
1666.93, 0.477792
1667.47, 0.477696
1668.0, 0.477696
1668.54, 0.477600
1669.08, 0.477888
1669.61, 0.478464
1670.15, 0.478752
1670.69, 0.478656
1671.23, 0.478944
1671.77, 0.478464
1672.31, 0.478368
1672.85, 0.479424
1673.39, 0.480000
1673.93, 0.480192
1674.47, 0.479712
1675.01, 0.479904
1675.55, 0.480384
1676.09, 0.479904
1676.64, 0.479520
1677.18, 0.479712
1677.72, 0.479904
1678.26, 0.480192
1678.81, 0.480384
1679.35, 0.480288
1679.89, 0.480576
1680.44, 0.480672
1680.98, 0.480480
1681.53, 0.480576
1682.07, 0.481152
1682.62, 0.481536
1683.17, 0.481728
1683.71, 0.481440
1684.26, 0.481920
1684.81, 0.482112
1685.36, 0.481920
1685.9, 0.481632
1686.45, 0.481920
1687.0, 0.482112
1687.55, 0.482208
1688.1, 0.482496
1688.65, 0.482688
1689.2, 0.482592
1689.75, 0.482592
1690.3, 0.482784
1690.85, 0.483168
1691.41, 0.482880
1691.96, 0.482784
1692.51, 0.482976
1693.06, 0.483456
1693.61, 0.483264
1694.17, 0.483456
1694.72, 0.483360
1695.28, 0.482976
1695.83, 0.483168
1696.39, 0.483744
1696.94, 0.483264
1697.5, 0.483264
1698.05, 0.483648
1698.61, 0.483744
1699.17, 0.483840
1699.72, 0.484032
1700.28, 0.483840
1700.84, 0.483648
1701.4, 0.483840
1701.95, 0.483456
1702.51, 0.483168
1703.07, 0.483936
1703.63, 0.484416
1704.19, 0.484800
1704.75, 0.484992
1705.31, 0.484800
1705.88, 0.484800
1706.44, 0.484992
1707.0, 0.485088
1707.56, 0.485472
1708.12, 0.485760
1708.69, 0.485280
1709.25, 0.485184
1709.81, 0.485472
1710.38, 0.484992
1710.94, 0.484896
1711.51, 0.485472
1712.07, 0.485568
1712.64, 0.485568
1713.2, 0.485664
1713.77, 0.485664
1714.34, 0.485472
1714.9, 0.486048
1715.47, 0.486528
1716.04, 0.486432
1716.61, 0.485664
1717.18, 0.485184
1717.74, 0.485760
1718.31, 0.485952
1718.88, 0.485472
1719.45, 0.485568
1720.02, 0.486048
1720.59, 0.486240
1721.17, 0.486144
1721.74, 0.486144
1722.31, 0.486528
1722.88, 0.486624
1723.45, 0.486336
1724.03, 0.486048
1724.6, 0.486240
1725.18, 0.486528
1725.75, 0.486720
1726.33, 0.486624
1726.9, 0.487008
1727.48, 0.487488
1728.05, 0.487680
1728.63, 0.487392
1729.2, 0.487008
1729.78, 0.486912
1730.36, 0.487392
1730.94, 0.487584
1731.51, 0.487584
1732.09, 0.487584
1732.67, 0.487392
1733.25, 0.487392
1733.83, 0.487680
1734.41, 0.487872
1734.99, 0.487968
1735.57, 0.487776
1736.15, 0.487872
1736.73, 0.488160
1737.32, 0.488160
1737.9, 0.488064
1738.48, 0.488064
1739.07, 0.488352
1739.65, 0.488832
1740.23, 0.488832
1740.82, 0.488544
1741.4, 0.488448
1741.99, 0.488544
1742.57, 0.488928
1743.16, 0.489024
1743.74, 0.488736
1744.33, 0.488832
1744.92, 0.489120
1745.51, 0.489408
1746.09, 0.490176
1746.68, 0.490368
1747.27, 0.489696
1747.86, 0.489408
1748.45, 0.489504
1749.04, 0.489696
1749.63, 0.489600
1750.22, 0.489792
1750.81, 0.489696
1751.4, 0.489888
1751.99, 0.489696
1752.59, 0.489408
1753.18, 0.489792
1753.77, 0.490464
1754.37, 0.490560
1754.96, 0.490272
1755.56, 0.490176
1756.15, 0.490176
1756.74, 0.490272
1757.34, 0.490656
1757.94, 0.490464
1758.53, 0.490560
1759.13, 0.490560
1759.73, 0.490560
1760.32, 0.490656
1760.92, 0.490848
1761.52, 0.490560
1762.12, 0.490176
1762.72, 0.490272
1763.32, 0.490464
1763.92, 0.490656
1764.52, 0.491232
1765.12, 0.490752
1765.72, 0.490560
1766.32, 0.490848
1766.92, 0.490944
1767.53, 0.490752
1768.13, 0.490848
1768.73, 0.491040
1769.34, 0.491232
1769.94, 0.491232
1770.55, 0.491040
1771.15, 0.490944
1771.76, 0.490944
1772.36, 0.491232
1772.97, 0.491232
1773.57, 0.490944
1774.18, 0.491328
1774.79, 0.491328
1775.4, 0.491328
1776.0, 0.491040
1776.61, 0.490848
1777.22, 0.490560
1777.83, 0.490752
1778.44, 0.490848
1779.05, 0.490944
1779.66, 0.490752
1780.27, 0.490848
1780.88, 0.491136
1781.5, 0.491136
1782.11, 0.491136
1782.72, 0.491232
1783.33, 0.491328
1783.95, 0.491232
1784.56, 0.490944
1785.18, 0.490944
1785.79, 0.490944
1786.41, 0.490944
1787.02, 0.490944
1787.64, 0.490848
1788.26, 0.490944
1788.87, 0.491040
1789.49, 0.491040
1790.11, 0.491040
1790.73, 0.491136
1791.35, 0.491424
1791.96, 0.490944
1792.58, 0.490944
1793.21, 0.491040
1793.83, 0.491040
1794.45, 0.491040
1795.07, 0.491040
1795.69, 0.491040
1796.31, 0.491328
1796.93, 0.490944
1797.56, 0.490752
1798.18, 0.491424
1798.8, 0.491808
1799.43, 0.491136
1800.05, 0.490848
1800.68, 0.491136
1801.3, 0.491232
1801.93, 0.491136
1802.56, 0.491232
1803.18, 0.491424
1803.81, 0.491808
1804.44, 0.491808
1805.07, 0.491520
1805.7, 0.491424
1806.33, 0.491712
1806.95, 0.491616
1807.58, 0.491712
1808.22, 0.491808
1808.85, 0.491424
1809.48, 0.491616
1810.11, 0.492000
1810.74, 0.491808
1811.38, 0.491712
1812.01, 0.492000
1812.64, 0.492192
1813.28, 0.492192
1813.91, 0.492096
1814.55, 0.492096
1815.18, 0.492192
1815.82, 0.492192
1816.45, 0.492192
1817.09, 0.492288
1817.73, 0.492096
1818.36, 0.492384
1819.0, 0.492480
1819.64, 0.492000
1820.28, 0.492000
1820.92, 0.492288
1821.56, 0.492480
1822.2, 0.492576
1822.84, 0.493056
1823.48, 0.493056
1824.12, 0.492864
1824.76, 0.492672
1825.41, 0.492384
1826.05, 0.491808
1826.69, 0.492480
1827.34, 0.493440
1827.98, 0.493440
1828.63, 0.492960
1829.27, 0.492960
1829.92, 0.492768
1830.56, 0.492672
1831.21, 0.492864
1831.86, 0.492864
1832.5, 0.492576
1833.15, 0.492768
1833.8, 0.493056
1834.45, 0.493248
1835.1, 0.492576
1835.75, 0.492096
1836.4, 0.492192
1837.05, 0.492384
1837.7, 0.492480
1838.35, 0.493056
1839.01, 0.492480
1839.66, 0.492000
1840.31, 0.492576
1840.96, 0.492480
1841.62, 0.491808
1842.27, 0.492000
1842.93, 0.492384
1843.58, 0.492576
1844.24, 0.492480
1844.9, 0.492480
1845.55, 0.492480
1846.21, 0.492192
1846.87, 0.491904
1847.53, 0.492000
1848.18, 0.491712
1848.84, 0.492000
1849.5, 0.492288
1850.16, 0.492576
1850.82, 0.492192
1851.48, 0.492288
1852.14, 0.492480
1852.81, 0.491904
1853.47, 0.491136
1854.13, 0.491136
1854.8, 0.491328
1855.46, 0.491040
1856.12, 0.490752
1856.79, 0.491136
1857.45, 0.491232
1858.12, 0.491232
1858.79, 0.491040
1859.45, 0.490464
1860.12, 0.490272
1860.79, 0.490656
1861.46, 0.490656
1862.12, 0.490368
1862.79, 0.490368
1863.46, 0.490176
1864.13, 0.490176
1864.8, 0.490080
1865.48, 0.489792
1866.15, 0.489504
1866.82, 0.489024
1867.49, 0.488640
1868.16, 0.488352
1868.84, 0.487968
1869.51, 0.487296
1870.19, 0.486624
1870.86, 0.486240
1871.54, 0.486240
1872.21, 0.485952
1872.89, 0.485184
1873.56, 0.484800
1874.24, 0.484512
1874.92, 0.483840
1875.6, 0.483456
1876.28, 0.482304
1876.96, 0.481152
1877.64, 0.480672
1878.32, 0.480192
1879.0, 0.479616
1879.68, 0.478944
1880.36, 0.477696
1881.04, 0.476256
1881.73, 0.475296
1882.41, 0.474720
1883.09, 0.473664
1883.78, 0.472224
1884.46, 0.471168
1885.15, 0.470112
1885.83, 0.468768
1886.52, 0.467328
1887.21, 0.465696
1887.89, 0.464448
1888.58, 0.463296
1889.27, 0.461568
1889.96, 0.459456
1890.65, 0.457824
1891.34, 0.456288
1892.03, 0.454848
1892.72, 0.453120
1893.41, 0.450720
1894.1, 0.448608
1894.79, 0.446784
1895.49, 0.444576
1896.18, 0.442560
1896.87, 0.440160
1897.57, 0.437760
1898.26, 0.435552
1898.96, 0.433440
1899.65, 0.431328
1900.35, 0.429408
1901.05, 0.427680
1901.74, 0.426144
1902.44, 0.424800
1903.14, 0.423552
1903.84, 0.422112
1904.54, 0.420672
1905.24, 0.419520
1905.94, 0.418944
1906.64, 0.418656
1907.34, 0.418272
1908.04, 0.417792
1908.75, 0.417888
1909.45, 0.417888
1910.15, 0.417792
1910.86, 0.417696
1911.56, 0.417600
1912.27, 0.417984
1912.97, 0.418368
1913.68, 0.418656
1914.39, 0.419520
1915.09, 0.420192
1915.8, 0.420672
1916.51, 0.421344
1917.22, 0.421920
1917.93, 0.422304
1918.64, 0.422976
1919.35, 0.423552
1920.06, 0.424128
1920.77, 0.424992
1921.48, 0.426144
1922.19, 0.426912
1922.91, 0.427680
1923.62, 0.428160
1924.33, 0.428832
1925.05, 0.429792
1925.76, 0.430464
1926.48, 0.430944
1927.19, 0.431136
1927.91, 0.431520
1928.63, 0.432288
1929.35, 0.433056
1930.07, 0.433920
1930.78, 0.434880
1931.5, 0.435456
1932.22, 0.435744
1932.94, 0.436128
1933.66, 0.436416
1934.39, 0.436992
1935.11, 0.437472
1935.83, 0.438048
1936.55, 0.438624
1937.28, 0.439008
1938.0, 0.439488
1938.73, 0.439680
1939.45, 0.440160
1940.18, 0.440736
1940.9, 0.440736
1941.63, 0.441024
1942.36, 0.441792
1943.09, 0.442272
1943.81, 0.442368
1944.54, 0.442464
1945.27, 0.442752
1946.0, 0.443136
1946.73, 0.443232
1947.47, 0.443520
1948.2, 0.443808
1948.93, 0.444192
1949.66, 0.444480
1950.4, 0.444672
1951.13, 0.444960
1951.86, 0.445248
1952.6, 0.445248
1953.34, 0.445248
1954.07, 0.445248
1954.81, 0.445728
1955.55, 0.446112
1956.29, 0.446496
1957.02, 0.446784
1957.76, 0.446592
1958.5, 0.446400
1959.24, 0.446592
1959.98, 0.446880
1960.72, 0.446880
1961.47, 0.447072
1962.21, 0.447360
1962.95, 0.447744
1963.7, 0.447840
1964.44, 0.447840
1965.18, 0.448032
1965.93, 0.448032
1966.67, 0.448128
1967.42, 0.448224
1968.17, 0.448512
1968.92, 0.448800
1969.66, 0.448608
1970.41, 0.448704
1971.16, 0.448896
1971.91, 0.449184
1972.66, 0.449376
1973.41, 0.449280
1974.16, 0.449280
1974.92, 0.449568
1975.67, 0.449856
1976.42, 0.449856
1977.18, 0.449952
1977.93, 0.450144
1978.69, 0.450336
1979.44, 0.450336
1980.2, 0.450144
1980.95, 0.450240
1981.71, 0.450624
1982.47, 0.450720
1983.23, 0.450816
1983.99, 0.450720
1984.74, 0.451008
1985.51, 0.451392
1986.27, 0.451488
1987.03, 0.451392
1987.79, 0.451488
1988.55, 0.451488
1989.32, 0.451680
1990.08, 0.451680
1990.84, 0.451872
1991.61, 0.451968
1992.37, 0.451872
1993.14, 0.452064
1993.9, 0.452160
1994.67, 0.452256
1995.44, 0.452256
1996.21, 0.452160
1996.98, 0.452448
1997.75, 0.452640
1998.52, 0.452736
1999.29, 0.453024
2000.06, 0.453312
2000.83, 0.453216
2001.6, 0.453408
2002.38, 0.453696
2003.15, 0.453888
2003.93, 0.453792
2004.7, 0.453888
2005.48, 0.453696
2006.25, 0.454080
2007.03, 0.454176
2007.81, 0.454464
2008.58, 0.454656
2009.36, 0.454752
2010.14, 0.454848
2010.92, 0.455232
2011.7, 0.455328
2012.48, 0.455616
2013.26, 0.455808
2014.05, 0.456000
2014.83, 0.456288
2015.61, 0.456672
2016.4, 0.456576
2017.18, 0.456576
2017.97, 0.456480
2018.75, 0.456864
2019.54, 0.457344
2020.32, 0.457344
2021.11, 0.457440
2021.9, 0.457920
2022.69, 0.458304
2023.48, 0.458592
2024.27, 0.458592
2025.06, 0.458592
2025.85, 0.458688
2026.64, 0.458784
2027.44, 0.458976
2028.23, 0.459264
2029.02, 0.459456
2029.82, 0.459552
2030.61, 0.459840
2031.41, 0.460224
2032.2, 0.460224
2033.0, 0.460224
2033.8, 0.460416
2034.6, 0.460704
2035.4, 0.461088
2036.2, 0.461088
2037.0, 0.460608
2037.8, 0.460704
2038.6, 0.460896
2039.4, 0.461088
2040.2, 0.461184
2041.01, 0.461472
2041.81, 0.461664
2042.61, 0.461856
2043.42, 0.461856
2044.22, 0.461760
2045.03, 0.461088
2045.84, 0.461184
2046.65, 0.461568
2047.46, 0.461760
2048.26, 0.461760
2049.07, 0.461664
2049.88, 0.461280
2050.69, 0.461376
2051.51, 0.461760
2052.32, 0.461856
2053.13, 0.461664
2053.94, 0.461568
2054.76, 0.461280
2055.57, 0.461568
2056.39, 0.461568
2057.2, 0.461280
2058.02, 0.460992
2058.84, 0.460608
2059.66, 0.460800
2060.48, 0.461280
2061.29, 0.460992
2062.11, 0.460704
2062.94, 0.460608
2063.76, 0.460512
2064.58, 0.460416
2065.4, 0.460320
2066.22, 0.459936
2067.05, 0.459744
2067.87, 0.459936
2068.7, 0.460128
2069.52, 0.459552
2070.35, 0.459552
2071.18, 0.459552
2072.0, 0.459264
2072.83, 0.458880
2073.66, 0.458592
2074.49, 0.458304
2075.32, 0.458112
2076.15, 0.458016
2076.98, 0.457824
2077.82, 0.457344
2078.65, 0.457056
2079.48, 0.456864
2080.32, 0.456864
2081.15, 0.456672
2081.99, 0.456096
2082.83, 0.455712
2083.66, 0.455712
2084.5, 0.455232
2085.34, 0.454752
2086.18, 0.454272
2087.02, 0.453888
2087.86, 0.453600
2088.7, 0.453216
2089.54, 0.452736
2090.39, 0.452352
2091.23, 0.451968
2092.07, 0.451680
2092.92, 0.451392
2093.76, 0.451008
2094.61, 0.450720
2095.45, 0.450528
2096.3, 0.450048
2097.15, 0.449472
2098.0, 0.448896
2098.85, 0.448416
2099.7, 0.448032
2100.55, 0.447552
2101.4, 0.447072
2102.25, 0.446880
2103.1, 0.446496
2103.96, 0.446016
2104.81, 0.445824
2105.67, 0.445440
2106.52, 0.444576
2107.38, 0.444192
2108.24, 0.444096
2109.09, 0.443808
2109.95, 0.443232
2110.81, 0.442944
2111.67, 0.442848
2112.53, 0.442752
2113.39, 0.442464
2114.25, 0.442080
2115.12, 0.441888
2115.98, 0.441792
2116.84, 0.441408
2117.71, 0.441312
2118.58, 0.441216
2119.44, 0.441216
2120.31, 0.441312
2121.18, 0.441504
2122.04, 0.440832
2122.91, 0.440640
2123.78, 0.440928
2124.65, 0.440736
2125.52, 0.440832
2126.4, 0.441216
2127.27, 0.441216
2128.14, 0.441120
2129.02, 0.441024
2129.89, 0.441216
2130.77, 0.441024
2131.64, 0.441024
2132.52, 0.441312
2133.4, 0.441312
2134.27, 0.441120
2135.15, 0.441216
2136.03, 0.441120
2136.91, 0.441216
2137.79, 0.441312
2138.68, 0.441504
2139.56, 0.441504
2140.44, 0.441024
2141.33, 0.440832
2142.21, 0.441024
2143.1, 0.440736
2143.99, 0.440352
2144.87, 0.440160
2145.76, 0.439968
2146.65, 0.439680
2147.54, 0.439392
2148.43, 0.439008
2149.32, 0.438720
2150.21, 0.438240
2151.1, 0.437856
2151.99, 0.437472
2152.89, 0.436992
2153.78, 0.436704
2154.68, 0.436224
2155.57, 0.435264
2156.47, 0.434592
2157.37, 0.434208
2158.27, 0.433632
2159.16, 0.432672
2160.06, 0.431904
2160.96, 0.431136
2161.86, 0.430656
2162.77, 0.429792
2163.67, 0.429120
2164.57, 0.428160
2165.48, 0.427008
2166.38, 0.426144
2167.29, 0.425280
2168.2, 0.424224
2169.1, 0.423168
2170.01, 0.421536
2170.92, 0.419904
2171.83, 0.418752
2172.74, 0.417408
2173.65, 0.416064
2174.56, 0.414432
2175.47, 0.412608
2176.39, 0.410592
2177.3, 0.408576
2178.22, 0.406368
2179.13, 0.403968
2180.05, 0.401856
2180.96, 0.399360
2181.88, 0.396864
2182.8, 0.394080
2183.72, 0.391200
2184.64, 0.388224
2185.56, 0.385248
2186.48, 0.382176
2187.41, 0.379584
2188.33, 0.376704
2189.25, 0.373536
2190.18, 0.369984
2191.1, 0.366624
2192.03, 0.363648
2192.96, 0.360768
2193.89, 0.357888
2194.82, 0.355104
2195.74, 0.352512
2196.68, 0.350208
2197.61, 0.347808
2198.54, 0.345504
2199.47, 0.343296
2200.4, 0.341184
2201.34, 0.339552
2202.28, 0.338016
2203.21, 0.336672
2204.15, 0.335616
2205.08, 0.334464
2206.02, 0.333408
2206.96, 0.333024
2207.9, 0.332928
2208.84, 0.333024
2209.78, 0.333024
2210.73, 0.333120
2211.67, 0.333696
2212.61, 0.334656
2213.56, 0.335712
2214.5, 0.336864
2215.45, 0.337920
2216.4, 0.338880
2217.35, 0.340128
2218.3, 0.341184
2219.24, 0.342720
2220.2, 0.344544
2221.15, 0.346368
2222.1, 0.348096
2223.05, 0.349920
2224.0, 0.351744
2224.96, 0.353856
2225.91, 0.355872
2226.87, 0.357792
2227.83, 0.359616
2228.79, 0.361632
2229.74, 0.363456
2230.7, 0.364896
2231.66, 0.366144
2232.63, 0.367776
2233.59, 0.369216
2234.55, 0.370464
2235.51, 0.371520
2236.48, 0.372576
2237.44, 0.373344
2238.41, 0.374208
2239.38, 0.375168
2240.34, 0.375840
2241.31, 0.376320
2242.28, 0.377088
2243.25, 0.377856
2244.22, 0.378624
2245.19, 0.379392
2246.17, 0.379680
2247.14, 0.380352
2248.12, 0.381216
2249.09, 0.381888
2250.07, 0.382752
2251.04, 0.383808
2252.02, 0.384768
2253.0, 0.385632
2253.98, 0.386496
2254.96, 0.387648
2255.94, 0.388896
2256.92, 0.390048
2257.91, 0.391296
2258.89, 0.392352
2259.88, 0.393408
2260.86, 0.394368
2261.85, 0.395424
2262.83, 0.396288
2263.82, 0.397152
2264.81, 0.397920
2265.8, 0.398496
2266.79, 0.398976
2267.78, 0.399456
2268.78, 0.399744
2269.77, 0.399936
2270.76, 0.399744
2271.76, 0.400032
2272.75, 0.400224
2273.75, 0.400416
2274.75, 0.400608
2275.75, 0.400704
2276.75, 0.400512
2277.75, 0.400512
2278.75, 0.400416
2279.75, 0.400128
2280.75, 0.399840
2281.76, 0.399648
2282.76, 0.399360
2283.77, 0.398784
2284.77, 0.398304
2285.78, 0.398208
2286.79, 0.398112
2287.8, 0.397824
2288.81, 0.397152
2289.82, 0.396480
2290.83, 0.396096
2291.84, 0.395808
2292.86, 0.395424
2293.87, 0.395040
2294.89, 0.394272
2295.91, 0.393312
2296.92, 0.392544
2297.94, 0.392064
2298.96, 0.391488
2299.98, 0.390912
2301.0, 0.390144
2302.02, 0.389184
2303.04, 0.388320
2304.07, 0.387360
2305.09, 0.386304
2306.12, 0.385440
2307.15, 0.384480
2308.17, 0.383424
2309.2, 0.382272
2310.23, 0.381216
2311.26, 0.380064
2312.29, 0.378912
2313.32, 0.377664
2314.35, 0.376224
2315.39, 0.374880
2316.42, 0.373440
2317.46, 0.371904
2318.5, 0.370464
2319.53, 0.369312
2320.57, 0.368160
2321.61, 0.366432
2322.65, 0.364704
2323.69, 0.363168
2324.73, 0.361632
2325.78, 0.359808
2326.82, 0.358272
2327.86, 0.356736
2328.91, 0.355296
2329.96, 0.353472
2331.01, 0.351840
2332.05, 0.350016
2333.1, 0.348288
2334.15, 0.346560
2335.21, 0.344928
2336.26, 0.343488
2337.31, 0.342048
2338.36, 0.340512
2339.42, 0.338880
2340.48, 0.337248
2341.53, 0.335808
2342.59, 0.334560
2343.65, 0.333600
2344.71, 0.332736
2345.77, 0.331776
2346.83, 0.330912
2347.9, 0.330432
2348.96, 0.329664
2350.02, 0.329088
2351.09, 0.329088
2352.16, 0.329088
2353.23, 0.328992
2354.29, 0.329184
2355.36, 0.329568
2356.43, 0.329952
2357.51, 0.330240
2358.58, 0.330528
2359.65, 0.331008
2360.73, 0.331776
2361.8, 0.332256
2362.88, 0.332544
2363.96, 0.333120
2365.03, 0.333504
2366.11, 0.333408
2367.19, 0.333312
2368.27, 0.333312
2369.36, 0.333696
2370.44, 0.333984
2371.53, 0.334176
2372.61, 0.334080
2373.7, 0.333888
2374.78, 0.333696
2375.87, 0.333792
2376.96, 0.333792
2378.05, 0.333792
2379.14, 0.333792
2380.24, 0.333600
2381.33, 0.333216
2382.42, 0.333216
2383.52, 0.333024
2384.61, 0.333216
2385.71, 0.333504
2386.81, 0.333600
2387.91, 0.333600
2389.01, 0.333792
2390.11, 0.333984
2391.22, 0.334080
2392.32, 0.333792
2393.42, 0.333888
2394.53, 0.334080
2395.64, 0.334080
2396.74, 0.333984
2397.85, 0.333792
2398.96, 0.333312
2400.07, 0.333216
2401.18, 0.333216
2402.3, 0.332928
2403.41, 0.332352
2404.52, 0.331968
2405.64, 0.331680
2406.76, 0.331008
2407.88, 0.330336
2408.99, 0.329856
2410.11, 0.329280
2411.23, 0.328608
2412.36, 0.327744
2413.48, 0.326880
2414.6, 0.326208
2415.73, 0.325728
2416.85, 0.324960
2417.98, 0.324000
2419.11, 0.322944
2420.24, 0.322176
2421.37, 0.321312
2422.5, 0.320352
2423.64, 0.319296
2424.77, 0.318336
2425.9, 0.317472
2427.04, 0.316800
2428.18, 0.316128
2429.31, 0.315072
2430.45, 0.314016
2431.59, 0.313248
2432.73, 0.312576
2433.88, 0.311712
2435.02, 0.310848
2436.16, 0.310272
2437.31, 0.309792
2438.45, 0.309216
2439.6, 0.308544
2440.75, 0.308160
2441.9, 0.308352
2443.05, 0.308256
2444.2, 0.307872
2445.35, 0.307584
2446.51, 0.307392
2447.67, 0.307488
2448.82, 0.307584
2449.98, 0.307680
2451.14, 0.307680
2452.3, 0.308064
2453.46, 0.308160
2454.62, 0.308256
2455.78, 0.308160
2456.94, 0.308160
2458.11, 0.308064
2459.28, 0.308256
2460.44, 0.308640
2461.61, 0.308832
2462.78, 0.309024
2463.95, 0.309312
2465.12, 0.309504
2466.3, 0.309504
2467.47, 0.309600
2468.65, 0.309984
2469.82, 0.310080
2471.0, 0.310272
2472.18, 0.310368
2473.36, 0.310656
2474.54, 0.310944
2475.72, 0.311136
2476.9, 0.310944
2478.08, 0.310752
2479.27, 0.310848
2480.46, 0.310848
2481.64, 0.311040
2482.83, 0.311232
2484.02, 0.311040
2485.21, 0.311136
2486.4, 0.310944
2487.6, 0.310656
2488.79, 0.310560
2489.99, 0.310752
2491.18, 0.310560
2492.38, 0.310656
2493.58, 0.310656
2494.78, 0.310656
2495.98, 0.310656
2497.18, 0.310752
2498.39, 0.310656
2499.59, 0.310944
2500.8, 0.311232
2502.01, 0.311328
2503.21, 0.311232
2504.42, 0.310944
2505.63, 0.311040
2506.84, 0.311520
2508.06, 0.311424
2509.27, 0.311232
2510.49, 0.311136
2511.7, 0.311424
2512.92, 0.311904
2514.14, 0.312096
2515.36, 0.312192
2516.58, 0.312384
2517.8, 0.312480
2519.03, 0.312768
2520.25, 0.312768
2521.48, 0.312864
2522.7, 0.313056
2523.93, 0.313344
2525.16, 0.313248
2526.39, 0.313056
2527.62, 0.313056
2528.86, 0.313152
2530.09, 0.313152
2531.33, 0.313344
2532.56, 0.313248
2533.8, 0.313152
2535.04, 0.312864
2536.28, 0.312672
2537.52, 0.312672
2538.76, 0.313056
2540.01, 0.313056
2541.25, 0.312288
2542.5, 0.311712
2543.75, 0.311904
2544.99, 0.311904
2546.24, 0.311808
2547.49, 0.311520
2548.75, 0.311520
2550.0, 0.310848
2551.26, 0.310464
2552.51, 0.310080
2553.77, 0.309984
2555.03, 0.309984
2556.29, 0.309600
2557.55, 0.308928
2558.81, 0.308256
2560.08, 0.306912
2561.34, 0.305856
2562.61, 0.305472
2563.88, 0.305184
2565.14, 0.305088
2566.41, 0.305184
2567.68, 0.304512
2568.96, 0.303264
2570.23, 0.302784
2571.51, 0.302592
2572.78, 0.300960
2574.06, 0.300960
2575.34, 0.301056
2576.62, 0.300288
2577.9, 0.300192
2579.18, 0.299808
2580.47, 0.298464
2581.75, 0.297888
2583.04, 0.296448
2584.32, 0.295968
2585.61, 0.296064
2586.9, 0.295200
2588.2, 0.295104
2589.49, 0.295008
2590.78, 0.294624
2592.08, 0.293280
2593.37, 0.289536
2594.67, 0.286752
2595.97, 0.288480
2597.27, 0.290304
2598.57, 0.290496
2599.88, 0.289536
2601.18, 0.288192
2602.49, 0.287328
2603.79, 0.285984
2605.1, 0.284352
2606.41, 0.284544
2607.72, 0.284832
2609.03, 0.284256
2610.35, 0.284256
2611.66, 0.284256
2612.98, 0.283776
2614.3, 0.283008
2615.62, 0.281376
2616.94, 0.280608
2618.26, 0.280992
2619.58, 0.279264
2620.91, 0.278880
2622.23, 0.280032
2623.56, 0.280032
2624.89, 0.278976
2626.22, 0.277248
2627.55, 0.277248
2628.88, 0.276288
2630.21, 0.274464
2631.55, 0.275328
2632.89, 0.275520
2634.22, 0.274848
2635.56, 0.274464
2636.9, 0.273792
2638.25, 0.273312
2639.59, 0.272736
2640.93, 0.271584
2642.28, 0.270432
2643.63, 0.269472
2644.98, 0.268128
2646.33, 0.267072
2647.68, 0.266400
2649.03, 0.265248
2650.39, 0.263808
2651.74, 0.261888
2653.1, 0.260352
2654.46, 0.258816
2655.82, 0.257088
2657.18, 0.255648
2658.54, 0.253440
2659.9, 0.251424
2661.27, 0.249696
2662.64, 0.247488
2664.01, 0.243648
2665.38, 0.240288
2666.74, 0.238272
2668.12, 0.236640
2669.49, 0.232224
2670.87, 0.229248
2672.24, 0.228768
2673.62, 0.225792
2675.0, 0.221472
2676.38, 0.216960
2677.76, 0.213408
2679.15, 0.209568
2680.54, 0.205728
2681.92, 0.200352
2683.31, 0.194304
2684.7, 0.187680
2686.09, 0.180384
2687.48, 0.172224
2688.88, 0.163776
2690.27, 0.155424
2691.67, 0.147552
2693.07, 0.140064
2694.47, 0.134112
2695.87, 0.129312
2697.27, 0.125376
2698.67, 0.121824
2700.08, 0.118848
2701.49, 0.117024
2702.9, 0.116544
2704.31, 0.116448
2705.72, 0.116160
2707.13, 0.115584
2708.54, 0.114912
2709.96, 0.113568
2711.38, 0.112416
2712.8, 0.111360
2714.22, 0.109632
2715.64, 0.107520
2717.06, 0.105024
2718.49, 0.102432
2719.91, 0.0998400
2721.34, 0.0979200
2722.77, 0.0963840
2724.2, 0.0943680
2725.63, 0.0932160
2727.07, 0.0919680
2728.5, 0.0910080
2729.94, 0.0900480
2731.38, 0.0888960
2732.82, 0.0881280
2734.26, 0.0875520
2735.7, 0.0867840
2737.15, 0.0863040
2738.59, 0.0855360
2740.04, 0.0852480
2741.49, 0.0851520
2742.94, 0.0852480
2744.39, 0.0851520
2745.84, 0.0847680
2747.3, 0.0844800
2748.76, 0.0843840
2750.21, 0.0842880
2751.67, 0.0843840
2753.14, 0.0840960
2754.6, 0.0837120
2756.06, 0.0837120
2757.53, 0.0843840
2759.0, 0.0846720
2760.46, 0.0851520
2761.94, 0.0854400
2763.41, 0.0858240
2764.88, 0.0861120
2766.36, 0.0866880
2767.83, 0.0867840
2769.31, 0.0868800
2770.79, 0.0873600
2772.27, 0.0880320
2773.76, 0.0884160
2775.24, 0.0886080
2776.73, 0.0885120
2778.22, 0.0887040
2779.71, 0.0891840
2781.2, 0.0897600
2782.69, 0.0898560
2784.18, 0.0899520
2785.68, 0.0901440
2787.18, 0.0905280
2788.68, 0.0909120
2790.18, 0.0912960
2791.68, 0.0916800
2793.19, 0.0919680
2794.69, 0.0921600
2796.2, 0.0923520
2797.71, 0.0922560
2799.22, 0.0924480
2800.73, 0.0927360
2802.24, 0.0930240
2803.76, 0.0932160
2805.28, 0.0934080
2806.8, 0.0936000
2808.32, 0.0940800
2809.84, 0.0944640
2811.36, 0.0947520
2812.89, 0.0946560
2814.42, 0.0946560
2815.94, 0.0945600
2817.48, 0.0947520
2819.01, 0.0948480
2820.54, 0.0950400
2822.08, 0.0950400
2823.61, 0.0950400
2825.15, 0.0951360
2826.69, 0.0953280
2828.23, 0.0955200
2829.78, 0.0955200
2831.32, 0.0954240
2832.87, 0.0955200
2834.42, 0.0953280
2835.97, 0.0953280
2837.52, 0.0953280
2839.08, 0.0954240
2840.63, 0.0954240
2842.19, 0.0953280
2843.75, 0.0953280
2845.31, 0.0953280
2846.87, 0.0951360
2848.44, 0.0953280
2850.0, 0.0954240
2851.57, 0.0954240
2853.14, 0.0951360
2854.71, 0.0950400
2856.28, 0.0951360
2857.86, 0.0952320
2859.43, 0.0951360
2861.01, 0.0954240
2862.59, 0.0955200
2864.17, 0.0956160
2865.76, 0.0955200
2867.34, 0.0952320
2868.93, 0.0951360
2870.52, 0.0951360
2872.11, 0.0950400
2873.7, 0.0950400
2875.29, 0.0950400
2876.89, 0.0951360
2878.49, 0.0949440
2880.08, 0.0946560
2881.69, 0.0944640
2883.29, 0.0944640
2884.89, 0.0944640
2886.5, 0.0945600
2888.11, 0.0943680
2889.72, 0.0943680
2891.33, 0.0944640
2892.94, 0.0944640
2894.56, 0.0942720
2896.17, 0.0942720
2897.79, 0.0942720
2899.42, 0.0941760
2901.04, 0.0939840
2902.66, 0.0939840
2904.29, 0.0939840
2905.92, 0.0939840
2907.55, 0.0937920
2909.18, 0.0938880
2910.81, 0.0936960
2912.45, 0.0936960
2914.08, 0.0937920
2915.72, 0.0941760
2917.36, 0.0942720
2919.01, 0.0939840
2920.65, 0.0936960
2922.3, 0.0936960
2923.94, 0.0938880
2925.59, 0.0939840
2927.25, 0.0939840
2928.9, 0.0941760
2930.56, 0.0942720
2932.21, 0.0940800
2933.87, 0.0939840
2935.53, 0.0940800
2937.2, 0.0936960
2938.86, 0.0937920
2940.53, 0.0936960
2942.2, 0.0938880
2943.87, 0.0939840
2945.54, 0.0939840
2947.22, 0.0939840
2948.89, 0.0940800
2950.57, 0.0941760
2952.25, 0.0943680
2953.93, 0.0941760
2955.62, 0.0942720
2957.3, 0.0943680
2958.99, 0.0945600
2960.68, 0.0942720
2962.37, 0.0941760
2964.07, 0.0943680
2965.76, 0.0943680
2967.46, 0.0941760
2969.16, 0.0941760
2970.86, 0.0941760
2972.56, 0.0942720
2974.27, 0.0943680
2975.98, 0.0942720
2977.69, 0.0942720
2979.4, 0.0945600
2981.11, 0.0945600
2982.83, 0.0945600
2984.54, 0.0945600
2986.26, 0.0947520
2987.98, 0.0946560
2989.71, 0.0944640
2991.43, 0.0944640
2993.16, 0.0945600
2994.89, 0.0943680
2996.62, 0.0945600
2998.35, 0.0946560
3000.09, 0.0948480
3001.83, 0.0950400
3003.57, 0.0950400
3005.31, 0.0950400
3007.05, 0.0952320
3008.79, 0.0950400
3010.54, 0.0949440
3012.29, 0.0949440
3014.04, 0.0950400
3015.8, 0.0951360
3017.55, 0.0950400
3019.31, 0.0948480
3021.07, 0.0952320
3022.83, 0.0953280
3024.59, 0.0954240
3026.36, 0.0953280
3028.13, 0.0953280
3029.9, 0.0952320
3031.67, 0.0954240
3033.44, 0.0954240
3035.22, 0.0956160
3037.0, 0.0958080
3038.78, 0.0960000
3040.56, 0.0957120
3042.34, 0.0957120
3044.13, 0.0956160
3045.92, 0.0957120
3047.71, 0.0958080
3049.5, 0.0960960
3051.3, 0.0963840
3053.09, 0.0965760
3054.89, 0.0964800
3056.69, 0.0965760
3058.5, 0.0964800
3060.3, 0.0964800
3062.11, 0.0965760
3063.92, 0.0968640
3065.73, 0.0970560
3067.55, 0.0970560
3069.36, 0.0969600
3071.18, 0.0967680
3073.0, 0.0967680
3074.82, 0.0970560
3076.65, 0.0974400
3078.48, 0.0975360
3080.31, 0.0974400
3082.14, 0.0974400
3083.97, 0.0973440
3085.8, 0.0975360
3087.64, 0.0975360
3089.48, 0.0976320
3091.33, 0.0979200
3093.17, 0.0981120
3095.02, 0.0980160
3096.87, 0.0980160
3098.72, 0.0979200
3100.57, 0.0980160
3102.43, 0.0981120
3104.28, 0.0983040
3106.14, 0.0984000
3108.01, 0.0984000
3109.87, 0.0983040
3111.74, 0.0985920
3113.61, 0.0986880
3115.48, 0.0988800
3117.35, 0.0991680
3119.23, 0.0990720
3121.1, 0.0989760
3122.98, 0.0992640
3124.87, 0.0993600
3126.75, 0.0995520
3128.64, 0.0996480
3130.53, 0.0996480
3132.42, 0.0996480
3134.31, 0.0997440
3136.21, 0.0997440
3138.11, 0.100032
3140.01, 0.100128
3141.91, 0.100224
3143.82, 0.100320
3145.73, 0.100416
3147.64, 0.100416
3149.55, 0.100704
3151.46, 0.100704
3153.38, 0.100800
3155.3, 0.100992
3157.22, 0.101088
3159.14, 0.101088
3161.07, 0.101088
3163.0, 0.101184
3164.93, 0.101376
3166.86, 0.101472
3168.8, 0.101856
3170.74, 0.101952
3172.68, 0.102048
3174.62, 0.102144
3176.56, 0.102240
3178.51, 0.102240
3180.46, 0.102240
3182.42, 0.102240
3184.37, 0.102624
3186.33, 0.102816
3188.29, 0.102816
3190.25, 0.102720
3192.21, 0.103104
3194.18, 0.103200
3196.15, 0.103488
3198.12, 0.103584
3200.09, 0.103680
3202.07, 0.103776
3204.05, 0.104064
3206.03, 0.104160
3208.02, 0.104256
3210.0, 0.104256
3211.99, 0.104544
3213.98, 0.104736
3215.98, 0.104832
3217.97, 0.104832
3219.97, 0.104832
3221.97, 0.104928
3223.98, 0.105312
3225.98, 0.105504
3227.99, 0.105600
3230.0, 0.105696
3232.02, 0.105888
3234.03, 0.106176
3236.05, 0.106272
3238.07, 0.106272
3240.1, 0.106560
3242.12, 0.106560
3244.15, 0.106656
3246.18, 0.106656
3248.22, 0.106848
3250.25, 0.107136
3252.29, 0.107232
3254.33, 0.107232
3256.38, 0.107328
3258.43, 0.107424
3260.47, 0.107616
3262.53, 0.107520
3264.58, 0.107808
3266.64, 0.108000
3268.7, 0.108192
3270.76, 0.108192
3272.82, 0.108480
3274.89, 0.108672
3276.96, 0.108768
3279.04, 0.108864
3281.11, 0.109056
3283.19, 0.109344
3285.27, 0.109632
3287.35, 0.109536
3289.44, 0.109632
3291.53, 0.109824
3293.62, 0.110112
3295.71, 0.110304
3297.81, 0.110496
3299.91, 0.110688
3302.01, 0.111168
3304.11, 0.111360
3306.22, 0.111552
3308.33, 0.111360
3310.44, 0.111840
3312.56, 0.112320
3314.68, 0.112320
3316.8, 0.112320
3318.92, 0.112704
3321.05, 0.112704
3323.18, 0.112800
3325.31, 0.113184
3327.44, 0.113664
3329.58, 0.113664
3331.72, 0.113760
3333.86, 0.113856
3336.01, 0.114144
3338.16, 0.114336
3340.31, 0.114624
3342.46, 0.114624
3344.61, 0.114816
3346.77, 0.114912
3348.94, 0.114816
3351.1, 0.114816
3353.27, 0.115200
3355.44, 0.115296
3357.61, 0.115296
3359.79, 0.115488
3361.97, 0.115872
3364.15, 0.116064
3366.33, 0.116064
3368.52, 0.116064
3370.71, 0.116448
3372.9, 0.116640
3375.1, 0.117024
3377.3, 0.117312
3379.5, 0.117408
3381.71, 0.117600
3383.91, 0.117984
3386.12, 0.118080
3388.34, 0.118464
3390.55, 0.118656
3392.77, 0.118752
3394.99, 0.118848
3397.22, 0.119136
3399.45, 0.119040
3401.68, 0.119232
3403.91, 0.119520
3406.15, 0.119712
3408.39, 0.119808
3410.63, 0.120192
3412.87, 0.120576
3415.12, 0.120864
3417.37, 0.121248
3419.63, 0.121728
3421.88, 0.122208
3424.14, 0.122784
3426.41, 0.123360
3428.67, 0.123840
3430.94, 0.124416
3433.21, 0.125280
3435.49, 0.125760
3437.77, 0.126240
3440.05, 0.126624
3442.33, 0.127104
3444.62, 0.127584
3446.91, 0.128160
3449.2, 0.128352
3451.5, 0.128448
3453.8, 0.128832
3456.1, 0.129408
3458.41, 0.129696
3460.72, 0.130176
3463.03, 0.130464
3465.34, 0.130848
3467.66, 0.131136
3469.98, 0.131232
3472.31, 0.131520
3474.63, 0.131904
3476.96, 0.132000
3479.3, 0.132288
3481.64, 0.132672
3483.97, 0.133152
3486.32, 0.133344
3488.66, 0.133632
3491.01, 0.133824
3493.36, 0.134016
3495.72, 0.134016
3498.08, 0.134208
3500.44, 0.134496
3502.81, 0.134592
3505.18, 0.134592
3507.55, 0.135360
3509.92, 0.136032
3512.3, 0.136608
3514.68, 0.137184
3517.06, 0.137760
3519.45, 0.138048
3521.84, 0.138432
3524.24, 0.138720
3526.64, 0.139200
3529.04, 0.139392
3531.44, 0.139776
3533.85, 0.140160
3536.26, 0.140640
3538.67, 0.140832
3541.09, 0.140928
3543.51, 0.141120
3545.93, 0.141600
3548.36, 0.141984
3550.79, 0.142464
3553.22, 0.142944
3555.66, 0.143424
3558.1, 0.143712
3560.54, 0.144000
3562.99, 0.144576
3565.44, 0.144960
3567.9, 0.145440
3570.35, 0.146112
3572.81, 0.146496
3575.28, 0.146784
3577.75, 0.147264
3580.22, 0.147936
3582.69, 0.148416
3585.17, 0.148992
3587.65, 0.149280
3590.14, 0.149568
3592.62, 0.150048
3595.11, 0.150816
3597.61, 0.151200
3600.11, 0.151584
3602.61, 0.151680
3605.11, 0.152352
3607.62, 0.152736
3610.14, 0.153120
3612.65, 0.153504
3615.17, 0.154080
3617.69, 0.154368
3620.22, 0.154944
3622.75, 0.155232
3625.28, 0.155808
3627.82, 0.156384
3630.36, 0.156672
3632.9, 0.157056
3635.45, 0.157536
3638.0, 0.157824
3640.56, 0.158208
3643.12, 0.158592
3645.68, 0.159072
3648.24, 0.159456
3650.81, 0.160032
3653.39, 0.160416
3655.96, 0.160800
3658.54, 0.161184
3661.13, 0.161664
3663.71, 0.162144
3666.3, 0.162528
3668.9, 0.162816
3671.5, 0.163296
3674.1, 0.163584
3676.7, 0.163968
3679.31, 0.164448
3681.93, 0.164832
3684.54, 0.165120
3687.17, 0.165792
3689.79, 0.166368
3692.42, 0.166560
3695.05, 0.166752
3697.69, 0.167328
3700.32, 0.167712
3702.97, 0.168384
3705.61, 0.168576
3708.27, 0.169056
3710.92, 0.169728
3713.58, 0.170304
3716.24, 0.170496
3718.91, 0.170688
3721.58, 0.170880
3724.25, 0.171456
3726.93, 0.172032
3729.61, 0.172512
3732.29, 0.172896
3734.98, 0.173568
3737.67, 0.174144
3740.37, 0.174624
3743.07, 0.174912
3745.78, 0.175392
3748.49, 0.176064
3751.2, 0.176352
3753.91, 0.176448
3756.63, 0.177216
3759.36, 0.177888
3762.09, 0.178368
3764.82, 0.178656
3767.55, 0.179424
3770.29, 0.180192
3773.04, 0.180384
3775.78, 0.180192
3778.54, 0.180576
3781.29, 0.181248
3784.05, 0.182112
3786.82, 0.182400
3789.59, 0.182784
3792.36, 0.183168
3795.13, 0.183840
3797.92, 0.184128
3800.7, 0.184320
3803.49, 0.184608
3806.28, 0.185376
3809.08, 0.185568
3811.88, 0.185952
3814.68, 0.186336
3817.49, 0.186624
3820.31, 0.186816
3823.12, 0.187392
3825.94, 0.187872
3828.77, 0.188160
3831.6, 0.188352
3834.43, 0.188640
3837.27, 0.188928
3840.11, 0.189312
3842.96, 0.189504
3845.81, 0.189600
3848.67, 0.189984
3851.53, 0.190656
3854.39, 0.191040
3857.26, 0.191328
3860.13, 0.191232
3863.01, 0.191424
3865.89, 0.191808
3868.77, 0.192384
3871.66, 0.192768
3874.55, 0.193056
3877.45, 0.193152
3880.35, 0.193440
3883.26, 0.193728
3886.17, 0.194208
3889.09, 0.194400
3892.01, 0.194880
3894.93, 0.194976
3897.86, 0.195072
3900.79, 0.195264
3903.73, 0.195744
3906.67, 0.195936
3909.62, 0.196320
3912.57, 0.196320
3915.52, 0.196512
3918.48, 0.196704
3921.45, 0.196800
3924.42, 0.196896
3927.39, 0.197280
3930.37, 0.197760
3933.35, 0.198048
3936.34, 0.197664
3939.33, 0.197664
3942.32, 0.197952
3945.32, 0.198528
3948.33, 0.198624
3951.34, 0.198720
3954.35, 0.198720
3957.37, 0.198624
3960.39, 0.198912
3963.42, 0.198912
3966.45, 0.199200
3969.49, 0.199488
3972.53, 0.199584
3975.58, 0.199968
3978.63, 0.199968
3981.68, 0.200064
3984.75, 0.200256
3987.81, 0.200352
3990.88, 0.200352
3993.95, 0.200544
3997.03, 0.200544
4000.12, 0.200928
4003.21, 0.201312
4006.3, 0.201216
4009.4, 0.201216
4012.5, 0.201600
4015.61, 0.201600
4018.72, 0.201696
4021.84, 0.202080
4024.96, 0.202272
4028.09, 0.202368
4031.22, 0.202368
4034.36, 0.202368
4037.5, 0.202752
4040.65, 0.202944
4043.8, 0.203136
4046.96, 0.203136
4050.12, 0.203232
4053.29, 0.203424
4056.46, 0.203616
4059.64, 0.203232
4062.82, 0.203328
4066.0, 0.203520
4069.19, 0.203616
4072.39, 0.203520
4075.59, 0.203520
4078.8, 0.203616
4082.01, 0.203712
4085.23, 0.203808
4088.45, 0.204000
4091.68, 0.203808
4094.91, 0.203808
4098.15, 0.203712
4101.39, 0.203712
4104.63, 0.203232
4107.89, 0.203232
4111.14, 0.203136
4114.41, 0.203328
4117.67, 0.203136
4120.95, 0.202752
4124.23, 0.202752
4127.51, 0.202752
4130.8, 0.202656
4134.09, 0.202752
4137.39, 0.202944
4140.7, 0.202944
4144.01, 0.202560
4147.32, 0.202368
4150.64, 0.202368
4153.97, 0.202560
4157.3, 0.202656
4160.64, 0.202560
4163.98, 0.202272
4167.33, 0.202272
4170.68, 0.201984
4174.04, 0.201792
4177.4, 0.201792
4180.77, 0.202176
4184.14, 0.201792
4187.52, 0.201792
4190.91, 0.201792
4194.3, 0.201504
4197.69, 0.201024
4201.1, 0.200832
4204.5, 0.200736
4207.92, 0.200448
4211.34, 0.199488
4214.76, 0.198912
4218.19, 0.198144
4221.62, 0.197280
4225.06, 0.196704
4228.51, 0.196416
4231.96, 0.196128
4235.42, 0.196224
4238.88, 0.195936
4242.35, 0.195936
4245.83, 0.196512
4249.31, 0.196800
4252.79, 0.196896
4256.28, 0.196800
4259.78, 0.196416
4263.29, 0.195840
4266.79, 0.195168
4270.31, 0.194880
4273.83, 0.194496
4277.35, 0.194880
4280.89, 0.195168
4284.42, 0.195360
4287.97, 0.195168
4291.52, 0.195168
4295.07, 0.195264
4298.63, 0.195744
4302.2, 0.196224
4305.78, 0.196800
4309.35, 0.196992
4312.94, 0.196704
4316.53, 0.196608
4320.13, 0.197472
4323.73, 0.197568
4327.34, 0.197376
4330.96, 0.197280
4334.58, 0.197568
4338.21, 0.197568
4341.84, 0.197376
4345.48, 0.196896
4349.12, 0.197088
4352.77, 0.196896
4356.43, 0.196896
4360.1, 0.196320
4363.76, 0.196128
4367.44, 0.196128
4371.12, 0.196128
4374.81, 0.195168
4378.51, 0.194016
4382.21, 0.193344
4385.92, 0.193248
4389.63, 0.193056
4393.35, 0.193152
4397.08, 0.192768
4400.81, 0.192384
4404.55, 0.191904
4408.29, 0.191808
4412.04, 0.191904
4415.8, 0.191808
4419.57, 0.191520
4423.34, 0.191136
4427.12, 0.190656
4430.9, 0.190560
4434.69, 0.189792
4438.49, 0.189312
4442.29, 0.188832
4446.1, 0.188640
4449.92, 0.188352
4453.74, 0.188064
4457.57, 0.187200
4461.41, 0.186912
4465.25, 0.186336
4469.1, 0.186144
4472.95, 0.186144
4476.82, 0.186720
4480.69, 0.186432
4484.56, 0.185952
4488.44, 0.185472
4492.33, 0.185568
4496.23, 0.185568
4500.13, 0.186144
4504.04, 0.186528
4507.96, 0.186912
4511.88, 0.186816
4515.81, 0.187008
4519.75, 0.187200
4523.69, 0.187392
4527.65, 0.187200
4531.6, 0.187104
4535.57, 0.187296
4539.54, 0.187584
4543.52, 0.187104
4547.5, 0.187488
4551.5, 0.187392
4555.5, 0.187296
4559.5, 0.186816
4563.52, 0.185952
4567.54, 0.185760
4571.56, 0.185664
4575.6, 0.185472
4579.64, 0.185472
4583.69, 0.184896
4587.75, 0.184896
4591.81, 0.184032
4595.88, 0.183360
4599.96, 0.183072
4604.04, 0.183072
4608.14, 0.182304
4612.24, 0.182112
4616.34, 0.181632
4620.46, 0.181440
4624.58, 0.181248
4628.71, 0.180768
4632.84, 0.179808
4636.99, 0.179520
4641.14, 0.179520
4645.3, 0.179904
4649.47, 0.179424
4653.64, 0.178944
4657.82, 0.178176
4662.01, 0.177696
4666.21, 0.177504
4670.41, 0.177216
4674.62, 0.176736
4678.84, 0.176544
4683.07, 0.176448
4687.3, 0.176736
4691.54, 0.177024
4695.79, 0.177408
4700.05, 0.177312
4704.31, 0.177792
4708.59, 0.178752
4712.87, 0.180000
4717.15, 0.179808
4721.45, 0.179808
4725.76, 0.180192
4730.07, 0.180672
4734.39, 0.180000
4738.72, 0.180384
4743.05, 0.180576
4747.39, 0.180384
4751.75, 0.180672
4756.1, 0.181152
4760.47, 0.181344
4764.85, 0.181920
4769.23, 0.182976
4773.62, 0.182976
4778.02, 0.182880
4782.43, 0.183744
4786.85, 0.184032
4791.27, 0.183648
4795.7, 0.183072
4800.14, 0.184320
4804.59, 0.185568
4809.05, 0.185760
4813.51, 0.184992
4817.99, 0.185664
4822.47, 0.186336
4826.96, 0.186624
4831.46, 0.186048
4835.96, 0.185376
4840.48, 0.183936
4845.0, 0.184608
4849.54, 0.184992
4854.08, 0.185184
4858.63, 0.184512
4863.18, 0.185184
4867.75, 0.184320
4872.33, 0.183648
4876.91, 0.182976
4881.5, 0.182496
4886.1, 0.180192
4890.71, 0.179136
4895.33, 0.177984
4899.96, 0.176832
4904.59, 0.175680
4909.24, 0.174336
4913.89, 0.173088
4918.55, 0.172992
4923.22, 0.170976
4927.9, 0.169440
4932.59, 0.168000
4937.29, 0.167328
4942.0, 0.167712
4946.71, 0.166848
4951.44, 0.165312
4956.17, 0.165024
4960.91, 0.164160
4965.67, 0.164736
4970.43, 0.164064
4975.2, 0.162432
4979.98, 0.160128
4984.76, 0.159360
4989.56, 0.158208
4994.37, 0.158016
4999.18, 0.157632
5004.01, 0.157344
5008.84, 0.158304
5013.69, 0.160032
5018.54, 0.160032
5023.4, 0.158976
5028.28, 0.156864
5033.16, 0.156000
5038.05, 0.157056
5042.95, 0.157440
5047.86, 0.157632
5052.78, 0.159264
5057.71, 0.158784
5062.65, 0.157056
5067.6, 0.156000
5072.56, 0.156672
5077.53, 0.156672
5082.5, 0.156480
5087.49, 0.156576
5092.49, 0.156960
5097.5, 0.156768
5102.51, 0.157440
5107.54, 0.158688
5112.58, 0.158976
5117.62, 0.158016
5122.68, 0.157728
5127.75, 0.157440
5132.82, 0.156768
5137.91, 0.157056
5143.01, 0.156384
5148.12, 0.155520
5153.23, 0.155712
5158.36, 0.156096
5163.5, 0.155712
5168.65, 0.155136
5173.81, 0.156096
5178.98, 0.155328
5184.15, 0.154272
5189.34, 0.154080
5194.54, 0.153408
5199.75, 0.153024
5204.98, 0.153504
5210.21, 0.152736
5215.45, 0.151680
5220.7, 0.150432
5225.96, 0.149760
5231.23, 0.149088
5236.52, 0.148704
5241.81, 0.147648
5247.12, 0.147072
5252.44, 0.146016
5257.76, 0.144096
5263.1, 0.142752
5268.45, 0.142464
5273.81, 0.141024
5279.18, 0.141024
5284.56, 0.141216
5289.95, 0.140832
5295.36, 0.139488
5300.77, 0.139200
