Database of Origin,USGS Spectral Database
Sample Description,See USGS database for additional info
Date Added,2017-02-22 02:49:17.973437

Data ID,USGS_sta02          
Sample ID,staurolite_hs188.21181
Mineral Name,staurolite

Wavelength
1501.78, 0.0877600
1502.22, 0.0875800
1502.65, 0.0871750
1503.09, 0.0872200
1503.53, 0.0875350
1503.96, 0.0873100
1504.4, 0.0868150
1504.83, 0.0870400
1505.27, 0.0868600
1505.71, 0.0867250
1506.15, 0.0865900
1506.58, 0.0858690
1507.02, 0.0860040
1507.46, 0.0869500
1507.9, 0.0870400
1508.34, 0.0863200
1508.78, 0.0860040
1509.21, 0.0861390
1509.66, 0.0861390
1510.09, 0.0853290
1510.53, 0.0855090
1510.97, 0.0857790
1511.42, 0.0856890
1511.86, 0.0859590
1512.3, 0.0859140
1512.74, 0.0855540
1513.18, 0.0857340
1513.62, 0.0858240
1514.06, 0.0855090
1514.51, 0.0854640
1514.95, 0.0852840
1515.39, 0.0847440
1515.83, 0.0839780
1516.28, 0.0840230
1516.72, 0.0846080
1517.16, 0.0846530
1517.61, 0.0845180
1518.05, 0.0842480
1518.5, 0.0833930
1518.94, 0.0832580
1519.39, 0.0839330
1519.83, 0.0842480
1520.28, 0.0837080
1520.73, 0.0837980
1521.17, 0.0840680
1521.62, 0.0839330
1522.07, 0.0834380
1522.51, 0.0834830
1522.96, 0.0841130
1523.41, 0.0843830
1523.85, 0.0837980
1524.3, 0.0832580
1524.75, 0.0828520
1525.2, 0.0825370
1525.65, 0.0824470
1526.1, 0.0829870
1526.55, 0.0829870
1527.0, 0.0826720
1527.45, 0.0825370
1527.9, 0.0823570
1528.35, 0.0823570
1528.8, 0.0824020
1529.25, 0.0823120
1529.7, 0.0823570
1530.15, 0.0826720
1530.6, 0.0823120
1531.05, 0.0820420
1531.51, 0.0819520
1531.96, 0.0816370
1532.41, 0.0812760
1532.87, 0.0811410
1533.32, 0.0813210
1533.77, 0.0817720
1534.23, 0.0815010
1534.68, 0.0810060
1535.14, 0.0808710
1535.59, 0.0804660
1536.05, 0.0809610
1536.5, 0.0810960
1536.96, 0.0809160
1537.41, 0.0810060
1537.87, 0.0804660
1538.32, 0.0802410
1538.78, 0.0802860
1539.24, 0.0805560
1539.7, 0.0805560
1540.15, 0.0800160
1540.61, 0.0796100
1541.07, 0.0800610
1541.53, 0.0806460
1541.98, 0.0804210
1542.44, 0.0796100
1542.9, 0.0795200
1543.36, 0.0795650
1543.82, 0.0792500
1544.28, 0.0793400
1544.74, 0.0790250
1545.2, 0.0786200
1545.66, 0.0784400
1546.12, 0.0785750
1546.59, 0.0788900
1547.05, 0.0792050
1547.51, 0.0791600
1547.97, 0.0792950
1548.43, 0.0791150
1548.9, 0.0787100
1549.36, 0.0786650
1549.82, 0.0782140
1550.29, 0.0781690
1550.75, 0.0783490
1551.21, 0.0781240
1551.68, 0.0779440
1552.14, 0.0778990
1552.61, 0.0778090
1553.07, 0.0775390
1553.54, 0.0772240
1554.0, 0.0773590
1554.47, 0.0774940
1554.93, 0.0777190
1555.4, 0.0780790
1555.87, 0.0779440
1556.34, 0.0776290
1556.8, 0.0773140
1557.27, 0.0769990
1557.74, 0.0767280
1558.21, 0.0771340
1558.68, 0.0776740
1559.14, 0.0774940
1559.61, 0.0768640
1560.08, 0.0764130
1560.55, 0.0763230
1561.02, 0.0764130
1561.49, 0.0765480
1561.96, 0.0762780
1562.43, 0.0764580
1562.9, 0.0764130
1563.38, 0.0760980
1563.85, 0.0763680
1564.32, 0.0765930
1564.79, 0.0759630
1565.26, 0.0755580
1565.74, 0.0757380
1566.21, 0.0762330
1566.68, 0.0761880
1567.16, 0.0761430
1567.63, 0.0759630
1568.1, 0.0754680
1568.58, 0.0756030
1569.05, 0.0757380
1569.53, 0.0755130
1570.0, 0.0756480
1570.48, 0.0754230
1570.96, 0.0751520
1571.43, 0.0750620
1571.91, 0.0751970
1572.39, 0.0751070
1572.86, 0.0746570
1573.34, 0.0749720
1573.82, 0.0752880
1574.3, 0.0749720
1574.77, 0.0744770
1575.25, 0.0743870
1575.73, 0.0745670
1576.21, 0.0744320
1576.69, 0.0744770
1577.17, 0.0745220
1577.65, 0.0744770
1578.13, 0.0742970
1578.61, 0.0740720
1579.09, 0.0741620
1579.57, 0.0740270
1580.05, 0.0739370
1580.54, 0.0742070
1581.02, 0.0740720
1581.5, 0.0737120
1581.98, 0.0733960
1582.47, 0.0730810
1582.95, 0.0728560
1583.43, 0.0729460
1583.92, 0.0730810
1584.4, 0.0730360
1584.88, 0.0729910
1585.37, 0.0731710
1585.85, 0.0731260
1586.34, 0.0729910
1586.82, 0.0730810
1587.31, 0.0730810
1587.8, 0.0729010
1588.28, 0.0730810
1588.77, 0.0732610
1589.26, 0.0732610
1589.74, 0.0729910
1590.23, 0.0729910
1590.72, 0.0733960
1591.21, 0.0731710
1591.7, 0.0726310
1592.19, 0.0726760
1592.67, 0.0727210
1593.16, 0.0723610
1593.65, 0.0724960
1594.14, 0.0727210
1594.63, 0.0726760
1595.12, 0.0724960
1595.61, 0.0723160
1596.11, 0.0721810
1596.6, 0.0718200
1597.09, 0.0716400
1597.58, 0.0715950
1598.08, 0.0715500
1598.57, 0.0718650
1599.06, 0.0720450
1599.55, 0.0718200
1600.05, 0.0719100
1600.54, 0.0718650
1601.04, 0.0717300
1601.53, 0.0715050
1602.03, 0.0713700
1602.52, 0.0711450
1603.02, 0.0710550
1603.51, 0.0712350
1604.01, 0.0713700
1604.5, 0.0713250
1605.0, 0.0715950
1605.5, 0.0716400
1606.0, 0.0713250
1606.49, 0.0712800
1606.99, 0.0711900
1607.49, 0.0709650
1607.99, 0.0711000
1608.49, 0.0709650
1608.99, 0.0709200
1609.49, 0.0708750
1609.99, 0.0708300
1610.49, 0.0708750
1610.99, 0.0707400
1611.49, 0.0706050
1611.99, 0.0704690
1612.49, 0.0706050
1612.99, 0.0705600
1613.49, 0.0703790
1614.0, 0.0704240
1614.5, 0.0706950
1615.0, 0.0707400
1615.51, 0.0708750
1616.01, 0.0711450
1616.51, 0.0708750
1617.02, 0.0705150
1617.52, 0.0706050
1618.03, 0.0702440
1618.53, 0.0702890
1619.04, 0.0704690
1619.54, 0.0704690
1620.05, 0.0702440
1620.55, 0.0697490
1621.06, 0.0697490
1621.57, 0.0700190
1622.08, 0.0698390
1622.58, 0.0698390
1623.09, 0.0701090
1623.6, 0.0700190
1624.11, 0.0698840
1624.62, 0.0700640
1625.13, 0.0701990
1625.64, 0.0700640
1626.15, 0.0696140
1626.66, 0.0692540
1627.17, 0.0694340
1627.68, 0.0695240
1628.19, 0.0695240
1628.7, 0.0692990
1629.21, 0.0692540
1629.72, 0.0694340
1630.24, 0.0698390
1630.75, 0.0699290
1631.26, 0.0696140
1631.78, 0.0694790
1632.29, 0.0694340
1632.8, 0.0695240
1633.32, 0.0695240
1633.83, 0.0690740
1634.35, 0.0688030
1634.86, 0.0688030
1635.38, 0.0691640
1635.9, 0.0692090
1636.41, 0.0686680
1636.93, 0.0685330
1637.45, 0.0689390
1637.96, 0.0692090
1638.48, 0.0692540
1639.0, 0.0688030
1639.52, 0.0688030
1640.04, 0.0690740
1640.56, 0.0691190
1641.08, 0.0689390
1641.59, 0.0687580
1642.11, 0.0684880
1642.63, 0.0684880
1643.16, 0.0685780
1643.68, 0.0686680
1644.2, 0.0689390
1644.72, 0.0687580
1645.24, 0.0683980
1645.76, 0.0684430
1646.29, 0.0684430
1646.81, 0.0682180
1647.33, 0.0681730
1647.86, 0.0683530
1648.38, 0.0683080
1648.9, 0.0680380
1649.43, 0.0680830
1649.95, 0.0680380
1650.48, 0.0680830
1651.0, 0.0680830
1651.53, 0.0679930
1652.06, 0.0681280
1652.58, 0.0683980
1653.11, 0.0683530
1653.64, 0.0680830
1654.17, 0.0681730
1654.69, 0.0681730
1655.22, 0.0682630
1655.75, 0.0680830
1656.28, 0.0679030
1656.81, 0.0682180
1657.34, 0.0680830
1657.87, 0.0674980
1658.4, 0.0671370
1658.93, 0.0673630
1659.46, 0.0678580
1659.99, 0.0679480
1660.52, 0.0680380
1661.05, 0.0682630
1661.59, 0.0683080
1662.12, 0.0681280
1662.65, 0.0677680
1663.19, 0.0679480
1663.72, 0.0679930
1664.26, 0.0679030
1664.79, 0.0680830
1665.32, 0.0679480
1665.86, 0.0676330
1666.39, 0.0676780
1666.93, 0.0681280
1667.47, 0.0683530
1668.0, 0.0681280
1668.54, 0.0675880
1669.08, 0.0673630
1669.61, 0.0669570
1670.15, 0.0670020
1670.69, 0.0671370
1671.23, 0.0672720
1671.77, 0.0677230
1672.31, 0.0677680
1672.85, 0.0677230
1673.39, 0.0676780
1673.93, 0.0673630
1674.47, 0.0670920
1675.01, 0.0670470
1675.55, 0.0673180
1676.09, 0.0671820
1676.64, 0.0672270
1677.18, 0.0673180
1677.72, 0.0672270
1678.26, 0.0671820
1678.81, 0.0671820
1679.35, 0.0672720
1679.89, 0.0673180
1680.44, 0.0673180
1680.98, 0.0674980
1681.53, 0.0672720
1682.07, 0.0672270
1682.62, 0.0675430
1683.17, 0.0672720
1683.71, 0.0672270
1684.26, 0.0671370
1684.81, 0.0670470
1685.36, 0.0670470
1685.9, 0.0671820
1686.45, 0.0672720
1687.0, 0.0671820
1687.55, 0.0669570
1688.1, 0.0670020
1688.65, 0.0670470
1689.2, 0.0670470
1689.75, 0.0672720
1690.3, 0.0671820
1690.85, 0.0668670
1691.41, 0.0666420
1691.96, 0.0668670
1692.51, 0.0668670
1693.06, 0.0667320
1693.61, 0.0669120
1694.17, 0.0670920
1694.72, 0.0670020
1695.28, 0.0665520
1695.83, 0.0665970
1696.39, 0.0666420
1696.94, 0.0668670
1697.5, 0.0670470
1698.05, 0.0667320
1698.61, 0.0663270
1699.17, 0.0665520
1699.72, 0.0667770
1700.28, 0.0664620
1700.84, 0.0665070
1701.4, 0.0665520
1701.95, 0.0664170
1702.51, 0.0667320
1703.07, 0.0669120
1703.63, 0.0665520
1704.19, 0.0663270
1704.75, 0.0661020
1705.31, 0.0662370
1705.88, 0.0663720
1706.44, 0.0661470
1707.0, 0.0662370
1707.56, 0.0664170
1708.12, 0.0664170
1708.69, 0.0665070
1709.25, 0.0664170
1709.81, 0.0662370
1710.38, 0.0663270
1710.94, 0.0663720
1711.51, 0.0662820
1712.07, 0.0664170
1712.64, 0.0661920
1713.2, 0.0660570
1713.77, 0.0660120
1714.34, 0.0661920
1714.9, 0.0661470
1715.47, 0.0659670
1716.04, 0.0661020
1716.61, 0.0661470
1717.18, 0.0659220
1717.74, 0.0661020
1718.31, 0.0663270
1718.88, 0.0662370
1719.45, 0.0661020
1720.02, 0.0661920
1720.59, 0.0661020
1721.17, 0.0657870
1721.74, 0.0657870
1722.31, 0.0659670
1722.88, 0.0660120
1723.45, 0.0658320
1724.03, 0.0656960
1724.6, 0.0656960
1725.18, 0.0658320
1725.75, 0.0658320
1726.33, 0.0658320
1726.9, 0.0659670
1727.48, 0.0656960
1728.05, 0.0656060
1728.63, 0.0656960
1729.2, 0.0654260
1729.78, 0.0654260
1730.36, 0.0657420
1730.94, 0.0656960
1731.51, 0.0656060
1732.09, 0.0658770
1732.67, 0.0660120
1733.25, 0.0658770
1733.83, 0.0656510
1734.41, 0.0655160
1734.99, 0.0654710
1735.57, 0.0654260
1736.15, 0.0652460
1736.73, 0.0652910
1737.32, 0.0655610
1737.9, 0.0657870
1738.48, 0.0658770
1739.07, 0.0657420
1739.65, 0.0652910
1740.23, 0.0654710
1740.82, 0.0656510
1741.4, 0.0654710
1741.99, 0.0656060
1742.57, 0.0656960
1743.16, 0.0654710
1743.74, 0.0653360
1744.33, 0.0653360
1744.92, 0.0654710
1745.51, 0.0654710
1746.09, 0.0652460
1746.68, 0.0654260
1747.27, 0.0654710
1747.86, 0.0652460
1748.45, 0.0649760
1749.04, 0.0650210
1749.63, 0.0651110
1750.22, 0.0652010
1750.81, 0.0651560
1751.4, 0.0650210
1751.99, 0.0648860
1752.59, 0.0647960
1753.18, 0.0648860
1753.77, 0.0651110
1754.37, 0.0655160
1754.96, 0.0655610
1755.56, 0.0653360
1756.15, 0.0652460
1756.74, 0.0651560
1757.34, 0.0649310
1757.94, 0.0652010
1758.53, 0.0653810
1759.13, 0.0652010
1759.73, 0.0652460
1760.32, 0.0654260
1760.92, 0.0652460
1761.52, 0.0650660
1762.12, 0.0649310
1762.72, 0.0648860
1763.32, 0.0650660
1763.92, 0.0652010
1764.52, 0.0652460
1765.12, 0.0652010
1765.72, 0.0649760
1766.32, 0.0648860
1766.92, 0.0649760
1767.53, 0.0648410
1768.13, 0.0650210
1768.73, 0.0652010
1769.34, 0.0651110
1769.94, 0.0649310
1770.55, 0.0647960
1771.15, 0.0651560
1771.76, 0.0651560
1772.36, 0.0650660
1772.97, 0.0652010
1773.57, 0.0651110
1774.18, 0.0649310
1774.79, 0.0650660
1775.4, 0.0651560
1776.0, 0.0650210
1776.61, 0.0649760
1777.22, 0.0649760
1777.83, 0.0648860
1778.44, 0.0647510
1779.05, 0.0649760
1779.66, 0.0651560
1780.27, 0.0650660
1780.88, 0.0649760
1781.5, 0.0651110
1782.11, 0.0651110
1782.72, 0.0648410
1783.33, 0.0647510
1783.95, 0.0649310
1784.56, 0.0649310
1785.18, 0.0647510
1785.79, 0.0649310
1786.41, 0.0650210
1787.02, 0.0649310
1787.64, 0.0647060
1788.26, 0.0647060
1788.87, 0.0647960
1789.49, 0.0644810
1790.11, 0.0644810
1790.73, 0.0647960
1791.35, 0.0649310
1791.96, 0.0647510
1792.58, 0.0646610
1793.21, 0.0648410
1793.83, 0.0648410
1794.45, 0.0645260
1795.07, 0.0645260
1795.69, 0.0646160
1796.31, 0.0645260
1796.93, 0.0643910
1797.56, 0.0646160
1798.18, 0.0647960
1798.8, 0.0647960
1799.43, 0.0646160
1800.05, 0.0645710
1800.68, 0.0646610
1801.3, 0.0647960
1801.93, 0.0650210
1802.56, 0.0650210
1803.18, 0.0650210
1803.81, 0.0648410
1804.44, 0.0644810
1805.07, 0.0645710
1805.7, 0.0649310
1806.33, 0.0649310
1806.95, 0.0647060
1807.58, 0.0645260
1808.22, 0.0645710
1808.85, 0.0646160
1809.48, 0.0645710
1810.11, 0.0643460
1810.74, 0.0646160
1811.38, 0.0648410
1812.01, 0.0647510
1812.64, 0.0647060
1813.28, 0.0646160
1813.91, 0.0645710
1814.55, 0.0646610
1815.18, 0.0646610
1815.82, 0.0645260
1816.45, 0.0645260
1817.09, 0.0643910
1817.73, 0.0643460
1818.36, 0.0644360
1819.0, 0.0645260
1819.64, 0.0644360
1820.28, 0.0644810
1820.92, 0.0647060
1821.56, 0.0647060
1822.2, 0.0647960
1822.84, 0.0647960
1823.48, 0.0647060
1824.12, 0.0648410
1824.76, 0.0648410
1825.41, 0.0646610
1826.05, 0.0644810
1826.69, 0.0647510
1827.34, 0.0647960
1827.98, 0.0647060
1828.63, 0.0647510
1829.27, 0.0645710
1829.92, 0.0646610
1830.56, 0.0647960
1831.21, 0.0646160
1831.86, 0.0645260
1832.5, 0.0645260
1833.15, 0.0646610
1833.8, 0.0647510
1834.45, 0.0647510
1835.1, 0.0647060
1835.75, 0.0646610
1836.4, 0.0648860
1837.05, 0.0649760
1837.7, 0.0647510
1838.35, 0.0646610
1839.01, 0.0645710
1839.66, 0.0647060
1840.31, 0.0647510
1840.96, 0.0648410
1841.62, 0.0648410
1842.27, 0.0648860
1842.93, 0.0648410
1843.58, 0.0646160
1844.24, 0.0646610
1844.9, 0.0647960
1845.55, 0.0645710
1846.21, 0.0644360
1846.87, 0.0645710
1847.53, 0.0648860
1848.18, 0.0649760
1848.84, 0.0648410
1849.5, 0.0647510
1850.16, 0.0646160
1850.82, 0.0645710
1851.48, 0.0645710
1852.14, 0.0646610
1852.81, 0.0648410
1853.47, 0.0649310
1854.13, 0.0648410
1854.8, 0.0647510
1855.46, 0.0645260
1856.12, 0.0642560
1856.79, 0.0642110
1857.45, 0.0643460
1858.12, 0.0645710
1858.79, 0.0647060
1859.45, 0.0647960
1860.12, 0.0648410
1860.79, 0.0646610
1861.46, 0.0643460
1862.12, 0.0641200
1862.79, 0.0643010
1863.46, 0.0643910
1864.13, 0.0643910
1864.8, 0.0644360
1865.48, 0.0645260
1866.15, 0.0643010
1866.82, 0.0641200
1867.49, 0.0643460
1868.16, 0.0646610
1868.84, 0.0645260
1869.51, 0.0643010
1870.19, 0.0643460
1870.86, 0.0644810
1871.54, 0.0643460
1872.21, 0.0642560
1872.89, 0.0641660
1873.56, 0.0643460
1874.24, 0.0645260
1874.92, 0.0643910
1875.6, 0.0643460
1876.28, 0.0645260
1876.96, 0.0645260
1877.64, 0.0643010
1878.32, 0.0643460
1879.0, 0.0643910
1879.68, 0.0641200
1880.36, 0.0639850
1881.04, 0.0639850
1881.73, 0.0640300
1882.41, 0.0640750
1883.09, 0.0639400
1883.78, 0.0640750
1884.46, 0.0644360
1885.15, 0.0644360
1885.83, 0.0641200
1886.52, 0.0640300
1887.21, 0.0641200
1887.89, 0.0638950
1888.58, 0.0640750
1889.27, 0.0643010
1889.96, 0.0643460
1890.65, 0.0642560
1891.34, 0.0643910
1892.03, 0.0643460
1892.72, 0.0640750
1893.41, 0.0638950
1894.1, 0.0640300
1894.79, 0.0640300
1895.49, 0.0640300
1896.18, 0.0639850
1896.87, 0.0638950
1897.57, 0.0639850
1898.26, 0.0641200
1898.96, 0.0641660
1899.65, 0.0642110
1900.35, 0.0641660
1901.05, 0.0639850
1901.74, 0.0640300
1902.44, 0.0641660
1903.14, 0.0641660
1903.84, 0.0641200
1904.54, 0.0641200
1905.24, 0.0641200
1905.94, 0.0640750
1906.64, 0.0640750
1907.34, 0.0639850
1908.04, 0.0638950
1908.75, 0.0639850
1909.45, 0.0639850
1910.15, 0.0639850
1910.86, 0.0638500
1911.56, 0.0638950
1912.27, 0.0641200
1912.97, 0.0641660
1913.68, 0.0642110
1914.39, 0.0641660
1915.09, 0.0641660
1915.8, 0.0641660
1916.51, 0.0642110
1917.22, 0.0640750
1917.93, 0.0640750
1918.64, 0.0640300
1919.35, 0.0642110
1920.06, 0.0643460
1920.77, 0.0642560
1921.48, 0.0642110
1922.19, 0.0642560
1922.91, 0.0643460
1923.62, 0.0643460
1924.33, 0.0643010
1925.05, 0.0642560
1925.76, 0.0642110
1926.48, 0.0643910
1927.19, 0.0645710
1927.91, 0.0646160
1928.63, 0.0643910
1929.35, 0.0643010
1930.07, 0.0642110
1930.78, 0.0641200
1931.5, 0.0643010
1932.22, 0.0643910
1932.94, 0.0643460
1933.66, 0.0643010
1934.39, 0.0644810
1935.11, 0.0646160
1935.83, 0.0644360
1936.55, 0.0643460
1937.28, 0.0643010
1938.0, 0.0641660
1938.73, 0.0642110
1939.45, 0.0645260
1940.18, 0.0644810
1940.9, 0.0643460
1941.63, 0.0642560
1942.36, 0.0642110
1943.09, 0.0641200
1943.81, 0.0641660
1944.54, 0.0643910
1945.27, 0.0644360
1946.0, 0.0643460
1946.73, 0.0644360
1947.47, 0.0643910
1948.2, 0.0642560
1948.93, 0.0642110
1949.66, 0.0643910
1950.4, 0.0643910
1951.13, 0.0643460
1951.86, 0.0642560
1952.6, 0.0642560
1953.34, 0.0645260
1954.07, 0.0645260
1954.81, 0.0644360
1955.55, 0.0646160
1956.29, 0.0647060
1957.02, 0.0647960
1957.76, 0.0646160
1958.5, 0.0643460
1959.24, 0.0644360
1959.98, 0.0647060
1960.72, 0.0644810
1961.47, 0.0643460
1962.21, 0.0644810
1962.95, 0.0643010
1963.7, 0.0641200
1964.44, 0.0642560
1965.18, 0.0644360
1965.93, 0.0644360
1966.67, 0.0643010
1967.42, 0.0641660
1968.17, 0.0642560
1968.92, 0.0643010
1969.66, 0.0642560
1970.41, 0.0645260
1971.16, 0.0644360
1971.91, 0.0643010
1972.66, 0.0643010
1973.41, 0.0643010
1974.16, 0.0643460
1974.92, 0.0644360
1975.67, 0.0644810
1976.42, 0.0643010
1977.18, 0.0642110
1977.93, 0.0643910
1978.69, 0.0644360
1979.44, 0.0643910
1980.2, 0.0643460
1980.95, 0.0643010
1981.71, 0.0643910
1982.47, 0.0643460
1983.23, 0.0642110
1983.99, 0.0642560
1984.74, 0.0645260
1985.51, 0.0646160
1986.27, 0.0644360
1987.03, 0.0641660
1987.79, 0.0642110
1988.55, 0.0644360
1989.32, 0.0643460
1990.08, 0.0643910
1990.84, 0.0644360
1991.61, 0.0644360
1992.37, 0.0643010
1993.14, 0.0641660
1993.9, 0.0643010
1994.67, 0.0643460
1995.44, 0.0642110
1996.21, 0.0643010
1996.98, 0.0644810
1997.75, 0.0645710
1998.52, 0.0645260
1999.29, 0.0645260
2000.06, 0.0647060
2000.83, 0.0646610
2001.6, 0.0644810
2002.38, 0.0644360
2003.15, 0.0645710
2003.93, 0.0647060
2004.7, 0.0646610
2005.48, 0.0645260
2006.25, 0.0645260
2007.03, 0.0647060
2007.81, 0.0648860
2008.58, 0.0648410
2009.36, 0.0647060
2010.14, 0.0645710
2010.92, 0.0645260
2011.7, 0.0646610
2012.48, 0.0647960
2013.26, 0.0647960
2014.05, 0.0645710
2014.83, 0.0646610
2015.61, 0.0647510
2016.4, 0.0646610
2017.18, 0.0647060
2017.97, 0.0647060
2018.75, 0.0647060
2019.54, 0.0647960
2020.32, 0.0649760
2021.11, 0.0649310
2021.9, 0.0648410
2022.69, 0.0648410
2023.48, 0.0647960
2024.27, 0.0647510
2025.06, 0.0648410
2025.85, 0.0648860
2026.64, 0.0649760
2027.44, 0.0651560
2028.23, 0.0651560
2029.02, 0.0650210
2029.82, 0.0649760
2030.61, 0.0649760
2031.41, 0.0650660
2032.2, 0.0651560
2033.0, 0.0651560
2033.8, 0.0651110
2034.6, 0.0651110
2035.4, 0.0650210
2036.2, 0.0651110
2037.0, 0.0652010
2037.8, 0.0652010
2038.6, 0.0650660
2039.4, 0.0647960
2040.2, 0.0647510
2041.01, 0.0649310
2041.81, 0.0649310
2042.61, 0.0650210
2043.42, 0.0652010
2044.22, 0.0653360
2045.03, 0.0652910
2045.84, 0.0651110
2046.65, 0.0650210
2047.46, 0.0649310
2048.26, 0.0649310
2049.07, 0.0649310
2049.88, 0.0649310
2050.69, 0.0649760
2051.51, 0.0651110
2052.32, 0.0651560
2053.13, 0.0650660
2053.94, 0.0651110
2054.76, 0.0651110
2055.57, 0.0649310
2056.39, 0.0648860
2057.2, 0.0650210
2058.02, 0.0650660
2058.84, 0.0649760
2059.66, 0.0649760
2060.48, 0.0647510
2061.29, 0.0648410
2062.11, 0.0650210
2062.94, 0.0648860
2063.76, 0.0647960
2064.58, 0.0650660
2065.4, 0.0652010
2066.22, 0.0650660
2067.05, 0.0650210
2067.87, 0.0650210
2068.7, 0.0651560
2069.52, 0.0652010
2070.35, 0.0650660
2071.18, 0.0649310
2072.0, 0.0649310
2072.83, 0.0648410
2073.66, 0.0648410
2074.49, 0.0650210
2075.32, 0.0648410
2076.15, 0.0648410
2076.98, 0.0650660
2077.82, 0.0651110
2078.65, 0.0648860
2079.48, 0.0648860
2080.32, 0.0650210
2081.15, 0.0650660
2081.99, 0.0650660
2082.83, 0.0651110
2083.66, 0.0650660
2084.5, 0.0649760
2085.34, 0.0651560
2086.18, 0.0652010
2087.02, 0.0649760
2087.86, 0.0647960
2088.7, 0.0647960
2089.54, 0.0649760
2090.39, 0.0651560
2091.23, 0.0651110
2092.07, 0.0650660
2092.92, 0.0649760
2093.76, 0.0649310
2094.61, 0.0648860
2095.45, 0.0650210
2096.3, 0.0650660
2097.15, 0.0649760
2098.0, 0.0650210
2098.85, 0.0648860
2099.7, 0.0649760
2100.55, 0.0650660
2101.4, 0.0650660
2102.25, 0.0651560
2103.1, 0.0652010
2103.96, 0.0652460
2104.81, 0.0651110
2105.67, 0.0648860
2106.52, 0.0649310
2107.38, 0.0650210
2108.24, 0.0652010
2109.09, 0.0650660
2109.95, 0.0649310
2110.81, 0.0648860
2111.67, 0.0650210
2112.53, 0.0650210
2113.39, 0.0650210
2114.25, 0.0650660
2115.12, 0.0650210
2115.98, 0.0651560
2116.84, 0.0652010
2117.71, 0.0650210
2118.58, 0.0650210
2119.44, 0.0651110
2120.31, 0.0651110
2121.18, 0.0650660
2122.04, 0.0650660
2122.91, 0.0651110
2123.78, 0.0650660
2124.65, 0.0650660
2125.52, 0.0651560
2126.4, 0.0652460
2127.27, 0.0652460
2128.14, 0.0653810
2129.02, 0.0653810
2129.89, 0.0652910
2130.77, 0.0652010
2131.64, 0.0653360
2132.52, 0.0653810
2133.4, 0.0652910
2134.27, 0.0654260
2135.15, 0.0654260
2136.03, 0.0652460
2136.91, 0.0652910
2137.79, 0.0653360
2138.68, 0.0653360
2139.56, 0.0652010
2140.44, 0.0653360
2141.33, 0.0656060
2142.21, 0.0654260
2143.1, 0.0653360
2143.99, 0.0654710
2144.87, 0.0656510
2145.76, 0.0656510
2146.65, 0.0656060
2147.54, 0.0656510
2148.43, 0.0656060
2149.32, 0.0654260
2150.21, 0.0654260
2151.1, 0.0654710
2151.99, 0.0654710
2152.89, 0.0655160
2153.78, 0.0654260
2154.68, 0.0652910
2155.57, 0.0654260
2156.47, 0.0655610
2157.37, 0.0655610
2158.27, 0.0656060
2159.16, 0.0655610
2160.06, 0.0655160
2160.96, 0.0654710
2161.86, 0.0655610
2162.77, 0.0656060
2163.67, 0.0655610
2164.57, 0.0654710
2165.48, 0.0652910
2166.38, 0.0652910
2167.29, 0.0654710
2168.2, 0.0654710
2169.1, 0.0655160
2170.01, 0.0656060
2170.92, 0.0656060
2171.83, 0.0656510
2172.74, 0.0655160
2173.65, 0.0652910
2174.56, 0.0652460
2175.47, 0.0653810
2176.39, 0.0654260
2177.3, 0.0653360
2178.22, 0.0652010
2179.13, 0.0652460
2180.05, 0.0652910
2180.96, 0.0652010
2181.88, 0.0651110
2182.8, 0.0650210
2183.72, 0.0650210
2184.64, 0.0649310
2185.56, 0.0647060
2186.48, 0.0645710
2187.41, 0.0646610
2188.33, 0.0647510
2189.25, 0.0648410
2190.18, 0.0650210
2191.1, 0.0649310
2192.03, 0.0648410
2192.96, 0.0649310
2193.89, 0.0648410
2194.82, 0.0645710
2195.74, 0.0645710
2196.68, 0.0646160
2197.61, 0.0644360
2198.54, 0.0645260
2199.47, 0.0646160
2200.4, 0.0646160
2201.34, 0.0647060
2202.28, 0.0648410
2203.21, 0.0648410
2204.15, 0.0647510
2205.08, 0.0646610
2206.02, 0.0646160
2206.96, 0.0647060
2207.9, 0.0647510
2208.84, 0.0647060
2209.78, 0.0647960
2210.73, 0.0648860
2211.67, 0.0649310
2212.61, 0.0648860
2213.56, 0.0649310
2214.5, 0.0650660
2215.45, 0.0648860
2216.4, 0.0646610
2217.35, 0.0647960
2218.3, 0.0650660
2219.24, 0.0652460
2220.2, 0.0651110
2221.15, 0.0650210
2222.1, 0.0649760
2223.05, 0.0649310
2224.0, 0.0650660
2224.96, 0.0651560
2225.91, 0.0650210
2226.87, 0.0649760
2227.83, 0.0650210
2228.79, 0.0650660
2229.74, 0.0650210
2230.7, 0.0649760
2231.66, 0.0650660
2232.63, 0.0650660
2233.59, 0.0651110
2234.55, 0.0652010
2235.51, 0.0653360
2236.48, 0.0652910
2237.44, 0.0651560
2238.41, 0.0651110
2239.38, 0.0652010
2240.34, 0.0652010
2241.31, 0.0650210
2242.28, 0.0649310
2243.25, 0.0649760
2244.22, 0.0650660
2245.19, 0.0649760
2246.17, 0.0648860
2247.14, 0.0648410
2248.12, 0.0648410
2249.09, 0.0649760
2250.07, 0.0651110
2251.04, 0.0651560
2252.02, 0.0649310
2253.0, 0.0648410
2253.98, 0.0650660
2254.96, 0.0653360
2255.94, 0.0652440
2256.92, 0.0651070
2257.91, 0.0651070
2258.89, 0.0651980
2259.88, 0.0648310
2260.86, 0.0645550
2261.85, 0.0646930
2262.83, 0.0649690
2263.82, 0.0649230
2264.81, 0.0646010
2265.8, 0.0649690
2266.79, 0.0653820
2267.78, 0.0655200
2268.78, 0.0654280
2269.77, 0.0651520
2270.76, 0.0650610
2271.76, 0.0654280
2272.75, 0.0654280
2273.75, 0.0649230
2274.75, 0.0647850
2275.75, 0.0649230
2276.75, 0.0652440
2277.75, 0.0654280
2278.75, 0.0653360
2279.75, 0.0650150
2280.75, 0.0650610
2281.76, 0.0652900
2282.76, 0.0651520
2283.77, 0.0651980
2284.77, 0.0651520
2285.78, 0.0652440
2286.79, 0.0655200
2287.8, 0.0653820
2288.81, 0.0651070
2289.82, 0.0653360
2290.83, 0.0651980
2291.84, 0.0651520
2292.86, 0.0651980
2293.87, 0.0652900
2294.89, 0.0651070
2295.91, 0.0651070
2296.92, 0.0650610
2297.94, 0.0648310
2298.96, 0.0650150
2299.98, 0.0653360
2301.0, 0.0653360
2302.02, 0.0652440
2303.04, 0.0651070
2304.07, 0.0651520
2305.09, 0.0651980
2306.12, 0.0651520
2307.15, 0.0651070
2308.17, 0.0651980
2309.2, 0.0650610
2310.23, 0.0648310
2311.26, 0.0648770
2312.29, 0.0650150
2313.32, 0.0651980
2314.35, 0.0654280
2315.39, 0.0651070
2316.42, 0.0648310
2317.46, 0.0648310
2318.5, 0.0648770
2319.53, 0.0647850
2320.57, 0.0647390
2321.61, 0.0648310
2322.65, 0.0648310
2323.69, 0.0647850
2324.73, 0.0648310
2325.78, 0.0647850
2326.82, 0.0645090
2327.86, 0.0644170
2328.91, 0.0643710
2329.96, 0.0645550
2331.01, 0.0644630
2332.05, 0.0643250
2333.1, 0.0644630
2334.15, 0.0642790
2335.21, 0.0642340
2336.26, 0.0643250
2337.31, 0.0643710
2338.36, 0.0642790
2339.42, 0.0642340
2340.48, 0.0642790
2341.53, 0.0644630
2342.59, 0.0644630
2343.65, 0.0643710
2344.71, 0.0640960
2345.77, 0.0640040
2346.83, 0.0640960
2347.9, 0.0640040
2348.96, 0.0638660
2350.02, 0.0638660
2351.09, 0.0639120
2352.16, 0.0640960
2353.23, 0.0640500
2354.29, 0.0638660
2355.36, 0.0635900
2356.43, 0.0634520
2357.51, 0.0637280
2358.58, 0.0636360
2359.65, 0.0637280
2360.73, 0.0640040
2361.8, 0.0638200
2362.88, 0.0639120
2363.96, 0.0642340
2365.03, 0.0640040
2366.11, 0.0637740
2367.19, 0.0638200
2368.27, 0.0639120
2369.36, 0.0638660
2370.44, 0.0636820
2371.53, 0.0638200
2372.61, 0.0640960
2373.7, 0.0640500
2374.78, 0.0638200
2375.87, 0.0637740
2376.96, 0.0640040
2378.05, 0.0642790
2379.14, 0.0644630
2380.24, 0.0644630
2381.33, 0.0644170
2382.42, 0.0642790
2383.52, 0.0643250
2384.61, 0.0641420
2385.71, 0.0640960
2386.81, 0.0641420
2387.91, 0.0640960
2389.01, 0.0640960
2390.11, 0.0642340
2391.22, 0.0642790
2392.32, 0.0642790
2393.42, 0.0644630
2394.53, 0.0647850
2395.64, 0.0647390
2396.74, 0.0646470
2397.85, 0.0646010
2398.96, 0.0643710
2400.07, 0.0642790
2401.18, 0.0645090
2402.3, 0.0645550
2403.41, 0.0645550
2404.52, 0.0644630
2405.64, 0.0645550
2406.76, 0.0645090
2407.88, 0.0643710
2408.99, 0.0643250
2410.11, 0.0642790
2411.23, 0.0643250
2412.36, 0.0643250
2413.48, 0.0642340
2414.6, 0.0641880
2415.73, 0.0643710
2416.85, 0.0643250
2417.98, 0.0640960
2419.11, 0.0640500
2420.24, 0.0641420
2421.37, 0.0641880
2422.5, 0.0640960
2423.64, 0.0639580
2424.77, 0.0640960
2425.9, 0.0643250
2427.04, 0.0644170
2428.18, 0.0642340
2429.31, 0.0640040
2430.45, 0.0639580
2431.59, 0.0639580
2432.73, 0.0640040
2433.88, 0.0639580
2435.02, 0.0639580
2436.16, 0.0640960
2437.31, 0.0639580
2438.45, 0.0637740
2439.6, 0.0636360
2440.75, 0.0638200
2441.9, 0.0640040
2443.05, 0.0639120
2444.2, 0.0638660
2445.35, 0.0637740
2446.51, 0.0638660
2447.67, 0.0639580
2448.82, 0.0640040
2449.98, 0.0640040
2451.14, 0.0637280
2452.3, 0.0636820
2453.46, 0.0637280
2454.62, 0.0636360
2455.78, 0.0636820
2456.94, 0.0637740
2458.11, 0.0639120
2459.28, 0.0638200
2460.44, 0.0638200
2461.61, 0.0639120
2462.78, 0.0640040
2463.95, 0.0641420
2465.12, 0.0641420
2466.3, 0.0640960
2467.47, 0.0640040
2468.65, 0.0642790
2469.82, 0.0645090
2471.0, 0.0642790
2472.18, 0.0638660
2473.36, 0.0636360
2474.54, 0.0638660
2475.72, 0.0640040
2476.9, 0.0642340
2478.08, 0.0642790
2479.27, 0.0641420
2480.46, 0.0639120
2481.64, 0.0640500
2482.83, 0.0639580
2484.02, 0.0640500
2485.21, 0.0641420
2486.4, 0.0641420
2487.6, 0.0640960
2488.79, 0.0640500
2489.99, 0.0641420
2491.18, 0.0641880
2492.38, 0.0642340
2493.58, 0.0641880
2494.78, 0.0642790
2495.98, 0.0641880
2497.18, 0.0640960
2498.39, 0.0642790
2499.59, 0.0642340
2500.8, 0.0640040
2502.01, 0.0638200
2503.21, 0.0639580
2504.42, 0.0640040
2505.63, 0.0638660
2506.84, 0.0638200
2508.06, 0.0638660
2509.27, 0.0640040
2510.49, 0.0640040
2511.7, 0.0638660
2512.92, 0.0638200
2514.14, 0.0638200
2515.36, 0.0640040
2516.58, 0.0640960
2517.8, 0.0640040
2519.03, 0.0638660
2520.25, 0.0636820
2521.48, 0.0637280
2522.7, 0.0637740
2523.93, 0.0636820
2525.16, 0.0636360
2526.39, 0.0639580
2527.62, 0.0641880
2528.86, 0.0639120
2530.09, 0.0638200
2531.33, 0.0640960
2532.56, 0.0643710
2533.8, 0.0641880
2535.04, 0.0640960
2536.28, 0.0639580
2537.52, 0.0637280
2538.76, 0.0638200
2540.01, 0.0640500
2541.25, 0.0641880
2542.5, 0.0640960
2543.75, 0.0639580
2544.99, 0.0637740
2546.24, 0.0634980
2547.49, 0.0637740
2548.75, 0.0639580
2550.0, 0.0639120
2551.26, 0.0640040
2552.51, 0.0639580
2553.77, 0.0640500
2555.03, 0.0638200
2556.29, 0.0635440
2557.55, 0.0635440
2558.81, 0.0636820
2560.08, 0.0640960
2561.34, 0.0646470
2562.61, 0.0645090
2563.88, 0.0642790
2565.14, 0.0640040
2566.41, 0.0634980
2567.68, 0.0635440
2568.96, 0.0640500
2570.23, 0.0640040
2571.51, 0.0636820
2572.78, 0.0642340
2574.06, 0.0642790
2575.34, 0.0638660
2576.62, 0.0640500
2577.9, 0.0639580
2579.18, 0.0639580
2580.47, 0.0643250
2581.75, 0.0642790
2583.04, 0.0644630
2584.32, 0.0646930
2585.61, 0.0640500
2586.9, 0.0641880
2588.2, 0.0641420
2589.49, 0.0637280
2590.78, 0.0635440
2592.08, 0.0638200
2593.37, 0.0647850
2594.67, 0.0659800
2595.97, 0.0650150
2597.27, 0.0639580
2598.57, 0.0634520
2599.88, 0.0634980
2601.18, 0.0636820
2602.49, 0.0637280
2603.79, 0.0640040
2605.1, 0.0646010
2606.41, 0.0645090
2607.72, 0.0640500
2609.03, 0.0640500
2610.35, 0.0637740
2611.66, 0.0631770
2612.98, 0.0630390
2614.3, 0.0630850
2615.62, 0.0638660
2616.94, 0.0646470
2618.26, 0.0638660
2619.58, 0.0639120
2620.91, 0.0639120
2622.23, 0.0631310
2623.56, 0.0629930
2624.89, 0.0631770
2626.22, 0.0640040
2627.55, 0.0638200
2628.88, 0.0637280
2630.21, 0.0645550
2631.55, 0.0639120
2632.89, 0.0633150
2634.22, 0.0631770
2635.56, 0.0628550
2636.9, 0.0629470
2638.25, 0.0630390
2639.59, 0.0628090
2640.93, 0.0626710
2642.28, 0.0628090
2643.63, 0.0629010
2644.98, 0.0632230
2646.33, 0.0634060
2647.68, 0.0631310
2649.03, 0.0628090
2650.39, 0.0627630
2651.74, 0.0631310
2653.1, 0.0631310
2654.46, 0.0629010
2655.82, 0.0629010
2657.18, 0.0625340
2658.54, 0.0627170
2659.9, 0.0629010
2661.27, 0.0628090
2662.64, 0.0626250
2664.01, 0.0631770
2665.38, 0.0639580
2666.74, 0.0639580
2668.12, 0.0630850
2669.49, 0.0635440
2670.87, 0.0639120
2672.24, 0.0625340
2673.62, 0.0620280
2675.0, 0.0624880
2676.38, 0.0629470
2677.76, 0.0627630
2679.15, 0.0625340
2680.54, 0.0617980
2681.92, 0.0613850
2683.31, 0.0614310
2684.7, 0.0612010
2686.09, 0.0606960
2687.48, 0.0602820
2688.88, 0.0600060
2690.27, 0.0596390
2691.67, 0.0595930
2693.07, 0.0600520
2694.47, 0.0597770
2695.87, 0.0586740
2697.27, 0.0576630
2698.67, 0.0570660
2700.08, 0.0567900
2701.49, 0.0561930
2702.9, 0.0553660
2704.31, 0.0545850
2705.72, 0.0540790
2707.13, 0.0538040
2708.54, 0.0537580
2709.96, 0.0535740
2711.38, 0.0530680
2712.8, 0.0516440
2714.22, 0.0506790
2715.64, 0.0500820
2717.06, 0.0495310
2718.49, 0.0493010
2719.91, 0.0496220
2721.34, 0.0489330
2722.77, 0.0480600
2724.2, 0.0480600
2725.63, 0.0476470
2727.07, 0.0469120
2728.5, 0.0464980
2729.94, 0.0464060
2731.38, 0.0464520
2732.82, 0.0465900
2734.26, 0.0469120
2735.7, 0.0467280
2737.15, 0.0467280
2738.59, 0.0475550
2740.04, 0.0481060
2741.49, 0.0476930
2742.94, 0.0470490
2744.39, 0.0467740
2745.84, 0.0466820
2747.3, 0.0465900
2748.76, 0.0465900
2750.21, 0.0465900
2751.67, 0.0466360
2753.14, 0.0469120
2754.6, 0.0474170
2756.06, 0.0473710
2757.53, 0.0466360
2759.0, 0.0463140
2760.46, 0.0464060
2761.94, 0.0469580
2763.41, 0.0473250
2764.88, 0.0472330
2766.36, 0.0474170
2767.83, 0.0476930
2769.31, 0.0477390
2770.79, 0.0478770
2772.27, 0.0479220
2773.76, 0.0480140
2775.24, 0.0481980
2776.73, 0.0485660
2778.22, 0.0486580
2779.71, 0.0487950
2781.2, 0.0492550
2782.69, 0.0494850
2784.18, 0.0497140
2785.68, 0.0503580
2787.18, 0.0510010
2788.68, 0.0510930
2790.18, 0.0511850
2791.68, 0.0514600
2793.19, 0.0517820
2794.69, 0.0520580
2796.2, 0.0522870
2797.71, 0.0526090
2799.22, 0.0529770
2800.73, 0.0534820
2802.24, 0.0539410
2803.76, 0.0540330
2805.28, 0.0538960
2806.8, 0.0540330
2808.32, 0.0541250
2809.84, 0.0540790
2811.36, 0.0540790
2812.89, 0.0540790
2814.42, 0.0542630
2815.94, 0.0543090
2817.48, 0.0543090
2819.01, 0.0543550
2820.54, 0.0541250
2822.08, 0.0540330
2823.61, 0.0539870
2825.15, 0.0538500
2826.69, 0.0537120
2828.23, 0.0536660
2829.78, 0.0537120
2831.32, 0.0537580
2832.87, 0.0538500
2834.42, 0.0537120
2835.97, 0.0535740
2837.52, 0.0536200
2839.08, 0.0537120
2840.63, 0.0535280
2842.19, 0.0533440
2843.75, 0.0532980
2845.31, 0.0531140
2846.87, 0.0530230
2848.44, 0.0529310
2850.0, 0.0527930
2851.57, 0.0527010
2853.14, 0.0526090
2854.71, 0.0526090
2856.28, 0.0525630
2857.86, 0.0524250
2859.43, 0.0522410
2861.01, 0.0518280
2862.59, 0.0515060
2864.17, 0.0513230
2865.76, 0.0512310
2867.34, 0.0510930
2868.93, 0.0508630
2870.52, 0.0508630
2872.11, 0.0508630
2873.7, 0.0505870
2875.29, 0.0504500
2876.89, 0.0504500
2878.49, 0.0504500
2880.08, 0.0504950
2881.69, 0.0504500
2883.29, 0.0504040
2884.89, 0.0504040
2886.5, 0.0504500
2888.11, 0.0503120
2889.72, 0.0502200
2891.33, 0.0501280
2892.94, 0.0501740
2894.56, 0.0502200
2896.17, 0.0502660
2897.79, 0.0502660
2899.42, 0.0503120
2901.04, 0.0505410
2902.66, 0.0504950
2904.29, 0.0503120
2905.92, 0.0503120
2907.55, 0.0503120
2909.18, 0.0502660
2910.81, 0.0502660
2912.45, 0.0503580
2914.08, 0.0504500
2915.72, 0.0504500
2917.36, 0.0504500
2919.01, 0.0504500
2920.65, 0.0505410
2922.3, 0.0505870
2923.94, 0.0505870
2925.59, 0.0504950
2927.25, 0.0505410
2928.9, 0.0507710
2930.56, 0.0510010
2932.21, 0.0510010
2933.87, 0.0509550
2935.53, 0.0510930
2937.2, 0.0513680
2938.86, 0.0515060
2940.53, 0.0515520
2942.2, 0.0515980
2943.87, 0.0517360
2945.54, 0.0518740
2947.22, 0.0519660
2948.89, 0.0521500
2950.57, 0.0524250
2952.25, 0.0526090
2953.93, 0.0526090
2955.62, 0.0527010
2957.3, 0.0527470
2958.99, 0.0528390
2960.68, 0.0530230
2962.37, 0.0531140
2964.07, 0.0531140
2965.76, 0.0532980
2967.46, 0.0535740
2969.16, 0.0537580
2970.86, 0.0538500
2972.56, 0.0538960
2974.27, 0.0539410
2975.98, 0.0539410
2977.69, 0.0539870
2979.4, 0.0542170
2981.11, 0.0542630
2982.83, 0.0541250
2984.54, 0.0541250
2986.26, 0.0542630
2987.98, 0.0543090
2989.71, 0.0543090
2991.43, 0.0544010
2993.16, 0.0544010
2994.89, 0.0544470
2996.62, 0.0545390
2998.35, 0.0546770
3000.09, 0.0548600
3001.83, 0.0548600
3003.57, 0.0549060
3005.31, 0.0549980
3007.05, 0.0552280
3008.79, 0.0553660
3010.54, 0.0555500
3012.29, 0.0556410
3014.04, 0.0557790
3015.8, 0.0560090
3017.55, 0.0561930
3019.31, 0.0562390
3021.07, 0.0563310
3022.83, 0.0564690
3024.59, 0.0566060
3026.36, 0.0567900
3028.13, 0.0570660
3029.9, 0.0571580
3031.67, 0.0573870
3033.44, 0.0576170
3035.22, 0.0577550
3037.0, 0.0579850
3038.78, 0.0580770
3040.56, 0.0580770
3042.34, 0.0582600
3044.13, 0.0584440
3045.92, 0.0586280
3047.71, 0.0588580
3049.5, 0.0590880
3051.3, 0.0592250
3053.09, 0.0593170
3054.89, 0.0595470
3056.69, 0.0596850
3058.5, 0.0599600
3060.3, 0.0601440
3062.11, 0.0601900
3063.92, 0.0603740
3065.73, 0.0605120
3067.55, 0.0606960
3069.36, 0.0610170
3071.18, 0.0611550
3073.0, 0.0612470
3074.82, 0.0613850
3076.65, 0.0616150
3078.48, 0.0618440
3080.31, 0.0620280
3082.14, 0.0621200
3083.97, 0.0620740
3085.8, 0.0621660
3087.64, 0.0624880
3089.48, 0.0627170
3091.33, 0.0627630
3093.17, 0.0629010
3095.02, 0.0630390
3096.87, 0.0631770
3098.72, 0.0631770
3100.57, 0.0632690
3102.43, 0.0634980
3104.28, 0.0635440
3106.14, 0.0635440
3108.01, 0.0637740
3109.87, 0.0640040
3111.74, 0.0640960
3113.61, 0.0642790
3115.48, 0.0643710
3117.35, 0.0645090
3119.23, 0.0647390
3121.1, 0.0647390
3122.98, 0.0648310
3124.87, 0.0650150
3126.75, 0.0651070
3128.64, 0.0651980
3130.53, 0.0652900
3132.42, 0.0652900
3134.31, 0.0654280
3136.21, 0.0657500
3138.11, 0.0659800
3140.01, 0.0660710
3141.91, 0.0661630
3143.82, 0.0663010
3145.73, 0.0664390
3147.64, 0.0666230
3149.55, 0.0667610
3151.46, 0.0668980
3153.38, 0.0670360
3155.3, 0.0671740
3157.22, 0.0673120
3159.14, 0.0674960
3161.07, 0.0675880
3163.0, 0.0675880
3164.93, 0.0676800
3166.86, 0.0679090
3168.8, 0.0680470
3170.74, 0.0680930
3172.68, 0.0681850
3174.62, 0.0683690
3176.56, 0.0684610
3178.51, 0.0686440
3180.46, 0.0687360
3182.42, 0.0688740
3184.37, 0.0691040
3186.33, 0.0693340
3188.29, 0.0694710
3190.25, 0.0695630
3192.21, 0.0697010
3194.18, 0.0697010
3196.15, 0.0697470
3198.12, 0.0699770
3200.09, 0.0702530
3202.07, 0.0704360
3204.05, 0.0707120
3206.03, 0.0708040
3208.02, 0.0708960
3210.0, 0.0710800
3211.99, 0.0711710
3213.98, 0.0713550
3215.98, 0.0715390
3217.97, 0.0716310
3219.97, 0.0717690
3221.97, 0.0719070
3223.98, 0.0721360
3225.98, 0.0722740
3227.99, 0.0724120
3230.0, 0.0726880
3232.02, 0.0728720
3234.03, 0.0729630
3236.05, 0.0730090
3238.07, 0.0731930
3240.1, 0.0734230
3242.12, 0.0734230
3244.15, 0.0735610
3246.18, 0.0738820
3248.22, 0.0741120
3250.25, 0.0742960
3252.29, 0.0743880
3254.33, 0.0744340
3256.38, 0.0745720
3258.43, 0.0747550
3260.47, 0.0749850
3262.53, 0.0752150
3264.58, 0.0753990
3266.64, 0.0755820
3268.7, 0.0756740
3270.76, 0.0757200
3272.82, 0.0759500
3274.89, 0.0762720
3276.96, 0.0765470
3279.04, 0.0766850
3281.11, 0.0768230
3283.19, 0.0770530
3285.27, 0.0771450
3287.35, 0.0773280
3289.44, 0.0775580
3291.53, 0.0777880
3293.62, 0.0779260
3295.71, 0.0781090
3297.81, 0.0782930
3299.91, 0.0784770
3302.01, 0.0787990
3304.11, 0.0789360
3306.22, 0.0791660
3308.33, 0.0793960
3310.44, 0.0795800
3312.56, 0.0797180
3314.68, 0.0799930
3316.8, 0.0802690
3318.92, 0.0804990
3321.05, 0.0806820
3323.18, 0.0808200
3325.31, 0.0810500
3327.44, 0.0812800
3329.58, 0.0816010
3331.72, 0.0817850
3333.86, 0.0819690
3336.01, 0.0821070
3338.16, 0.0823830
3340.31, 0.0827500
3342.46, 0.0829800
3344.61, 0.0830720
3346.77, 0.0831640
3348.94, 0.0833930
3351.1, 0.0836690
3353.27, 0.0838990
3355.44, 0.0840830
3357.61, 0.0842660
3359.79, 0.0845420
3361.97, 0.0848180
3364.15, 0.0850930
3366.33, 0.0852770
3368.52, 0.0854610
3370.71, 0.0856910
3372.9, 0.0858290
3375.1, 0.0861500
3377.3, 0.0864260
3379.5, 0.0866560
3381.71, 0.0867930
3383.91, 0.0869770
3386.12, 0.0872990
3388.34, 0.0876200
3390.55, 0.0878500
3392.77, 0.0880340
3394.99, 0.0883560
3397.22, 0.0886770
3399.45, 0.0888150
3401.68, 0.0889990
3403.91, 0.0892750
3406.15, 0.0894580
3408.39, 0.0895960
3410.63, 0.0898720
3412.87, 0.0900560
3415.12, 0.0903310
3417.37, 0.0906530
3419.63, 0.0909750
3421.88, 0.0912040
3424.14, 0.0914340
3426.41, 0.0917100
3428.67, 0.0919850
3430.94, 0.0923070
3433.21, 0.0925830
3435.49, 0.0928580
3437.77, 0.0932260
3440.05, 0.0934560
3442.33, 0.0936390
3444.62, 0.0937770
3446.91, 0.0940530
3449.2, 0.0944210
3451.5, 0.0946960
3453.8, 0.0948800
3456.1, 0.0950640
3458.41, 0.0953390
3460.72, 0.0955690
3463.03, 0.0957530
3465.34, 0.0960290
3467.66, 0.0963500
3469.98, 0.0966260
3472.31, 0.0968100
3474.63, 0.0970850
3476.96, 0.0974070
3479.3, 0.0976370
3481.64, 0.0977290
3483.97, 0.0979120
3486.32, 0.0981880
3488.66, 0.0984640
3491.01, 0.0986020
3493.36, 0.0987850
3495.72, 0.0990150
3498.08, 0.0993370
3500.44, 0.0995210
3502.81, 0.0997040
3505.18, 0.0999800
3507.55, 0.100256
3509.92, 0.100623
3512.3, 0.100899
3514.68, 0.101083
3517.06, 0.101267
3519.45, 0.101542
3521.84, 0.101956
3524.24, 0.102186
3526.64, 0.102231
3529.04, 0.102507
3531.44, 0.102921
3533.85, 0.103242
3536.26, 0.103426
3538.67, 0.103748
3541.09, 0.104115
3543.51, 0.104299
3545.93, 0.104437
3548.36, 0.104713
3550.79, 0.105080
3553.22, 0.105218
3555.66, 0.105448
3558.1, 0.105769
3560.54, 0.105999
3562.99, 0.106275
3565.44, 0.106550
3567.9, 0.106780
3570.35, 0.107010
3572.81, 0.107378
3575.28, 0.107699
3577.75, 0.107929
3580.22, 0.108159
3582.69, 0.108480
3585.17, 0.108802
3587.65, 0.109124
3590.14, 0.109307
3592.62, 0.109537
3595.11, 0.109859
3597.61, 0.110180
3600.11, 0.110502
3602.61, 0.110594
3605.11, 0.110869
3607.62, 0.111237
3610.14, 0.111513
3612.65, 0.111788
3615.17, 0.111972
3617.69, 0.112294
3620.22, 0.112524
3622.75, 0.112707
3625.28, 0.112983
3627.82, 0.113075
3630.36, 0.113442
3632.9, 0.113810
3635.45, 0.113994
3638.0, 0.114178
3640.56, 0.114361
3643.12, 0.114683
3645.68, 0.115005
3648.24, 0.115234
3650.81, 0.115326
3653.39, 0.115510
3655.96, 0.115786
3658.54, 0.116016
3661.13, 0.116291
3663.71, 0.116521
3666.3, 0.116705
3668.9, 0.116934
3671.5, 0.117164
3674.1, 0.117348
3676.7, 0.117486
3679.31, 0.117624
3681.93, 0.117853
3684.54, 0.118037
3687.17, 0.118221
3689.79, 0.118359
3692.42, 0.118543
3695.05, 0.118726
3697.69, 0.119002
3700.32, 0.119232
3702.97, 0.119462
3705.61, 0.119599
3708.27, 0.119737
3710.92, 0.119921
3713.58, 0.120151
3716.24, 0.120335
3718.91, 0.120518
3721.58, 0.120748
3724.25, 0.121024
3726.93, 0.121253
3729.61, 0.121483
3732.29, 0.121759
3734.98, 0.121943
3737.67, 0.122080
3740.37, 0.122402
3743.07, 0.122770
3745.78, 0.123137
3748.49, 0.123413
3751.2, 0.123689
3753.91, 0.123964
3756.63, 0.124332
3759.36, 0.124608
3762.09, 0.124837
3764.82, 0.125067
3767.55, 0.125435
3770.29, 0.125848
3773.04, 0.126170
3775.78, 0.126445
3778.54, 0.126721
3781.29, 0.126997
3784.05, 0.127272
3786.82, 0.127502
3789.59, 0.127778
3792.36, 0.128008
3795.13, 0.128283
3797.92, 0.128513
3800.7, 0.128789
3803.49, 0.128927
3806.28, 0.129110
3809.08, 0.129386
3811.88, 0.129662
3814.68, 0.129800
3817.49, 0.129983
3820.31, 0.130259
3823.12, 0.130443
3825.94, 0.130581
3828.77, 0.130718
3831.6, 0.130856
3834.43, 0.131086
3837.27, 0.131270
3840.11, 0.131546
3842.96, 0.131729
3845.81, 0.131775
3848.67, 0.131959
3851.53, 0.132189
3854.39, 0.132373
3857.26, 0.132602
3860.13, 0.132786
3863.01, 0.132970
3865.89, 0.133154
3868.77, 0.133429
3871.66, 0.133613
3874.55, 0.133797
3877.45, 0.134027
3880.35, 0.134302
3883.26, 0.134578
3886.17, 0.134716
3889.09, 0.134900
3892.01, 0.135129
3894.93, 0.135405
3897.86, 0.135681
3900.79, 0.135865
3903.73, 0.136048
3906.67, 0.136232
3909.62, 0.136462
3912.57, 0.136646
3915.52, 0.136875
3918.48, 0.137013
3921.45, 0.137197
3924.42, 0.137381
3927.39, 0.137565
3930.37, 0.137840
3933.35, 0.137978
3936.34, 0.137932
3939.33, 0.138070
3942.32, 0.138254
3945.32, 0.138438
3948.33, 0.138575
3951.34, 0.138575
3954.35, 0.138529
3957.37, 0.138621
3960.39, 0.138851
3963.42, 0.139035
3966.45, 0.139127
3969.49, 0.139219
3972.53, 0.139265
3975.58, 0.139311
3978.63, 0.139448
3981.68, 0.139540
3984.75, 0.139632
3987.81, 0.139770
3990.88, 0.139862
3993.95, 0.139908
3997.03, 0.140138
4000.12, 0.140275
4003.21, 0.140367
4006.3, 0.140597
4009.4, 0.140781
4012.5, 0.140919
4015.61, 0.140965
4018.72, 0.141102
4021.84, 0.141286
4024.96, 0.141424
4028.09, 0.141608
4031.22, 0.141838
4034.36, 0.141975
4037.5, 0.142205
4040.65, 0.142343
4043.8, 0.142481
4046.96, 0.142619
4050.12, 0.142848
4053.29, 0.143124
4056.46, 0.143216
4059.64, 0.143216
4062.82, 0.143308
4066.0, 0.143446
4069.19, 0.143584
4072.39, 0.143675
4075.59, 0.143675
4078.8, 0.143813
4082.01, 0.143905
4085.23, 0.143997
4088.45, 0.143997
4091.68, 0.143951
4094.91, 0.144043
4098.15, 0.144043
4101.39, 0.143997
4104.63, 0.143951
4107.89, 0.143951
4111.14, 0.143997
4114.41, 0.143997
4117.67, 0.144043
4120.95, 0.144089
4124.23, 0.144135
4127.51, 0.144043
4130.8, 0.143997
4134.09, 0.143997
4137.39, 0.143951
4140.7, 0.143997
4144.01, 0.144043
4147.32, 0.144043
4150.64, 0.143951
4153.97, 0.143951
4157.3, 0.144043
4160.64, 0.144089
4163.98, 0.143997
4167.33, 0.143905
4170.68, 0.143859
4174.04, 0.143905
4177.4, 0.143813
4180.77, 0.143859
4184.14, 0.143813
4187.52, 0.143675
4190.91, 0.143584
4194.3, 0.143721
4197.69, 0.143813
4201.1, 0.143951
4204.5, 0.144043
4207.92, 0.144319
4211.34, 0.144548
4214.76, 0.144686
4218.19, 0.144870
4221.62, 0.145146
4225.06, 0.145238
4228.51, 0.145330
4231.96, 0.145421
4235.42, 0.145513
4238.88, 0.145651
4242.35, 0.145743
4245.83, 0.145697
4249.31, 0.145605
4252.79, 0.145375
4256.28, 0.145192
4259.78, 0.145192
4263.29, 0.145284
4266.79, 0.145330
4270.31, 0.145238
4273.83, 0.145100
4277.35, 0.145008
4280.89, 0.144916
4284.42, 0.144916
4287.97, 0.144824
4291.52, 0.144732
4295.07, 0.144778
4298.63, 0.144732
4302.2, 0.144732
4305.78, 0.144870
4309.35, 0.144916
4312.94, 0.145008
4316.53, 0.145146
4320.13, 0.145146
4323.73, 0.145146
4327.34, 0.145008
4330.96, 0.144916
4334.58, 0.144824
4338.21, 0.144640
4341.84, 0.144502
4345.48, 0.144273
4349.12, 0.143951
4352.77, 0.143538
4356.43, 0.143216
4360.1, 0.142848
4363.76, 0.142481
4367.44, 0.141975
4371.12, 0.141378
4374.81, 0.140735
4378.51, 0.140138
4382.21, 0.139494
4385.92, 0.138897
4389.63, 0.138208
4393.35, 0.137519
4397.08, 0.136921
4400.81, 0.136278
4404.55, 0.135681
4408.29, 0.135175
4412.04, 0.134578
4415.8, 0.133889
4419.57, 0.133291
4423.34, 0.132832
4427.12, 0.132327
4430.9, 0.131867
4434.69, 0.131362
4438.49, 0.130994
4442.29, 0.130535
4446.1, 0.130075
4449.92, 0.129616
4453.74, 0.128927
4457.57, 0.128237
4461.41, 0.127686
4465.25, 0.127318
4469.1, 0.127181
4472.95, 0.127272
4476.82, 0.127594
4480.69, 0.127916
4484.56, 0.128329
4488.44, 0.128605
4492.33, 0.129018
4496.23, 0.129616
4500.13, 0.130397
4504.04, 0.131454
4507.96, 0.132556
4511.88, 0.133705
4515.81, 0.134946
4519.75, 0.136094
4523.69, 0.137059
4527.65, 0.137886
4531.6, 0.138667
4535.57, 0.139448
4539.54, 0.140184
4543.52, 0.140735
4547.5, 0.141148
4551.5, 0.141562
4555.5, 0.141929
4559.5, 0.142159
4563.52, 0.142389
4567.54, 0.142527
4571.56, 0.142619
4575.6, 0.142573
4579.64, 0.142573
4583.69, 0.142481
4587.75, 0.142435
4591.81, 0.142251
4595.88, 0.142113
4599.96, 0.141838
4604.04, 0.141562
4608.14, 0.141332
4612.24, 0.141102
4616.34, 0.140643
4620.46, 0.140184
4624.58, 0.139678
4628.71, 0.139081
4632.84, 0.138438
4636.99, 0.137748
4641.14, 0.136921
4645.3, 0.136048
4649.47, 0.135221
4653.64, 0.134302
4657.82, 0.133291
4662.01, 0.132327
4666.21, 0.131224
4670.41, 0.130075
4674.62, 0.129018
4678.84, 0.128237
4683.07, 0.127732
4687.3, 0.127686
4691.54, 0.127916
4695.79, 0.128421
4700.05, 0.128973
4704.31, 0.129386
4708.59, 0.129662
4712.87, 0.129800
4717.15, 0.129845
4721.45, 0.129891
4725.76, 0.129845
4730.07, 0.129662
4734.39, 0.129386
4738.72, 0.129110
4743.05, 0.128651
4747.39, 0.128283
4751.75, 0.127916
4756.1, 0.127502
4760.47, 0.126997
4764.85, 0.126445
4769.23, 0.125894
4773.62, 0.125297
4778.02, 0.124699
4782.43, 0.124102
4786.85, 0.123367
4791.27, 0.122586
4795.7, 0.121713
4800.14, 0.120794
4804.59, 0.119829
4809.05, 0.118864
4813.51, 0.117899
4817.99, 0.116843
4822.47, 0.115740
4826.96, 0.114591
4831.46, 0.113305
4835.96, 0.112064
4840.48, 0.110778
4845.0, 0.109307
4849.54, 0.107791
4854.08, 0.106229
4858.63, 0.104483
4863.18, 0.102553
4867.75, 0.100486
4872.33, 0.0983260
4876.91, 0.0958910
4881.5, 0.0932720
4886.1, 0.0904230
4890.71, 0.0872990
4895.33, 0.0839910
4899.96, 0.0805910
4904.59, 0.0772360
4909.24, 0.0742500
4913.89, 0.0716310
4918.55, 0.0692880
4923.22, 0.0673120
4927.9, 0.0657500
4932.59, 0.0645550
4937.29, 0.0634520
4942.0, 0.0623960
4946.71, 0.0612930
4951.44, 0.0601440
4956.17, 0.0588580
4960.91, 0.0574330
4965.67, 0.0558250
4970.43, 0.0540790
4975.2, 0.0524710
4979.98, 0.0511850
4984.76, 0.0501280
4989.56, 0.0492550
4994.37, 0.0485200
4999.18, 0.0478310
5004.01, 0.0472790
5008.84, 0.0468200
5013.69, 0.0464060
5018.54, 0.0460850
5023.4, 0.0458090
5028.28, 0.0455790
5033.16, 0.0453490
5038.05, 0.0449820
5042.95, 0.0447520
5047.86, 0.0445220
5052.78, 0.0442010
5057.71, 0.0439250
5062.65, 0.0436950
5067.6, 0.0436030
5072.56, 0.0435580
5077.53, 0.0436490
5082.5, 0.0438330
5087.49, 0.0440170
5092.49, 0.0441550
5097.5, 0.0442470
5102.51, 0.0443390
5107.54, 0.0443390
5112.58, 0.0443390
5117.62, 0.0441090
5122.68, 0.0438330
5127.75, 0.0436490
5132.82, 0.0435580
5137.91, 0.0434200
5143.01, 0.0434200
5148.12, 0.0434200
5153.23, 0.0432820
5158.36, 0.0431900
5163.5, 0.0431440
5168.65, 0.0430520
5173.81, 0.0429600
5178.98, 0.0429140
5184.15, 0.0428680
5189.34, 0.0427760
5194.54, 0.0425470
5199.75, 0.0424090
5204.98, 0.0419950
5210.21, 0.0414900
5215.45, 0.0407550
5220.7, 0.0397440
5225.96, 0.0386870
5231.23, 0.0376760
5236.52, 0.0366200
5241.81, 0.0355630
5247.12, 0.0345980
5252.44, 0.0338170
5257.76, 0.0331740
5263.1, 0.0325300
5268.45, 0.0318870
5273.81, 0.0313820
5279.18, 0.0309220
5284.56, 0.0305550
5289.95, 0.0302330
5295.36, 0.0298650
5300.77, 0.0295900
5306.2, 0.0293600
5311.63, 0.0291300
5317.08, 0.0289010
5322.54, 0.0287630
5328.01, 0.0286710
5333.49, 0.0284870
5338.98, 0.0283030
5344.49, 0.0282570
5350.0, 0.0283030
5355.53, 0.0282110
5361.07, 0.0282110
5366.62, 0.0283490
5372.18, 0.0286250
5377.75, 0.0289010
5383.34, 0.0293140
5388.93, 0.0299570
5394.54, 0.0306460
5400.16, 0.0314740
5405.79, 0.0324840
5411.44, 0.0334490
5417.09, 0.0345520
5422.76, 0.0356550
5428.43, 0.0362060
5434.12, 0.0367110
5439.83, 0.0372630
5445.54, 0.0377220
5451.26, 0.0379520
5457.0, 0.0381360
5462.75, 0.0382280
5468.52, 0.0378600
5474.29, 0.0376300
5480.08, 0.0374010
5485.88, 0.0368950
5491.69, 0.0364360
5497.51, 0.0360680
5503.35, 0.0357010
5509.2, 0.0353330
5515.06, 0.0350110
5520.93, 0.0346900
5526.82, 0.0343680
5532.71, 0.0340010
5538.63, 0.0337710
5544.55, 0.0335870
5550.49, 0.0335410
5556.44, 0.0334950
5562.4, 0.0334490
5568.37, 0.0335870
5574.36, 0.0338170
5580.36, 0.0340010
5586.37, 0.0339090
5592.4, 0.0340010
5598.44, 0.0343220
5604.49, 0.0346900
5610.56, 0.0351030
5616.63, 0.0357010
5622.73, 0.0362980
5628.83, 0.0370330
5634.95, 0.0381820
5641.08, 0.0396520
5647.23, 0.0406170
5653.39, 0.0417200
5659.56, 0.0430060
5665.74, 0.0442470
5671.94, 0.0459010
5678.15, 0.0472330
5684.38, 0.0481520
5690.62, 0.0491630
5696.87, 0.0498520
5703.14, 0.0504950
5709.42, 0.0514140
5715.72, 0.0516900
5722.03, 0.0517360
5728.35, 0.0516440
5734.69, 0.0516440
5741.03, 0.0517820
5747.4, 0.0519660
5753.78, 0.0515060
5760.17, 0.0517820
5766.58, 0.0523790
5773.0, 0.0513680
5779.44, 0.0505410
5785.88, 0.0499900
5792.35, 0.0495310
5798.83, 0.0492550
5805.32, 0.0488410
5811.83, 0.0485660
5818.35, 0.0488410
5824.89, 0.0484740
5831.45, 0.0474170
5838.01, 0.0464520
5844.59, 0.0457630
5851.19, 0.0452120
5857.8, 0.0447980
5864.43, 0.0443390
5871.07, 0.0437410
5877.73, 0.0440630
5884.4, 0.0433740
5891.09, 0.0422250
5897.79, 0.0414440
5904.5, 0.0399740
5911.23, 0.0391010
5917.98, 0.0385950
5924.75, 0.0382740
5931.53, 0.0386870
5938.32, 0.0389170
5945.13, 0.0381360
5951.96, 0.0379520
5958.8, 0.0382280
5965.65, 0.0392390
5972.53, 0.0399280
5979.42, 0.0403870
5986.32, 0.0414440
5993.24, 0.0419950
6000.18, 0.0420870
6007.13, 0.0427760
6014.1, 0.0435580
6021.08, 0.0436490
6028.09, 0.0436490
6035.1, 0.0438790
6042.14, 0.0451200
6049.19, 0.0464060
6056.25, 0.0450740
6063.34, 0.0443850
6070.44, 0.0447520
6077.55, 0.0442930
6084.69, 0.0432360
6091.84, 0.0425010
6099.0, 0.0419490
6106.19, 0.0418120
6113.39, 0.0416740
6120.61, 0.0402030
6127.84, 0.0387790
6135.09, 0.0378600
6142.36, 0.0370330
6149.65, 0.0360680
6156.95, 0.0352410
6164.27, 0.0341380
6171.61, 0.0330360
6178.97, 0.0327600
6186.34, 0.0324380
6193.73, 0.0315190
6201.14, 0.0309220
6208.57, 0.0308300
6216.01, 0.0308760
6223.47, 0.0308760
6230.95, 0.0309220
6238.45, 0.0309680
6245.97, 0.0311060
6253.5, 0.0313360
6261.06, 0.0317490
6268.63, 0.0321630
6276.21, 0.0325760
6283.82, 0.0328980
6291.45, 0.0334030
6299.1, 0.0339550
6306.76, 0.0345060
6314.44, 0.0351030
6322.14, 0.0357470
6329.86, 0.0363440
6337.6, 0.0373550
6345.35, 0.0383200
6353.13, 0.0382740
6360.92, 0.0386410
6368.74, 0.0396060
6376.57, 0.0402030
6384.43, 0.0406170
6392.3, 0.0412140
6400.19, 0.0418570
6408.1, 0.0436030
6416.03, 0.0444300
6423.98, 0.0432820
6431.95, 0.0427300
6439.94, 0.0422250
6447.95, 0.0416740
6455.98, 0.0410300
6464.03, 0.0404330
6472.1, 0.0400660
6480.19, 0.0396060
6488.31, 0.0393300
6496.44, 0.0382740
6504.59, 0.0361140
6512.76, 0.0347820
6520.95, 0.0340010
6529.16, 0.0327140
6537.4, 0.0318410
6545.65, 0.0314740
6553.92, 0.0313360
6562.22, 0.0313360
6570.54, 0.0317030
6578.88, 0.0316110
6587.23, 0.0314740
6595.61, 0.0314740
6604.02, 0.0312900
6612.44, 0.0313360
6620.89, 0.0314280
6629.35, 0.0319790
6637.84, 0.0324380
6646.35, 0.0317030
6654.88, 0.0310140
6663.44, 0.0307840
6672.01, 0.0306920
6680.61, 0.0305550
6689.23, 0.0299570
6697.88, 0.0295900
6706.54, 0.0297280
6715.23, 0.0297730
6723.94, 0.0296360
6732.67, 0.0294060
6741.42, 0.0294060
6750.2, 0.0296360
6759.0, 0.0298650
6767.82, 0.0301870
6776.67, 0.0305550
6785.54, 0.0310140
6794.44, 0.0311520
6803.35, 0.0308300
6812.29, 0.0308760
6821.26, 0.0311980
6830.24, 0.0312440
6839.25, 0.0311060
6848.29, 0.0313820
6857.35, 0.0320710
6866.43, 0.0322550
6875.54, 0.0316110
6884.67, 0.0314280
6893.82, 0.0314280
6903.0, 0.0315650
6912.2, 0.0314740
6921.43, 0.0312900
6930.69, 0.0311060
6939.96, 0.0308760
6949.27, 0.0307840
6958.59, 0.0308760
6967.95, 0.0304630
6977.33, 0.0300030
6986.73, 0.0297730
6996.16, 0.0295900
7005.61, 0.0293140
7015.09, 0.0290840
7024.6, 0.0289920
7034.13, 0.0289460
7043.69, 0.0290840
7053.27, 0.0288090
7062.88, 0.0283950
7072.52, 0.0283030
7082.18, 0.0283030
7091.87, 0.0283030
7101.58, 0.0283030
7111.32, 0.0282570
7121.09, 0.0280280
7130.88, 0.0277060
7140.71, 0.0275680
7150.56, 0.0273840
7160.43, 0.0272000
7170.33, 0.0271090
7180.27, 0.0268790
7190.23, 0.0266950
7200.21, 0.0266490
7210.23, 0.0266030
7220.27, 0.0262820
7230.34, 0.0260060
7240.44, 0.0257300
7250.56, 0.0254090
7260.72, 0.0250870
7270.9, 0.0248570
7281.12, 0.0245820
7291.36, 0.0243060
7301.63, 0.0240300
7311.93, 0.0238000
7322.25, 0.0236630
7332.61, 0.0236170
7343.0, 0.0235250
7353.41, 0.0233410
7363.86, 0.0232490
7374.33, 0.0232030
7384.83, 0.0231110
7395.37, 0.0230190
7405.93, 0.0229270
7416.53, 0.0227900
7427.15, 0.0226060
7437.81, 0.0225600
7448.5, 0.0225600
7459.22, 0.0225600
7469.96, 0.0225600
7480.74, 0.0225600
7491.55, 0.0226060
7502.39, 0.0225600
7513.27, 0.0226060
7524.17, 0.0226980
7535.11, 0.0228360
7546.08, 0.0228810
7557.08, 0.0228810
7568.11, 0.0229730
7579.17, 0.0229730
7590.27, 0.0230650
7601.4, 0.0230650
7612.56, 0.0232030
7623.76, 0.0235710
7634.98, 0.0239380
7646.24, 0.0242600
7657.54, 0.0247190
7668.87, 0.0251790
7680.23, 0.0255460
7691.62, 0.0259140
7703.05, 0.0262360
7714.51, 0.0265570
7726.01, 0.0270630
7737.54, 0.0275680
7749.11, 0.0281190
7760.71, 0.0285790
7772.35, 0.0290840
7784.02, 0.0294980
7795.72, 0.0298650
7807.46, 0.0304170
7819.23, 0.0310140
7831.04, 0.0317490
7842.89, 0.0327140
7854.77, 0.0338630
7866.69, 0.0351030
7878.65, 0.0364360
7890.64, 0.0380900
7902.67, 0.0398360
7914.74, 0.0416740
7926.84, 0.0436490
7938.98, 0.0457630
7951.16, 0.0480140
7963.37, 0.0503120
7975.62, 0.0525170
7987.91, 0.0546310
8000.24, 0.0566980
8012.6, 0.0587200
8025.01, 0.0607880
8037.45, 0.0630850
8049.93, 0.0655200
8062.45, 0.0680470
8075.01, 0.0707580
8087.61, 0.0736990
8100.24, 0.0767310
8112.91, 0.0798090
8125.63, 0.0829340
8138.39, 0.0862420
8151.18, 0.0893200
8164.02, 0.0920770
8176.9, 0.0943750
8189.81, 0.0961210
8202.77, 0.0973610
8215.77, 0.0982800
8228.82, 0.0989690
8241.9, 0.0993370
8255.02, 0.0993830
8268.19, 0.0995210
8281.39, 0.0994290
8294.65, 0.0993830
8307.94, 0.0993370
8321.28, 0.0992910
8334.66, 0.0991530
8348.08, 0.0992910
8361.54, 0.0994290
8375.05, 0.0996580
8388.6, 0.0999340
8402.2, 0.100256
8415.84, 0.100486
8429.52, 0.100853
8443.25, 0.101221
8457.02, 0.101496
8470.84, 0.101542
8484.7, 0.101634
8498.61, 0.101404
8512.57, 0.101037
8526.57, 0.100394
8540.62, 0.0993830
8554.71, 0.0974530
8568.85, 0.0942370
8583.04, 0.0891830
8597.27, 0.0821070
8611.55, 0.0748470
8625.88, 0.0717690
8640.26, 0.0753990
8654.68, 0.0828880
8669.16, 0.0900100
8683.68, 0.0953390
8698.25, 0.0990150
8712.87, 0.101772
8727.53, 0.104023
8742.25, 0.105953
8757.02, 0.107699
8771.83, 0.109353
8786.7, 0.110869
8801.62, 0.112432
8816.59, 0.114040
8831.61, 0.115418
8846.68, 0.116567
8861.8, 0.117578
8876.97, 0.118543
8892.2, 0.119462
8907.48, 0.120105
8922.81, 0.120656
8938.2, 0.121162
8953.63, 0.121667
8969.13, 0.122080
8984.67, 0.122448
9000.27, 0.122953
9015.92, 0.123781
9031.63, 0.124516
9047.39, 0.125205
9063.21, 0.125940
9079.08, 0.126767
9095.01, 0.127594
9111.0, 0.128605
9127.04, 0.129616
9143.13, 0.130718
9159.28, 0.131637
9175.49, 0.132602
9191.76, 0.133797
9208.09, 0.134946
9224.47, 0.136002
9240.92, 0.136967
9257.42, 0.137794
9273.98, 0.138529
9290.6, 0.138667
9307.28, 0.138116
9324.02, 0.136370
9340.82, 0.133383
9357.68, 0.129156
9374.6, 0.124286
9391.58, 0.118956
9408.62, 0.113718
9425.73, 0.109307
9442.9, 0.105907
9460.13, 0.103380
9477.42, 0.101634
9494.78, 0.100623
9512.2, 0.100072
9529.69, 0.0995670
9547.24, 0.0994290
9564.86, 0.0995670
9582.54, 0.0996580
9600.28, 0.0996580
9618.1, 0.0997500
9635.97, 0.0995210
9653.92, 0.0990150
9671.93, 0.0985100
9690.01, 0.0979580
9708.16, 0.0972230
9726.37, 0.0965800
9744.65, 0.0959830
9763.0, 0.0952480
9781.43, 0.0943750
9799.92, 0.0937770
9818.48, 0.0929960
9837.1, 0.0921230
9855.8, 0.0912040
9874.58, 0.0901020
9893.42, 0.0887690
9912.34, 0.0874830
9931.33, 0.0860580
9950.39, 0.0844040
9969.52, 0.0828880
9988.74, 0.0813720
10008.0, 0.0797640
10027.4, 0.0783850
10046.8, 0.0771450
10066.3, 0.0757200
10085.9, 0.0742500
10105.6, 0.0728720
10125.3, 0.0714930
10145.1, 0.0702070
10165.0, 0.0689660
10185.0, 0.0676800
10205.0, 0.0665770
10225.2, 0.0655200
10245.4, 0.0645090
10265.7, 0.0634980
10286.0, 0.0624880
10306.5, 0.0616150
10327.0, 0.0606500
10347.6, 0.0597770
10368.3, 0.0589040
10389.1, 0.0580310
10409.9, 0.0572960
10430.9, 0.0565140
10451.9, 0.0555500
10473.0, 0.0547690
10494.2, 0.0540330
10515.5, 0.0531600
10536.9, 0.0523330
10558.4, 0.0515520
10579.9, 0.0507710
10601.5, 0.0500820
10623.3, 0.0493930
10645.1, 0.0487490
10667.0, 0.0482900
10689.0, 0.0476930
10711.1, 0.0470040
10733.2, 0.0464520
10755.5, 0.0459470
10777.9, 0.0453950
10800.3, 0.0447060
10822.9, 0.0442930
10845.5, 0.0440170
10868.2, 0.0436490
10891.1, 0.0434660
10914.0, 0.0433280
10937.0, 0.0431900
10960.2, 0.0429600
10983.4, 0.0426850
11006.7, 0.0425470
11030.1, 0.0425470
11053.6, 0.0424090
11077.3, 0.0422710
11101.0, 0.0422710
11124.8, 0.0424090
11148.7, 0.0424090
11172.7, 0.0423170
11196.9, 0.0422250
11221.1, 0.0420410
11245.4, 0.0418570
11269.9, 0.0414440
11294.4, 0.0409390
11319.1, 0.0407550
11343.9, 0.0405710
11368.8, 0.0402950
11393.7, 0.0401570
11418.8, 0.0400660
11444.0, 0.0396060
11469.4, 0.0393760
11494.8, 0.0394220
11520.3, 0.0393300
11546.0, 0.0391930
11571.8, 0.0385950
11597.7, 0.0379520
11623.7, 0.0374930
11649.8, 0.0369410
11676.0, 0.0363440
11702.4, 0.0357930
11728.9, 0.0351490
11755.5, 0.0345980
11782.2, 0.0340470
11809.0, 0.0334030
11836.0, 0.0326680
11863.0, 0.0319330
11890.3, 0.0311060
11917.6, 0.0300950
11945.0, 0.0290840
11972.6, 0.0282110
12000.4, 0.0274300
12028.2, 0.0265570
12056.2, 0.0256380
12084.3, 0.0247650
12112.5, 0.0234790
12140.9, 0.0222380
12169.4, 0.0212730
12198.0, 0.0204000
12226.8, 0.0194350
12255.7, 0.0184250
12284.7, 0.0177350
12313.9, 0.0177810
12343.2, 0.0192060
12372.7, 0.0223300
12402.3, 0.0266030
12432.0, 0.0303710
12461.9, 0.0328060
12491.9, 0.0340010
12522.1, 0.0337250
12552.4, 0.0324840
12582.9, 0.0310600
12613.5, 0.0300030
12644.3, 0.0300950
12675.2, 0.0318410
12706.3, 0.0345060
12737.5, 0.0370790
12768.9, 0.0390550
12800.4, 0.0400200
12832.1, 0.0398820
12863.9, 0.0387790
12895.9, 0.0374470
12928.1, 0.0362520
12960.4, 0.0351030
12992.9, 0.0343220
13025.5, 0.0340010
13058.3, 0.0338630
13091.3, 0.0336330
13124.4, 0.0333570
13157.8, 0.0331740
13191.2, 0.0328060
13224.9, 0.0324840
13258.7, 0.0320710
13292.7, 0.0317490
13326.9, 0.0314740
13361.2, 0.0312900
13395.7, 0.0313360
13430.4, 0.0314280
13465.3, 0.0318410
13500.4, 0.0327140
13535.7, 0.0339090
13571.1, 0.0353330
13606.7, 0.0367110
13642.5, 0.0381360
13678.5, 0.0399740
13714.7, 0.0420410
13751.1, 0.0442010
13787.6, 0.0464980
13824.4, 0.0487950
13861.4, 0.0510930
13898.5, 0.0534360
13935.9, 0.0558250
13973.5, 0.0579390
14011.2, 0.0599150
14049.2, 0.0618440
14087.4, 0.0635900
14125.8, 0.0652900
14164.3, 0.0668070
14203.2, 0.0677250
14242.2, 0.0683690
14281.4, 0.0693800
14320.9, 0.0708960
14360.5, 0.0726880
14400.4, 0.0743880
14440.5, 0.0751230
14480.9, 0.0749390
14521.4, 0.0745720
14562.2, 0.0742960
14603.3, 0.0739280
14644.5, 0.0735150
14686.0, 0.0736530
14727.7, 0.0736990
14769.7, 0.0737900
14811.9, 0.0740200
14854.3, 0.0744340
14897.0, 0.0746630
14939.9, 0.0751230
14983.1, 0.0755360
15026.5, 0.0756740
15070.2, 0.0759500
15114.2, 0.0762720
15158.3, 0.0764090
15202.8, 0.0765010
15247.5, 0.0765930
15292.5, 0.0767310
15337.7, 0.0768230
15383.2, 0.0770070
15429.0, 0.0769150
15475.1, 0.0768690
15521.4, 0.0769610
15568.0, 0.0765010
15614.9, 0.0760880
15662.1, 0.0759040
15709.6, 0.0756280
15757.3, 0.0752150
15805.4, 0.0744800
15853.7, 0.0742040
15902.3, 0.0736990
15951.2, 0.0730550
16000.5, 0.0730090
16050.0, 0.0729170
16099.8, 0.0727340
16150.0, 0.0727340
16200.5, 0.0727800
16251.3, 0.0729630
16302.4, 0.0731010
16353.8, 0.0732390
16405.5, 0.0733310
16457.6, 0.0740660
16510.0, 0.0748010
16562.8, 0.0754450
16615.9, 0.0759040
16669.3, 0.0766850
16723.1, 0.0772360
16777.2, 0.0773740
16831.7, 0.0775580
16886.5, 0.0772820
16941.7, 0.0767770
16997.2, 0.0761340
17053.1, 0.0750770
17109.4, 0.0741580
17166.1, 0.0731930
17223.1, 0.0718610
17280.5, 0.0704820
17338.3, 0.0691960
17396.5, 0.0681850
17455.1, 0.0675880
17514.0, 0.0669900
17573.4, 0.0663930
17633.2, 0.0660710
17693.4, 0.0662550
17754.0, 0.0666230
17815.0, 0.0674040
17876.4, 0.0686440
17938.3, 0.0706660
18000.5, 0.0740200
18063.3, 0.0778800
18126.4, 0.0817390
18190.0, 0.0850470
18254.1, 0.0871610
18318.6, 0.0886310
18383.5, 0.0898720
18449.0, 0.0906530
18514.9, 0.0906990
18581.2, 0.0902390
18648.0, 0.0894580
18715.4, 0.0880340
18783.2, 0.0865640
18851.5, 0.0854610
18920.3, 0.0844040
18989.6, 0.0827960
19059.4, 0.0808660
19129.7, 0.0802230
19200.6, 0.0805910
19272.0, 0.0806820
19343.9, 0.0815550
19416.3, 0.0842660
19489.3, 0.0883560
19562.8, 0.0941910
19637.0, 0.102231
19711.6, 0.112248
19786.8, 0.121621
19862.6, 0.127640
19939.0, 0.131178
20016.0, 0.133521
20093.6, 0.136186
20171.8, 0.139265
20250.6, 0.141975
20330.0, 0.144135
20410.0, 0.145697
20490.7, 0.145835
20572.0, 0.146019
20654.0, 0.146570
20736.6, 0.146432
20819.9, 0.145559
20903.8, 0.143951
20988.5, 0.141286
21073.8, 0.138897
21159.8, 0.137105
21246.5, 0.133659
21334.0, 0.130213
21422.1, 0.126813
21511.0, 0.122999
21600.7, 0.119462
21691.0, 0.116659
21782.1, 0.114407
21874.0, 0.111375
21966.7, 0.107423
22060.2, 0.103702
22154.5, 0.0986940
22249.6, 0.0920770
22345.5, 0.0855530
22442.2, 0.0822450
22539.8, 0.0821530
22638.2, 0.0838530
22737.5, 0.0843120
22837.7, 0.0843120
22938.7, 0.0860120
23040.7, 0.0866560
23143.5, 0.0849100
23247.3, 0.0824740
23352.1, 0.0816930
23457.7, 0.0819690
23564.4, 0.0799470
23672.0, 0.0787070
23780.5, 0.0790280
23890.1, 0.0783390
24000.7, 0.0736070
24112.3, 0.0682770
24225.0, 0.0653360
24338.7, 0.0644630
24453.5, 0.0623960
24569.4, 0.0592250
24686.4, 0.0573420
24804.5, 0.0602360
