Database of Origin, USGS Spectral Database
Sample Description, See USGS database for additional info
Date Added,2016-08-10 05:22:52.827182

Data ID,USGS_pec02          
Sample ID, pectolite_nmnh94865.17456
Mineral Name, pectolite
Material Class,Inosilicate

Wavelength
1617.52, 0.262358
1618.03, 0.262897
1618.53, 0.262520
1619.04, 0.262681
1619.54, 0.262197
1620.05, 0.262520
1620.55, 0.262574
1621.06, 0.263112
1621.57, 0.263112
1622.08, 0.262897
1622.58, 0.262735
1623.09, 0.263058
1623.6, 0.263058
1624.11, 0.263004
1624.62, 0.262735
1625.13, 0.262897
1625.64, 0.262789
1626.15, 0.262843
1626.66, 0.262628
1627.17, 0.262681
1627.68, 0.262843
1628.19, 0.263327
1628.7, 0.263327
1629.21, 0.263435
1629.72, 0.263381
1630.24, 0.263381
1630.75, 0.263220
1631.26, 0.263435
1631.78, 0.263166
1632.29, 0.263112
1632.8, 0.262951
1633.32, 0.263489
1633.83, 0.263489
1634.35, 0.263435
1634.86, 0.263112
1635.38, 0.263489
1635.9, 0.263166
1636.41, 0.263220
1636.93, 0.263220
1637.45, 0.263543
1637.96, 0.263543
1638.48, 0.263274
1639.0, 0.262951
1639.52, 0.263004
1640.04, 0.262789
1640.56, 0.263166
1641.08, 0.263327
1641.59, 0.263489
1642.11, 0.263327
1642.63, 0.263489
1643.16, 0.263381
1643.68, 0.263650
1644.2, 0.263596
1644.72, 0.263973
1645.24, 0.263543
1645.76, 0.263489
1646.29, 0.263704
1646.81, 0.263973
1647.33, 0.263704
1647.86, 0.263758
1648.38, 0.263381
1648.9, 0.263973
1649.43, 0.264296
1649.95, 0.263973
1650.48, 0.263650
1651.0, 0.264081
1651.53, 0.264350
1652.06, 0.264404
1652.58, 0.263919
1653.11, 0.263919
1653.64, 0.263866
1654.17, 0.263866
1654.69, 0.263704
1655.22, 0.264027
1655.75, 0.264027
1656.28, 0.264027
1656.81, 0.263758
1657.34, 0.264081
1657.87, 0.264081
1658.4, 0.264296
1658.93, 0.264242
1659.46, 0.264350
1659.99, 0.264027
1660.52, 0.263973
1661.05, 0.264081
1661.59, 0.264404
1662.12, 0.263866
1662.65, 0.263650
1663.19, 0.263543
1663.72, 0.263650
1664.26, 0.263220
1664.79, 0.263596
1665.32, 0.263866
1665.86, 0.264296
1666.39, 0.263866
1666.93, 0.263543
1667.47, 0.263596
1668.0, 0.263919
1668.54, 0.263812
1669.08, 0.264027
1669.61, 0.263919
1670.15, 0.263973
1670.69, 0.263704
1671.23, 0.263973
1671.77, 0.264135
1672.31, 0.263973
1672.85, 0.263543
1673.39, 0.263812
1673.93, 0.263758
1674.47, 0.264081
1675.01, 0.264081
1675.55, 0.264189
1676.09, 0.264242
1676.64, 0.264512
1677.18, 0.264081
1677.72, 0.264135
1678.26, 0.264296
1678.81, 0.264512
1679.35, 0.264512
1679.89, 0.264296
1680.44, 0.263650
1680.98, 0.263866
1681.53, 0.264081
1682.07, 0.264135
1682.62, 0.264135
1683.17, 0.264512
1683.71, 0.264135
1684.26, 0.264081
1684.81, 0.263866
1685.36, 0.263973
1685.9, 0.263543
1686.45, 0.263704
1687.0, 0.263650
1687.55, 0.263758
1688.1, 0.263543
1688.65, 0.263596
1689.2, 0.263543
1689.75, 0.263596
1690.3, 0.263543
1690.85, 0.263650
1691.41, 0.263327
1691.96, 0.263704
1692.51, 0.263704
1693.06, 0.263812
1693.61, 0.263704
1694.17, 0.263435
1694.72, 0.263327
1695.28, 0.263381
1695.83, 0.263112
1696.39, 0.263112
1696.94, 0.263220
1697.5, 0.263489
1698.05, 0.263058
1698.61, 0.263058
1699.17, 0.263220
1699.72, 0.263274
1700.28, 0.263166
1700.84, 0.263166
1701.4, 0.263004
1701.95, 0.263058
1702.51, 0.262843
1703.07, 0.263220
1703.63, 0.262843
1704.19, 0.262681
1704.75, 0.262897
1705.31, 0.262897
1705.88, 0.262305
1706.44, 0.262574
1707.0, 0.262520
1707.56, 0.262358
1708.12, 0.262251
1708.69, 0.262412
1709.25, 0.262089
1709.81, 0.262143
1710.38, 0.261982
1710.94, 0.261874
1711.51, 0.261820
1712.07, 0.262089
1712.64, 0.262035
1713.2, 0.261874
1713.77, 0.261820
1714.34, 0.262035
1714.9, 0.261712
1715.47, 0.261766
1716.04, 0.261551
1716.61, 0.261389
1717.18, 0.261174
1717.74, 0.261282
1718.31, 0.261174
1718.88, 0.261282
1719.45, 0.261228
1720.02, 0.261551
1720.59, 0.261282
1721.17, 0.261067
1721.74, 0.260797
1722.31, 0.260797
1722.88, 0.260851
1723.45, 0.260905
1724.03, 0.260797
1724.6, 0.260797
1725.18, 0.260797
1725.75, 0.260690
1726.33, 0.260528
1726.9, 0.260797
1727.48, 0.260421
1728.05, 0.260474
1728.63, 0.260421
1729.2, 0.260528
1729.78, 0.260259
1730.36, 0.260098
1730.94, 0.260205
1731.51, 0.260582
1732.09, 0.260367
1732.67, 0.260205
1733.25, 0.259775
1733.83, 0.259936
1734.41, 0.259882
1734.99, 0.259936
1735.57, 0.259775
1736.15, 0.259936
1736.73, 0.259882
1737.32, 0.259990
1737.9, 0.259452
1738.48, 0.259613
1739.07, 0.259452
1739.65, 0.259667
1740.23, 0.259829
1740.82, 0.259613
1741.4, 0.259344
1741.99, 0.259559
1742.57, 0.259506
1743.16, 0.259613
1743.74, 0.259452
1744.33, 0.259452
1744.92, 0.259236
1745.51, 0.259290
1746.09, 0.259129
1746.68, 0.259183
1747.27, 0.259183
1747.86, 0.259290
1748.45, 0.259183
1749.04, 0.259183
1749.63, 0.258698
1750.22, 0.258698
1750.81, 0.258644
1751.4, 0.258590
1751.99, 0.258429
1752.59, 0.258752
1753.18, 0.258698
1753.77, 0.258590
1754.37, 0.258483
1754.96, 0.258483
1755.56, 0.258214
1756.15, 0.258214
1756.74, 0.258267
1757.34, 0.258537
1757.94, 0.258214
1758.53, 0.258321
1759.13, 0.258321
1759.73, 0.258267
1760.32, 0.257998
1760.92, 0.258052
1761.52, 0.257945
1762.12, 0.258106
1762.72, 0.257998
1763.32, 0.257837
1763.92, 0.257675
1764.52, 0.257837
1765.12, 0.257675
1765.72, 0.257783
1766.32, 0.257622
1766.92, 0.257514
1767.53, 0.257406
1768.13, 0.257568
1768.73, 0.257352
1769.34, 0.257406
1769.94, 0.257083
1770.55, 0.257245
1771.15, 0.257245
1771.76, 0.257245
1772.36, 0.257029
1772.97, 0.256814
1773.57, 0.256545
1774.18, 0.256760
1774.79, 0.256437
1775.4, 0.256437
1776.0, 0.256383
1776.61, 0.256383
1777.22, 0.256222
1777.83, 0.256437
1778.44, 0.256437
1779.05, 0.256545
1779.66, 0.256491
1780.27, 0.256491
1780.88, 0.256330
1781.5, 0.256168
1782.11, 0.255953
1782.72, 0.256276
1783.33, 0.256114
1783.95, 0.256168
1784.56, 0.255953
1785.18, 0.255953
1785.79, 0.255953
1786.41, 0.256007
1787.02, 0.255630
1787.64, 0.255468
1788.26, 0.255468
1788.87, 0.255630
1789.49, 0.255522
1790.11, 0.255415
1790.73, 0.255415
1791.35, 0.255630
1791.96, 0.255468
1792.58, 0.255415
1793.21, 0.255253
1793.83, 0.255145
1794.45, 0.254822
1795.07, 0.255092
1795.69, 0.255253
1796.31, 0.255199
1796.93, 0.255199
1797.56, 0.255145
1798.18, 0.254876
1798.8, 0.255038
1799.43, 0.254769
1800.05, 0.254876
1800.68, 0.254500
1801.3, 0.254446
1801.93, 0.254661
1802.56, 0.254553
1803.18, 0.254392
1803.81, 0.254553
1804.44, 0.254284
1805.07, 0.254069
1805.7, 0.254015
1806.33, 0.254069
1806.95, 0.254123
1807.58, 0.254123
1808.22, 0.253746
1808.85, 0.253961
1809.48, 0.253854
1810.11, 0.253854
1810.74, 0.253638
1811.38, 0.253638
1812.01, 0.253477
1812.64, 0.253423
1813.28, 0.253423
1813.91, 0.253907
1814.55, 0.253961
1815.18, 0.253423
1815.82, 0.253208
1816.45, 0.253531
1817.09, 0.253369
1817.73, 0.253315
1818.36, 0.253100
1819.0, 0.253154
1819.64, 0.252885
1820.28, 0.252831
1820.92, 0.252669
1821.56, 0.252777
1822.2, 0.252454
1822.84, 0.252885
1823.48, 0.252939
1824.12, 0.252885
1824.76, 0.252562
1825.41, 0.252346
1826.05, 0.252077
1826.69, 0.252239
1827.34, 0.252077
1827.98, 0.252131
1828.63, 0.252185
1829.27, 0.252346
1829.92, 0.252185
1830.56, 0.251970
1831.21, 0.251808
1831.86, 0.251808
1832.5, 0.251647
1833.15, 0.251808
1833.8, 0.251593
1834.45, 0.251431
1835.1, 0.251377
1835.75, 0.251485
1836.4, 0.251216
1837.05, 0.251216
1837.7, 0.251054
1838.35, 0.251431
1839.01, 0.251216
1839.66, 0.250839
1840.31, 0.250785
1840.96, 0.250893
1841.62, 0.250355
1842.27, 0.250355
1842.93, 0.250409
1843.58, 0.250462
1844.24, 0.250409
1844.9, 0.250839
1845.55, 0.250678
1846.21, 0.250139
1846.87, 0.249547
1847.53, 0.249655
1848.18, 0.249547
1848.84, 0.249870
1849.5, 0.249870
1850.16, 0.249870
1850.82, 0.249547
1851.48, 0.249440
1852.14, 0.249386
1852.81, 0.249278
1853.47, 0.248848
1854.13, 0.249009
1854.8, 0.249224
1855.46, 0.249278
1856.12, 0.248686
1856.79, 0.248417
1857.45, 0.248471
1858.12, 0.248686
1858.79, 0.248255
1859.45, 0.247879
1860.12, 0.247663
1860.79, 0.247771
1861.46, 0.247771
1862.12, 0.247932
1862.79, 0.247986
1863.46, 0.247771
1864.13, 0.247340
1864.8, 0.247287
1865.48, 0.247233
1866.15, 0.247233
1866.82, 0.246748
1867.49, 0.246425
1868.16, 0.246371
1868.84, 0.246587
1869.51, 0.246264
1870.19, 0.245941
1870.86, 0.245456
1871.54, 0.245833
1872.21, 0.245726
1872.89, 0.245403
1873.56, 0.245295
1874.24, 0.245403
1874.92, 0.245080
1875.6, 0.245026
1876.28, 0.244757
1876.96, 0.244703
1877.64, 0.244703
1878.32, 0.244703
1879.0, 0.244541
1879.68, 0.244487
1880.36, 0.244218
1881.04, 0.244111
1881.73, 0.243895
1882.41, 0.244003
1883.09, 0.243949
1883.78, 0.243680
1884.46, 0.243465
1885.15, 0.243572
1885.83, 0.243303
1886.52, 0.243142
1887.21, 0.242819
1887.89, 0.242657
1888.58, 0.242496
1889.27, 0.242442
1889.96, 0.242173
1890.65, 0.242119
1891.34, 0.241796
1892.03, 0.241742
1892.72, 0.241473
1893.41, 0.241581
1894.1, 0.241742
1894.79, 0.241850
1895.49, 0.241581
1896.18, 0.241527
1896.87, 0.241096
1897.57, 0.240881
1898.26, 0.240612
1898.96, 0.240504
1899.65, 0.240181
1900.35, 0.240074
1901.05, 0.240020
1901.74, 0.240074
1902.44, 0.239697
1903.14, 0.239535
1903.84, 0.239589
1904.54, 0.239535
1905.24, 0.238997
1905.94, 0.238889
1906.64, 0.238836
1907.34, 0.239158
1908.04, 0.239105
1908.75, 0.239051
1909.45, 0.238674
1910.15, 0.238620
1910.86, 0.238459
1911.56, 0.238351
1912.27, 0.238136
1912.97, 0.238028
1913.68, 0.237759
1914.39, 0.237920
1915.09, 0.237759
1915.8, 0.237705
1916.51, 0.237490
1917.22, 0.237436
1917.93, 0.237221
1918.64, 0.237221
1919.35, 0.236736
1920.06, 0.236467
1920.77, 0.236629
1921.48, 0.236952
1922.19, 0.236629
1922.91, 0.236359
1923.62, 0.236198
1924.33, 0.236306
1925.05, 0.236252
1925.76, 0.236252
1926.48, 0.235983
1927.19, 0.235875
1927.91, 0.235498
1928.63, 0.235283
1929.35, 0.235229
1930.07, 0.235337
1930.78, 0.235068
1931.5, 0.235014
1932.22, 0.234852
1932.94, 0.234798
1933.66, 0.234422
1934.39, 0.234368
1935.11, 0.234260
1935.83, 0.234260
1936.55, 0.234045
1937.28, 0.233991
1938.0, 0.233668
1938.73, 0.233614
1939.45, 0.233345
1940.18, 0.233453
1940.9, 0.233291
1941.63, 0.233453
1942.36, 0.233345
1943.09, 0.233184
1943.81, 0.232753
1944.54, 0.232591
1945.27, 0.232430
1946.0, 0.232591
1946.73, 0.232484
1947.47, 0.232322
1948.2, 0.232161
1948.93, 0.232107
1949.66, 0.231730
1950.4, 0.231892
1951.13, 0.231784
1951.86, 0.231676
1952.6, 0.231246
1953.34, 0.231138
1954.07, 0.231030
1954.81, 0.230923
1955.55, 0.230654
1956.29, 0.230707
1957.02, 0.230438
1957.76, 0.230331
1958.5, 0.230169
1959.24, 0.230062
1959.98, 0.229792
1960.72, 0.229685
1961.47, 0.229308
1962.21, 0.229254
1962.95, 0.229254
1963.7, 0.229469
1964.44, 0.229200
1965.18, 0.229039
1965.93, 0.228716
1966.67, 0.228447
1967.42, 0.228285
1968.17, 0.228339
1968.92, 0.228070
1969.66, 0.227962
1970.41, 0.227855
1971.16, 0.227855
1971.91, 0.227424
1972.66, 0.227209
1973.41, 0.227155
1974.16, 0.227370
1974.92, 0.227101
1975.67, 0.226993
1976.42, 0.226724
1977.18, 0.226724
1977.93, 0.226294
1978.69, 0.226347
1979.44, 0.226078
1980.2, 0.226078
1980.95, 0.225863
1981.71, 0.225863
1982.47, 0.225594
1983.23, 0.225486
1983.99, 0.225325
1984.74, 0.225271
1985.51, 0.225002
1986.27, 0.224948
1987.03, 0.224733
1987.79, 0.224733
1988.55, 0.224517
1989.32, 0.224410
1990.08, 0.224248
1990.84, 0.224194
1991.61, 0.223925
1992.37, 0.223925
1993.14, 0.223710
1993.9, 0.223764
1994.67, 0.223494
1995.44, 0.223279
1996.21, 0.222956
1996.98, 0.223064
1997.75, 0.223064
1998.52, 0.223064
1999.29, 0.222849
2000.06, 0.222741
2000.83, 0.222472
2001.6, 0.222472
2002.38, 0.222256
2003.15, 0.222149
2003.93, 0.221880
2004.7, 0.221772
2005.48, 0.221557
2006.25, 0.221557
2007.03, 0.221449
2007.81, 0.221395
2008.58, 0.221234
2009.36, 0.221395
2010.14, 0.221126
2010.92, 0.220857
2011.7, 0.220695
2012.48, 0.220857
2013.26, 0.220803
2014.05, 0.220695
2014.83, 0.220372
2015.61, 0.220372
2016.4, 0.220211
2017.18, 0.220103
2017.97, 0.219673
2018.75, 0.219565
2019.54, 0.219350
2020.32, 0.219188
2021.11, 0.218919
2021.9, 0.218973
2022.69, 0.218758
2023.48, 0.218865
2024.27, 0.218758
2025.06, 0.218650
2025.85, 0.218327
2026.64, 0.218327
2027.44, 0.218112
2028.23, 0.218004
2029.02, 0.217627
2029.82, 0.217627
2030.61, 0.217627
2031.41, 0.217520
2032.2, 0.217304
2033.0, 0.216981
2033.8, 0.216551
2034.6, 0.216712
2035.4, 0.216335
2036.2, 0.216282
2037.0, 0.216389
2037.8, 0.216551
2038.6, 0.216174
2039.4, 0.215905
2040.2, 0.215905
2041.01, 0.215959
2041.81, 0.215743
2042.61, 0.215582
2043.42, 0.215366
2044.22, 0.215313
2045.03, 0.214882
2045.84, 0.214828
2046.65, 0.214559
2047.46, 0.214505
2048.26, 0.214236
2049.07, 0.214075
2049.88, 0.213752
2050.69, 0.213752
2051.51, 0.213590
2052.32, 0.213482
2053.13, 0.213375
2053.94, 0.213321
2054.76, 0.212890
2055.57, 0.212783
2056.39, 0.212729
2057.2, 0.212514
2058.02, 0.212244
2058.84, 0.212029
2059.66, 0.211652
2060.48, 0.211598
2061.29, 0.211545
2062.11, 0.211437
2062.94, 0.211168
2063.76, 0.210845
2064.58, 0.210737
2065.4, 0.210845
2066.22, 0.210576
2067.05, 0.210522
2067.87, 0.210091
2068.7, 0.210145
2069.52, 0.209930
2070.35, 0.209768
2071.18, 0.209392
2072.0, 0.209122
2072.83, 0.208853
2073.66, 0.208692
2074.49, 0.208423
2075.32, 0.208207
2076.15, 0.208153
2076.98, 0.208100
2077.82, 0.207777
2078.65, 0.207508
2079.48, 0.207292
2080.32, 0.207400
2081.15, 0.207238
2081.99, 0.207023
2082.83, 0.206754
2083.66, 0.206754
2084.5, 0.206431
2085.34, 0.206108
2086.18, 0.205893
2087.02, 0.205731
2087.86, 0.205570
2088.7, 0.205462
2089.54, 0.205085
2090.39, 0.204978
2091.23, 0.204816
2092.07, 0.204601
2092.92, 0.204332
2093.76, 0.204224
2094.61, 0.203901
2095.45, 0.203793
2096.3, 0.203578
2097.15, 0.203578
2098.0, 0.203363
2098.85, 0.203255
2099.7, 0.202878
2100.55, 0.202824
2101.4, 0.202717
2102.25, 0.202663
2103.1, 0.202179
2103.96, 0.202071
2104.81, 0.201802
2105.67, 0.201802
2106.52, 0.201694
2107.38, 0.201640
2108.24, 0.201425
2109.09, 0.201210
2109.95, 0.200887
2110.81, 0.200671
2111.67, 0.200510
2112.53, 0.200295
2113.39, 0.199972
2114.25, 0.199972
2115.12, 0.199810
2115.98, 0.199649
2116.84, 0.199487
2117.71, 0.199272
2118.58, 0.198949
2119.44, 0.198949
2120.31, 0.198841
2121.18, 0.198787
2122.04, 0.198411
2122.91, 0.198411
2123.78, 0.198088
2124.65, 0.198088
2125.52, 0.197872
2126.4, 0.197603
2127.27, 0.197388
2128.14, 0.197388
2129.02, 0.197119
2129.89, 0.197226
2130.77, 0.197119
2131.64, 0.196742
2132.52, 0.196473
2133.4, 0.196634
2134.27, 0.196311
2135.15, 0.195934
2136.03, 0.195665
2136.91, 0.195558
2137.79, 0.195396
2138.68, 0.195396
2139.56, 0.195073
2140.44, 0.195127
2141.33, 0.194858
2142.21, 0.194535
2143.1, 0.194266
2143.99, 0.194266
2144.87, 0.194051
2145.76, 0.193997
2146.65, 0.193566
2147.54, 0.193512
2148.43, 0.193351
2149.32, 0.193297
2150.21, 0.192920
2151.1, 0.192812
2151.99, 0.192651
2152.89, 0.192489
2153.78, 0.192274
2154.68, 0.192274
2155.57, 0.191897
2156.47, 0.191628
2157.37, 0.191305
2158.27, 0.191144
2159.16, 0.191144
2160.06, 0.191198
2160.96, 0.190875
2161.86, 0.190605
2162.77, 0.190444
2163.67, 0.190498
2164.57, 0.190283
2165.48, 0.190175
2166.38, 0.189852
2167.29, 0.189690
2168.2, 0.189475
2169.1, 0.189475
2170.01, 0.189044
2170.92, 0.188937
2171.83, 0.188614
2172.74, 0.188560
2173.65, 0.188506
2174.56, 0.188506
2175.47, 0.188129
2176.39, 0.187968
2177.3, 0.187537
2178.22, 0.187591
2179.13, 0.187376
2180.05, 0.187160
2180.96, 0.186891
2181.88, 0.186891
2182.8, 0.186622
2183.72, 0.186515
2184.64, 0.186245
2185.56, 0.186192
2186.48, 0.185869
2187.41, 0.185815
2188.33, 0.185546
2189.25, 0.185438
2190.18, 0.185169
2191.1, 0.185115
2192.03, 0.184900
2192.96, 0.184684
2193.89, 0.184361
2194.82, 0.184361
2195.74, 0.184308
2196.68, 0.184146
2197.61, 0.183769
2198.54, 0.183715
2199.47, 0.183446
2200.4, 0.183393
2201.34, 0.183231
2202.28, 0.183123
2203.21, 0.182962
2204.15, 0.182854
2205.08, 0.182424
2206.02, 0.182316
2206.96, 0.182154
2207.9, 0.182101
2208.84, 0.181939
2209.78, 0.181831
2210.73, 0.181455
2211.67, 0.181293
2212.61, 0.180970
2213.56, 0.180970
2214.5, 0.180809
2215.45, 0.180647
2216.4, 0.180324
2217.35, 0.180324
2218.3, 0.180055
2219.24, 0.179894
2220.2, 0.179786
2221.15, 0.179625
2222.1, 0.179463
2223.05, 0.179409
2224.0, 0.179194
2224.96, 0.179032
2225.91, 0.178656
2226.87, 0.178602
2227.83, 0.178440
2228.79, 0.178440
2229.74, 0.178387
2230.7, 0.178279
2231.66, 0.177902
2232.63, 0.177794
2233.59, 0.177579
2234.55, 0.177525
2235.51, 0.177256
2236.48, 0.177148
2237.44, 0.176879
2238.41, 0.177041
2239.38, 0.176644
2240.34, 0.176512
2241.31, 0.176336
2242.28, 0.176248
2243.25, 0.176072
2244.22, 0.175940
2245.19, 0.175852
2246.17, 0.175808
2247.14, 0.175455
2248.12, 0.175235
2249.09, 0.174795
2250.07, 0.174707
2251.04, 0.174619
2252.02, 0.174531
2253.0, 0.174222
2253.98, 0.174090
2254.96, 0.173870
2255.94, 0.173870
2256.92, 0.173650
2257.91, 0.173341
2258.89, 0.172857
2259.88, 0.172593
2260.86, 0.172681
2261.85, 0.172725
2262.83, 0.172417
2263.82, 0.172329
2264.81, 0.172064
2265.8, 0.171976
2266.79, 0.171844
2267.78, 0.171800
2268.78, 0.171316
2269.77, 0.171183
2270.76, 0.171051
2271.76, 0.170963
2272.75, 0.170831
2273.75, 0.170875
2274.75, 0.170699
2275.75, 0.170347
2276.75, 0.170082
2277.75, 0.169950
2278.75, 0.169730
2279.75, 0.169730
2280.75, 0.169598
2281.76, 0.169598
2282.76, 0.169422
2283.77, 0.169158
2284.77, 0.168981
2285.78, 0.169026
2286.79, 0.168629
2287.8, 0.168189
2288.81, 0.167880
2289.82, 0.167748
2290.83, 0.167792
2291.84, 0.167748
2292.86, 0.167484
2293.87, 0.167396
2294.89, 0.167264
2295.91, 0.167220
2296.92, 0.167264
2297.94, 0.167220
2298.96, 0.167044
2299.98, 0.166515
2301.0, 0.166383
2302.02, 0.166471
2303.04, 0.166207
2304.07, 0.165855
2305.09, 0.165723
2306.12, 0.165767
2307.15, 0.165634
2308.17, 0.165546
2309.2, 0.165370
2310.23, 0.165150
2311.26, 0.164842
2312.29, 0.164577
2313.32, 0.164577
2314.35, 0.164666
2315.39, 0.164710
2316.42, 0.164622
2317.46, 0.164313
2318.5, 0.164269
2319.53, 0.164137
2320.57, 0.163873
2321.61, 0.163741
2322.65, 0.163697
2323.69, 0.163432
2324.73, 0.163124
2325.78, 0.163080
2326.82, 0.163036
2327.86, 0.162728
2328.91, 0.162772
2329.96, 0.162728
2331.01, 0.162375
2332.05, 0.162243
2333.1, 0.162464
2334.15, 0.162287
2335.21, 0.161935
2336.26, 0.161979
2337.31, 0.161847
2338.36, 0.161759
2339.42, 0.161803
2340.48, 0.161803
2341.53, 0.161671
2342.59, 0.161407
2343.65, 0.161010
2344.71, 0.160658
2345.77, 0.160746
2346.83, 0.160834
2347.9, 0.160702
2348.96, 0.160482
2350.02, 0.160526
2351.09, 0.160526
2352.16, 0.160394
2353.23, 0.160129
2354.29, 0.159997
2355.36, 0.159865
2356.43, 0.159953
2357.51, 0.159997
2358.58, 0.159821
2359.65, 0.159645
2360.73, 0.159557
2361.8, 0.159205
2362.88, 0.159072
2363.96, 0.159072
2365.03, 0.159028
2366.11, 0.158984
2367.19, 0.158852
2368.27, 0.158676
2369.36, 0.158676
2370.44, 0.158544
2371.53, 0.158456
2372.61, 0.158280
2373.7, 0.158236
2374.78, 0.158016
2375.87, 0.157795
2376.96, 0.157663
2378.05, 0.157751
2379.14, 0.157839
2380.24, 0.157707
2381.33, 0.157487
2382.42, 0.157443
2383.52, 0.157223
2384.61, 0.157091
2385.71, 0.157003
2386.81, 0.157047
2387.91, 0.157091
2389.01, 0.157047
2390.11, 0.156915
2391.22, 0.156959
2392.32, 0.156915
2393.42, 0.156694
2394.53, 0.156474
2395.64, 0.156518
2396.74, 0.156474
2397.85, 0.156430
2398.96, 0.156562
2400.07, 0.156518
2401.18, 0.156166
2402.3, 0.156034
2403.41, 0.156034
2404.52, 0.156122
2405.64, 0.155990
2406.76, 0.155681
2407.88, 0.155329
2408.99, 0.155417
2410.11, 0.155461
2411.23, 0.155461
2412.36, 0.155373
2413.48, 0.155153
2414.6, 0.154977
2415.73, 0.154977
2416.85, 0.154668
2417.98, 0.154580
2419.11, 0.154668
2420.24, 0.154668
2421.37, 0.154580
2422.5, 0.154536
2423.64, 0.154580
2424.77, 0.154580
2425.9, 0.154624
2427.04, 0.154580
2428.18, 0.154184
2429.31, 0.154096
2430.45, 0.154052
2431.59, 0.154008
2432.73, 0.153920
2433.88, 0.153744
2435.02, 0.153567
2436.16, 0.153523
2437.31, 0.153656
2438.45, 0.153523
2439.6, 0.153567
2440.75, 0.153567
2441.9, 0.153171
2443.05, 0.153259
2444.2, 0.153303
2445.35, 0.153127
2446.51, 0.153083
2447.67, 0.153083
2448.82, 0.152995
2449.98, 0.152907
2451.14, 0.152731
2452.3, 0.152775
2453.46, 0.152907
2454.62, 0.152687
2455.78, 0.152422
2456.94, 0.152555
2458.11, 0.152687
2459.28, 0.152599
2460.44, 0.152555
2461.61, 0.152555
2462.78, 0.152378
2463.95, 0.152202
2465.12, 0.152158
2466.3, 0.152158
2467.47, 0.152026
2468.65, 0.151938
2469.82, 0.151806
2471.0, 0.151806
2472.18, 0.151894
2473.36, 0.151982
2474.54, 0.151850
2475.72, 0.151674
2476.9, 0.151498
2478.08, 0.151410
2479.27, 0.151321
2480.46, 0.151410
2481.64, 0.151454
2482.83, 0.151365
2484.02, 0.151189
2485.21, 0.151277
2486.4, 0.151365
2487.6, 0.151233
2488.79, 0.150969
2489.99, 0.150881
2491.18, 0.150969
2492.38, 0.151013
2493.58, 0.150749
2494.78, 0.150573
2495.98, 0.150485
2497.18, 0.150353
2498.39, 0.150176
2499.59, 0.150220
2500.8, 0.150264
2502.01, 0.150220
2503.21, 0.150044
2504.42, 0.150088
2505.63, 0.150088
2506.84, 0.150000
2508.06, 0.149868
2509.27, 0.149780
2510.49, 0.149780
2511.7, 0.149780
2512.92, 0.149736
2514.14, 0.149692
2515.36, 0.149428
2516.58, 0.149296
2517.8, 0.149296
2519.03, 0.149472
2520.25, 0.149208
2521.48, 0.148899
2522.7, 0.148811
2523.93, 0.148855
2525.16, 0.148855
2526.39, 0.148811
2527.62, 0.148591
2528.86, 0.148503
2530.09, 0.148283
2531.33, 0.148107
2532.56, 0.147974
2533.8, 0.148151
2535.04, 0.147886
2536.28, 0.147578
2537.52, 0.147710
2538.76, 0.147622
2540.01, 0.147622
2541.25, 0.147402
2542.5, 0.146961
2543.75, 0.147094
2544.99, 0.147270
2546.24, 0.147182
2547.49, 0.146653
2548.75, 0.146653
2550.0, 0.146389
2551.26, 0.145993
2552.51, 0.145816
2553.77, 0.146257
2555.03, 0.146565
2556.29, 0.146521
2557.55, 0.146477
2558.81, 0.145949
2560.08, 0.144407
2561.34, 0.143350
2562.61, 0.143262
2563.88, 0.143394
2565.14, 0.144275
2566.41, 0.145288
2567.68, 0.144804
2568.96, 0.143526
2570.23, 0.143703
2571.51, 0.144231
2572.78, 0.142513
2574.06, 0.142822
2575.34, 0.143438
2576.62, 0.142954
2577.9, 0.143570
2579.18, 0.143923
2580.47, 0.142866
2581.75, 0.142469
2583.04, 0.140752
2584.32, 0.140620
2585.61, 0.141985
2586.9, 0.141368
2588.2, 0.141545
2589.49, 0.142161
2590.78, 0.142425
2592.08, 0.141545
2593.37, 0.137449
2594.67, 0.133838
2595.97, 0.137052
2597.27, 0.140796
2598.57, 0.141897
2599.88, 0.141501
2601.18, 0.140752
2602.49, 0.140135
2603.79, 0.138726
2605.1, 0.137008
2606.41, 0.138065
2607.72, 0.139343
2609.03, 0.139431
2610.35, 0.139915
2611.66, 0.140135
2612.98, 0.139695
2614.3, 0.139519
2615.62, 0.137537
2616.94, 0.136348
2618.26, 0.137581
2619.58, 0.136524
2620.91, 0.136964
2622.23, 0.139078
2623.56, 0.139431
2624.89, 0.138506
2626.22, 0.136656
2627.55, 0.137361
2628.88, 0.136744
2630.21, 0.134630
2631.55, 0.136216
2632.89, 0.137273
2634.22, 0.137273
2635.56, 0.137977
2636.9, 0.138109
2638.25, 0.138065
2639.59, 0.137845
2640.93, 0.137317
2642.28, 0.137097
2643.63, 0.137097
2644.98, 0.136172
2646.33, 0.136084
2647.68, 0.136524
2649.03, 0.136612
2650.39, 0.136128
2651.74, 0.135071
2653.1, 0.135115
2654.46, 0.135379
2655.82, 0.135159
2657.18, 0.135555
2658.54, 0.134630
2659.9, 0.134014
2661.27, 0.134190
2662.64, 0.134234
2664.01, 0.131547
2665.38, 0.129213
2666.74, 0.129390
2668.12, 0.131063
2669.49, 0.128597
2670.87, 0.128377
2672.24, 0.132252
2673.62, 0.132781
2675.0, 0.131195
2676.38, 0.129830
2677.76, 0.130270
2679.15, 0.130491
2680.54, 0.132032
2681.92, 0.132296
2683.31, 0.131768
2684.7, 0.131724
2686.09, 0.131812
2687.48, 0.131900
2688.88, 0.131944
2690.27, 0.132032
2691.67, 0.131283
2693.07, 0.129081
2694.47, 0.128773
2695.87, 0.130006
2697.27, 0.130975
2698.67, 0.131195
2700.08, 0.130579
2701.49, 0.130050
2702.9, 0.130711
2704.31, 0.130799
2705.72, 0.130623
2707.13, 0.129962
2708.54, 0.128509
2709.96, 0.126483
2711.38, 0.126527
2712.8, 0.128905
2714.22, 0.129610
2715.64, 0.129345
2717.06, 0.128729
2718.49, 0.127496
2719.91, 0.124765
2721.34, 0.125558
2722.77, 0.126483
2724.2, 0.125426
2725.63, 0.127011
2727.07, 0.128773
2728.5, 0.129037
2729.94, 0.128817
2731.38, 0.128817
2732.82, 0.128244
2734.26, 0.126835
2735.7, 0.127055
2737.15, 0.127232
2738.59, 0.124986
2740.04, 0.123752
2741.49, 0.125162
2742.94, 0.127143
2744.39, 0.127804
2745.84, 0.127716
2747.3, 0.127584
2748.76, 0.127320
2750.21, 0.127055
2751.67, 0.126747
2753.14, 0.125734
2754.6, 0.123224
2756.06, 0.123620
2757.53, 0.126042
2759.0, 0.126615
2760.46, 0.126175
2761.94, 0.124765
2763.41, 0.124589
2764.88, 0.125294
2766.36, 0.125118
2767.83, 0.124721
2769.31, 0.124501
2770.79, 0.124105
2772.27, 0.124897
2773.76, 0.125514
2775.24, 0.125470
2776.73, 0.125162
2778.22, 0.125162
2779.71, 0.124809
2781.2, 0.124457
2782.69, 0.124501
2784.18, 0.124501
2785.68, 0.123532
2787.18, 0.123048
2788.68, 0.123708
2790.18, 0.124281
2791.68, 0.124237
2793.19, 0.124237
2794.69, 0.124193
2796.2, 0.123973
2797.71, 0.123840
2799.22, 0.123796
2800.73, 0.123224
2802.24, 0.122211
2803.76, 0.122123
2805.28, 0.122784
2806.8, 0.123092
2808.32, 0.123092
2809.84, 0.123004
2811.36, 0.122872
2812.89, 0.122563
2814.42, 0.122343
2815.94, 0.122343
2817.48, 0.122167
2819.01, 0.121683
2820.54, 0.121594
2822.08, 0.121947
2823.61, 0.122167
2825.15, 0.121991
2826.69, 0.121638
2828.23, 0.121330
2829.78, 0.121330
2831.32, 0.121198
2832.87, 0.121022
2834.42, 0.120890
2835.97, 0.120758
2837.52, 0.120493
2839.08, 0.120405
2840.63, 0.120361
2842.19, 0.120317
2843.75, 0.120273
2845.31, 0.120185
2846.87, 0.119965
2848.44, 0.119789
2850.0, 0.119613
2851.57, 0.119436
2853.14, 0.119128
2854.71, 0.119040
2856.28, 0.119172
2857.86, 0.119084
2859.43, 0.118776
2861.01, 0.118644
2862.59, 0.118644
2864.17, 0.118556
2865.76, 0.118247
2867.34, 0.118247
2868.93, 0.118247
2870.52, 0.118071
2872.11, 0.117807
2873.7, 0.117675
2875.29, 0.117587
2876.89, 0.117455
2878.49, 0.117367
2880.08, 0.117190
2881.69, 0.116926
2883.29, 0.116794
2884.89, 0.116794
2886.5, 0.116618
2888.11, 0.116442
2889.72, 0.116354
2891.33, 0.116266
2892.94, 0.116089
2894.56, 0.115957
2896.17, 0.115957
2897.79, 0.115781
2899.42, 0.115517
2901.04, 0.115297
2902.66, 0.115385
2904.29, 0.115297
2905.92, 0.115341
2907.55, 0.115209
2909.18, 0.115121
2910.81, 0.115032
2912.45, 0.114724
2914.08, 0.114504
2915.72, 0.114460
2917.36, 0.114284
2919.01, 0.114240
2920.65, 0.114196
2922.3, 0.114064
2923.94, 0.113843
2925.59, 0.113711
2927.25, 0.113579
2928.9, 0.113535
2930.56, 0.113359
2932.21, 0.113447
2933.87, 0.113271
2935.53, 0.113051
2937.2, 0.112963
2938.86, 0.112963
2940.53, 0.112963
2942.2, 0.112786
2943.87, 0.112654
2945.54, 0.112610
2947.22, 0.112390
2948.89, 0.112214
2950.57, 0.112082
2952.25, 0.111994
2953.93, 0.111906
2955.62, 0.111906
2957.3, 0.111685
2958.99, 0.111597
2960.68, 0.111509
2962.37, 0.111509
2964.07, 0.111333
2965.76, 0.111157
2967.46, 0.110937
2969.16, 0.110893
2970.86, 0.110849
2972.56, 0.110717
2974.27, 0.110496
2975.98, 0.110452
2977.69, 0.110496
2979.4, 0.110320
2981.11, 0.110144
2982.83, 0.110144
2984.54, 0.110056
2986.26, 0.110012
2987.98, 0.109880
2989.71, 0.109748
2991.43, 0.109572
2993.16, 0.109395
2994.89, 0.109351
2996.62, 0.109263
2998.35, 0.109087
3000.09, 0.109043
3001.83, 0.108999
3003.57, 0.108823
3005.31, 0.108603
3007.05, 0.108603
3008.79, 0.108603
3010.54, 0.108426
3012.29, 0.108118
3014.04, 0.108030
3015.8, 0.107986
3017.55, 0.107854
3019.31, 0.107678
3021.07, 0.107546
3022.83, 0.107458
3024.59, 0.107414
3026.36, 0.107237
3028.13, 0.107193
3029.9, 0.107061
3031.67, 0.107017
3033.44, 0.106885
3035.22, 0.106841
3037.0, 0.106577
3038.78, 0.106357
3040.56, 0.106313
3042.34, 0.106313
3044.13, 0.106092
3045.92, 0.105916
3047.71, 0.105828
3049.5, 0.105784
3051.3, 0.105652
3053.09, 0.105608
3054.89, 0.105388
3056.69, 0.105388
3058.5, 0.105344
3060.3, 0.105168
3062.11, 0.104947
3063.92, 0.104859
3065.73, 0.104771
3067.55, 0.104639
3069.36, 0.104419
3071.18, 0.104331
3073.0, 0.104199
3074.82, 0.104111
3076.65, 0.104022
3078.48, 0.103934
3080.31, 0.103802
3082.14, 0.103670
3083.97, 0.103494
3085.8, 0.103406
3087.64, 0.103318
3089.48, 0.103318
3091.33, 0.103186
3093.17, 0.102966
3095.02, 0.102877
3096.87, 0.102745
3098.72, 0.102569
3100.57, 0.102481
3102.43, 0.102393
3104.28, 0.102261
3106.14, 0.102261
3108.01, 0.102217
3109.87, 0.102085
3111.74, 0.101953
3113.61, 0.101820
3115.48, 0.101644
3117.35, 0.101600
3119.23, 0.101556
3121.1, 0.101424
3122.98, 0.101336
3124.87, 0.101380
3126.75, 0.101248
3128.64, 0.100984
3130.53, 0.100808
3132.42, 0.100719
3134.31, 0.100719
3136.21, 0.100631
3138.11, 0.100543
3140.01, 0.100411
3141.91, 0.100367
3143.82, 0.100323
3145.73, 0.100235
3147.64, 0.100147
3149.55, 0.100059
3151.46, 0.0999270
3153.38, 0.0998390
3155.3, 0.0997950
3157.22, 0.0997950
3159.14, 0.0997070
3161.07, 0.0995300
3163.0, 0.0994420
3164.93, 0.0994860
3166.86, 0.0994860
3168.8, 0.0993100
3170.74, 0.0990900
3172.68, 0.0989140
3174.62, 0.0988260
3176.56, 0.0987820
3178.51, 0.0986060
3180.46, 0.0986500
3182.42, 0.0986060
3184.37, 0.0984730
3186.33, 0.0983410
3188.29, 0.0982970
3190.25, 0.0981650
3192.21, 0.0979890
3194.18, 0.0979010
3196.15, 0.0979010
3198.12, 0.0977690
3200.09, 0.0975490
3202.07, 0.0975050
3204.05, 0.0975930
3206.03, 0.0975050
3208.02, 0.0973720
3210.0, 0.0972840
3211.99, 0.0972840
3213.98, 0.0970640
3215.98, 0.0970200
3217.97, 0.0969320
3219.97, 0.0968000
3221.97, 0.0966680
3223.98, 0.0965800
3225.98, 0.0964920
3227.99, 0.0964040
3230.0, 0.0964040
3232.02, 0.0962710
3234.03, 0.0960510
3236.05, 0.0960070
3238.07, 0.0960510
3240.1, 0.0960510
3242.12, 0.0959190
3244.15, 0.0958750
3246.18, 0.0957430
3248.22, 0.0956550
3250.25, 0.0956110
3252.29, 0.0954350
3254.33, 0.0953030
3256.38, 0.0952590
3258.43, 0.0950380
3260.47, 0.0948620
3262.53, 0.0948620
3264.58, 0.0948180
3266.64, 0.0947300
3268.7, 0.0945980
3270.76, 0.0945100
3272.82, 0.0945100
3274.89, 0.0943780
3276.96, 0.0943780
3279.04, 0.0942900
3281.11, 0.0941580
3283.19, 0.0940250
3285.27, 0.0939370
3287.35, 0.0939370
3289.44, 0.0938490
3291.53, 0.0936290
3293.62, 0.0935410
3295.71, 0.0934970
3297.81, 0.0932770
3299.91, 0.0932330
3302.01, 0.0932770
3304.11, 0.0931890
3306.22, 0.0931010
3308.33, 0.0929240
3310.44, 0.0928800
3312.56, 0.0927920
3314.68, 0.0926160
3316.8, 0.0925280
3318.92, 0.0923960
3321.05, 0.0922640
3323.18, 0.0921760
3325.31, 0.0920440
3327.44, 0.0919560
3329.58, 0.0919560
3331.72, 0.0917790
3333.86, 0.0916470
3336.01, 0.0915150
3338.16, 0.0914270
3340.31, 0.0914270
3342.46, 0.0912950
3344.61, 0.0911630
3346.77, 0.0910310
3348.94, 0.0908990
3351.1, 0.0908100
3353.27, 0.0908100
3355.44, 0.0906780
3357.61, 0.0905460
3359.79, 0.0905460
3361.97, 0.0904580
3364.15, 0.0902820
3366.33, 0.0901500
3368.52, 0.0901500
3370.71, 0.0900180
3372.9, 0.0897980
3375.1, 0.0897980
3377.3, 0.0897540
3379.5, 0.0895770
3381.71, 0.0894010
3383.91, 0.0892690
3386.12, 0.0891370
3388.34, 0.0890490
3390.55, 0.0890050
3392.77, 0.0889610
3394.99, 0.0888290
3397.22, 0.0886080
3399.45, 0.0884760
3401.68, 0.0884320
3403.91, 0.0883000
3406.15, 0.0882120
3408.39, 0.0880360
3410.63, 0.0879920
3412.87, 0.0878160
3415.12, 0.0877280
3417.37, 0.0876400
3419.63, 0.0875070
3421.88, 0.0873750
3424.14, 0.0874190
3426.41, 0.0873310
3428.67, 0.0871990
3430.94, 0.0871110
3433.21, 0.0870670
3435.49, 0.0870670
3437.77, 0.0868910
3440.05, 0.0867150
3442.33, 0.0867150
3444.62, 0.0866270
3446.91, 0.0865390
3449.2, 0.0864950
3451.5, 0.0863620
3453.8, 0.0862300
3456.1, 0.0860980
3458.41, 0.0859660
3460.72, 0.0859220
3463.03, 0.0858780
3465.34, 0.0857460
3467.66, 0.0856580
3469.98, 0.0856140
3472.31, 0.0854820
3474.63, 0.0853940
3476.96, 0.0852170
3479.3, 0.0851290
3481.64, 0.0849970
3483.97, 0.0849090
3486.32, 0.0848210
3488.66, 0.0847330
3491.01, 0.0845570
3493.36, 0.0845570
3495.72, 0.0845570
3498.08, 0.0845130
3500.44, 0.0843810
3502.81, 0.0842490
3505.18, 0.0841600
3507.55, 0.0842490
3509.92, 0.0841160
3512.3, 0.0840720
3514.68, 0.0840720
3517.06, 0.0839840
3519.45, 0.0838960
3521.84, 0.0838520
3524.24, 0.0838080
3526.64, 0.0838080
3529.04, 0.0837200
3531.44, 0.0836760
3533.85, 0.0835880
3536.26, 0.0835880
3538.67, 0.0835440
3541.09, 0.0835000
3543.51, 0.0834560
3545.93, 0.0834120
3548.36, 0.0834120
3550.79, 0.0833680
3553.22, 0.0831920
3555.66, 0.0832360
3558.1, 0.0832800
3560.54, 0.0832800
3562.99, 0.0831920
3565.44, 0.0831030
3567.9, 0.0830590
3570.35, 0.0831030
3572.81, 0.0831030
3575.28, 0.0831030
3577.75, 0.0831480
3580.22, 0.0832360
3582.69, 0.0831920
3585.17, 0.0831480
3587.65, 0.0831030
3590.14, 0.0832800
3592.62, 0.0834120
3595.11, 0.0835440
3597.61, 0.0835880
3600.11, 0.0835880
3602.61, 0.0836320
3605.11, 0.0837200
3607.62, 0.0837640
3610.14, 0.0838960
3612.65, 0.0839400
3615.17, 0.0839840
3617.69, 0.0840720
3620.22, 0.0842490
3622.75, 0.0843810
3625.28, 0.0844690
3627.82, 0.0845130
3630.36, 0.0845570
3632.9, 0.0846450
3635.45, 0.0847330
3638.0, 0.0848210
3640.56, 0.0849970
3643.12, 0.0851730
3645.68, 0.0852610
3648.24, 0.0852610
3650.81, 0.0853500
3653.39, 0.0854380
3655.96, 0.0854380
3658.54, 0.0855260
3661.13, 0.0856140
3663.71, 0.0856580
3666.3, 0.0856580
3668.9, 0.0857460
3671.5, 0.0857900
3674.1, 0.0858780
3676.7, 0.0858780
3679.31, 0.0858340
3681.93, 0.0858780
3684.54, 0.0859660
3687.17, 0.0860980
3689.79, 0.0860980
3692.42, 0.0861420
3695.05, 0.0861420
3697.69, 0.0862300
3700.32, 0.0862300
3702.97, 0.0862300
3705.61, 0.0861860
3708.27, 0.0862300
3710.92, 0.0862740
3713.58, 0.0863180
3716.24, 0.0862300
3718.91, 0.0863180
3721.58, 0.0863620
3724.25, 0.0863620
3726.93, 0.0863180
3729.61, 0.0864060
3732.29, 0.0864510
3734.98, 0.0864510
3737.67, 0.0864510
3740.37, 0.0864510
3743.07, 0.0864510
3745.78, 0.0865390
3748.49, 0.0864950
3751.2, 0.0864950
3753.91, 0.0865390
3756.63, 0.0864510
3759.36, 0.0863620
3762.09, 0.0864060
3764.82, 0.0864060
3767.55, 0.0864510
3770.29, 0.0864060
3773.04, 0.0864060
3775.78, 0.0863180
3778.54, 0.0862740
3781.29, 0.0862740
3784.05, 0.0863180
3786.82, 0.0862300
3789.59, 0.0861860
3792.36, 0.0861420
3795.13, 0.0860980
3797.92, 0.0859660
3800.7, 0.0859220
3803.49, 0.0859220
3806.28, 0.0858780
3809.08, 0.0858340
3811.88, 0.0857900
3814.68, 0.0857020
3817.49, 0.0856580
3820.31, 0.0856580
3823.12, 0.0856580
3825.94, 0.0854820
3828.77, 0.0853940
3831.6, 0.0854380
3834.43, 0.0854820
3837.27, 0.0854380
3840.11, 0.0853500
3842.96, 0.0851730
3845.81, 0.0851290
3848.67, 0.0851290
3851.53, 0.0851290
3854.39, 0.0851290
3857.26, 0.0850850
3860.13, 0.0850410
3863.01, 0.0849530
3865.89, 0.0849090
3868.77, 0.0847770
3871.66, 0.0846890
3874.55, 0.0846890
3877.45, 0.0846890
3880.35, 0.0846450
3883.26, 0.0845570
3886.17, 0.0845570
3889.09, 0.0844690
3892.01, 0.0844250
3894.93, 0.0843810
3897.86, 0.0843370
3900.79, 0.0842490
3903.73, 0.0842040
3906.67, 0.0841160
3909.62, 0.0841160
3912.57, 0.0840720
3915.52, 0.0839400
3918.48, 0.0838520
3921.45, 0.0838960
3924.42, 0.0838080
3927.39, 0.0837640
3930.37, 0.0837640
3933.35, 0.0837200
3936.34, 0.0835880
3939.33, 0.0835440
3942.32, 0.0835000
3945.32, 0.0834560
3948.33, 0.0834560
3951.34, 0.0834120
3954.35, 0.0833240
3957.37, 0.0832800
3960.39, 0.0831030
3963.42, 0.0830150
3966.45, 0.0830590
3969.49, 0.0830150
3972.53, 0.0828830
3975.58, 0.0828390
3978.63, 0.0827510
3981.68, 0.0827070
3984.75, 0.0826630
3987.81, 0.0826190
3990.88, 0.0825750
3993.95, 0.0826190
3997.03, 0.0825750
4000.12, 0.0826190
4003.21, 0.0825310
4006.3, 0.0824870
4009.4, 0.0823990
4012.5, 0.0823990
4015.61, 0.0823990
4018.72, 0.0824430
4021.84, 0.0823110
4024.96, 0.0823110
4028.09, 0.0823110
4031.22, 0.0822670
4034.36, 0.0822230
4037.5, 0.0821350
4040.65, 0.0820910
4043.8, 0.0820470
4046.96, 0.0820020
4050.12, 0.0820020
4053.29, 0.0820470
4056.46, 0.0819580
4059.64, 0.0817820
4062.82, 0.0818260
4066.0, 0.0818700
4069.19, 0.0817820
4072.39, 0.0817820
4075.59, 0.0817820
4078.8, 0.0816500
4082.01, 0.0815620
4085.23, 0.0815620
4088.45, 0.0815620
4091.68, 0.0814300
4094.91, 0.0813860
4098.15, 0.0813420
4101.39, 0.0812980
4104.63, 0.0812540
4107.89, 0.0811660
4111.14, 0.0810340
4114.41, 0.0809460
4117.67, 0.0808570
4120.95, 0.0808130
4124.23, 0.0806810
4127.51, 0.0805930
4130.8, 0.0805930
4134.09, 0.0805930
4137.39, 0.0805050
4140.7, 0.0804170
4144.01, 0.0803290
4147.32, 0.0802410
4150.64, 0.0801090
4153.97, 0.0800650
4157.3, 0.0800650
4160.64, 0.0800210
4163.98, 0.0799330
4167.33, 0.0798890
4170.68, 0.0798890
4174.04, 0.0798450
4177.4, 0.0797560
4180.77, 0.0796680
4184.14, 0.0796680
4187.52, 0.0796680
4190.91, 0.0795800
4194.3, 0.0795800
4197.69, 0.0795360
4201.1, 0.0794920
4204.5, 0.0794480
4207.92, 0.0793600
4211.34, 0.0793160
4214.76, 0.0792720
4218.19, 0.0792280
4221.62, 0.0792280
4225.06, 0.0790960
4228.51, 0.0790080
4231.96, 0.0789200
4235.42, 0.0788760
4238.88, 0.0788760
4242.35, 0.0789640
4245.83, 0.0790080
4249.31, 0.0791840
4252.79, 0.0792720
4256.28, 0.0792720
4259.78, 0.0791840
4263.29, 0.0791840
4266.79, 0.0791840
4270.31, 0.0791840
4273.83, 0.0791840
4277.35, 0.0792280
4280.89, 0.0791840
4284.42, 0.0791400
4287.97, 0.0791400
4291.52, 0.0791400
4295.07, 0.0792280
4298.63, 0.0792720
4302.2, 0.0791840
4305.78, 0.0791400
4309.35, 0.0790960
4312.94, 0.0790520
4316.53, 0.0789640
4320.13, 0.0789200
4323.73, 0.0788760
4327.34, 0.0788320
4330.96, 0.0786990
4334.58, 0.0786110
4338.21, 0.0785670
4341.84, 0.0785230
4345.48, 0.0783910
4349.12, 0.0783910
4352.77, 0.0783470
4356.43, 0.0783030
4360.1, 0.0782590
4363.76, 0.0781710
4367.44, 0.0781710
4371.12, 0.0780830
4374.81, 0.0779950
4378.51, 0.0779510
4382.21, 0.0779950
4385.92, 0.0779950
4389.63, 0.0779070
4393.35, 0.0777750
4397.08, 0.0777750
4400.81, 0.0778190
4404.55, 0.0779070
4408.29, 0.0779070
4412.04, 0.0779070
4415.8, 0.0779510
4419.57, 0.0779070
4423.34, 0.0778630
4427.12, 0.0778630
4430.9, 0.0778190
4434.69, 0.0777750
4438.49, 0.0778190
4442.29, 0.0778190
4446.1, 0.0778630
4449.92, 0.0778190
4453.74, 0.0778190
4457.57, 0.0778190
4461.41, 0.0777310
4465.25, 0.0776430
4469.1, 0.0776430
4472.95, 0.0776870
4476.82, 0.0777310
4480.69, 0.0776870
4484.56, 0.0775980
4488.44, 0.0775100
4492.33, 0.0775540
4496.23, 0.0775100
4500.13, 0.0773780
4504.04, 0.0772900
4507.96, 0.0772900
4511.88, 0.0772900
4515.81, 0.0772460
4519.75, 0.0771580
4523.69, 0.0771140
4527.65, 0.0771580
4531.6, 0.0771140
4535.57, 0.0769380
4539.54, 0.0768500
4543.52, 0.0768060
4547.5, 0.0767180
4551.5, 0.0765860
4555.5, 0.0765860
4559.5, 0.0764530
4563.52, 0.0763650
4567.54, 0.0762770
4571.56, 0.0761890
4575.6, 0.0760570
4579.64, 0.0760130
4583.69, 0.0758810
4587.75, 0.0757490
4591.81, 0.0755730
4595.88, 0.0754410
4599.96, 0.0754410
4604.04, 0.0753520
4608.14, 0.0751760
4612.24, 0.0750000
4616.34, 0.0747800
4620.46, 0.0746480
4624.58, 0.0745160
4628.71, 0.0743840
4632.84, 0.0741630
4636.99, 0.0739430
4641.14, 0.0737670
4645.3, 0.0735910
4649.47, 0.0735030
4653.64, 0.0733270
4657.82, 0.0730180
4662.01, 0.0727540
4666.21, 0.0725780
4670.41, 0.0724020
4674.62, 0.0721380
4678.84, 0.0718730
4683.07, 0.0716090
4687.3, 0.0713890
4691.54, 0.0711250
4695.79, 0.0708600
4700.05, 0.0705520
4704.31, 0.0702000
4708.59, 0.0698910
4712.87, 0.0695830
4717.15, 0.0691870
4721.45, 0.0688790
4725.76, 0.0685260
4730.07, 0.0679540
4734.39, 0.0673370
4738.72, 0.0668090
4743.05, 0.0663240
4747.39, 0.0660160
4751.75, 0.0657520
4756.1, 0.0655320
4760.47, 0.0653990
4764.85, 0.0652230
4769.23, 0.0650470
4773.62, 0.0649590
4778.02, 0.0648710
4782.43, 0.0647390
4786.85, 0.0644310
4791.27, 0.0642100
4795.7, 0.0640340
4800.14, 0.0638140
4804.59, 0.0635500
4809.05, 0.0632850
4813.51, 0.0629330
4817.99, 0.0626250
4822.47, 0.0623170
4826.96, 0.0619640
4831.46, 0.0616560
4835.96, 0.0613480
4840.48, 0.0609510
4845.0, 0.0605990
4849.54, 0.0602470
4854.08, 0.0598940
4858.63, 0.0594980
4863.18, 0.0591020
4867.75, 0.0587050
4872.33, 0.0582650
4876.91, 0.0577800
4881.5, 0.0573400
4886.1, 0.0568560
4890.71, 0.0562830
4895.33, 0.0556670
4899.96, 0.0550940
4904.59, 0.0544770
4909.24, 0.0539050
4913.89, 0.0532440
4918.55, 0.0526280
4923.22, 0.0519230
4927.9, 0.0512630
4932.59, 0.0506900
4937.29, 0.0501180
4942.0, 0.0495450
4946.71, 0.0490170
4951.44, 0.0486200
4956.17, 0.0483560
4960.91, 0.0481360
4965.67, 0.0479160
4970.43, 0.0476950
4975.2, 0.0475190
4979.98, 0.0474310
4984.76, 0.0473430
4989.56, 0.0472110
4994.37, 0.0470790
4999.18, 0.0470350
5004.01, 0.0470350
5008.84, 0.0471230
5013.69, 0.0472550
5018.54, 0.0473430
5023.4, 0.0475190
5028.28, 0.0476950
5033.16, 0.0477830
5038.05, 0.0476950
5042.95, 0.0474750
5047.86, 0.0472110
5052.78, 0.0469470
5057.71, 0.0466380
5062.65, 0.0464180
5067.6, 0.0461980
5072.56, 0.0460220
5077.53, 0.0459340
5082.5, 0.0458900
5087.49, 0.0458460
5092.49, 0.0458460
5097.5, 0.0458020
5102.51, 0.0457580
5107.54, 0.0457140
5112.58, 0.0456250
5117.62, 0.0454930
5122.68, 0.0452290
5127.75, 0.0449650
5132.82, 0.0446570
5137.91, 0.0443040
5143.01, 0.0439080
5148.12, 0.0435120
5153.23, 0.0434230
5158.36, 0.0432470
5163.5, 0.0429830
5168.65, 0.0426310
5173.81, 0.0423220
5178.98, 0.0420140
5184.15, 0.0417060
5189.34, 0.0413980
5194.54, 0.0410890
5199.75, 0.0408250
5204.98, 0.0406930
5210.21, 0.0404290
5215.45, 0.0404290
5220.7, 0.0405610
5225.96, 0.0405610
5231.23, 0.0405610
5236.52, 0.0406050
5241.81, 0.0407370
5247.12, 0.0408690
5252.44, 0.0410010
5257.76, 0.0412210
5263.1, 0.0414420
5268.45, 0.0417060
5273.81, 0.0419260
5279.18, 0.0421900
5284.56, 0.0424990
5289.95, 0.0426750
5295.36, 0.0429830
5300.77, 0.0434230
5306.2, 0.0437320
5311.63, 0.0440400
5317.08, 0.0443920
5322.54, 0.0446570
5328.01, 0.0448330
5333.49, 0.0450090
5338.98, 0.0451410
5344.49, 0.0450530
5350.0, 0.0448770
5355.53, 0.0451410
5361.07, 0.0454490
5366.62, 0.0454930
5372.18, 0.0454490
5377.75, 0.0454050
5383.34, 0.0453610
5388.93, 0.0453610
5394.54, 0.0452290
5400.16, 0.0452730
5405.79, 0.0452730
5411.44, 0.0451850
5417.09, 0.0448330
5422.76, 0.0447890
5428.43, 0.0454050
5434.12, 0.0458020
5439.83, 0.0459340
5445.54, 0.0461100
5451.26, 0.0462420
5457.0, 0.0462420
5462.75, 0.0461100
5468.52, 0.0464180
5474.29, 0.0466380
5480.08, 0.0467260
5485.88, 0.0470790
5491.69, 0.0472990
5497.51, 0.0473430
5503.35, 0.0474750
5509.2, 0.0477390
5515.06, 0.0478710
5520.93, 0.0480480
5526.82, 0.0483560
5532.71, 0.0487520
5538.63, 0.0490610
5544.55, 0.0492370
5550.49, 0.0492810
5556.44, 0.0494130
5562.4, 0.0498090
5568.37, 0.0499410
5574.36, 0.0495890
5580.36, 0.0495890
5586.37, 0.0502940
5592.4, 0.0507780
5598.44, 0.0508220
5604.49, 0.0508660
5610.56, 0.0509540
5616.63, 0.0509980
5622.73, 0.0512190
5628.83, 0.0512190
5634.95, 0.0507340
5641.08, 0.0500290
5647.23, 0.0504260
5653.39, 0.0506900
5659.56, 0.0508220
5665.74, 0.0509540
5671.94, 0.0503380
5678.15, 0.0501180
5684.38, 0.0502060
5690.62, 0.0498530
5696.87, 0.0498530
5703.14, 0.0495010
5709.42, 0.0487960
5715.72, 0.0487520
5722.03, 0.0489280
5728.35, 0.0490170
5734.69, 0.0488840
5741.03, 0.0486200
5747.4, 0.0482240
5753.78, 0.0484440
5760.17, 0.0475630
5766.58, 0.0465060
5773.0, 0.0473430
5779.44, 0.0478270
5785.88, 0.0478270
5792.35, 0.0477390
5798.83, 0.0474750
5805.32, 0.0472550
5811.83, 0.0466380
5818.35, 0.0452730
5824.89, 0.0449210
5831.45, 0.0454930
5838.01, 0.0457580
5844.59, 0.0457140
5851.19, 0.0453610
5857.8, 0.0448770
5864.43, 0.0444800
5871.07, 0.0441280
5877.73, 0.0424990
5884.4, 0.0422340
5891.09, 0.0424550
5897.79, 0.0421020
5904.5, 0.0429390
5911.23, 0.0428950
5917.98, 0.0425430
5924.75, 0.0421020
5931.53, 0.0408250
5938.32, 0.0402970
5945.13, 0.0414860
5951.96, 0.0418820
5958.8, 0.0419700
5965.65, 0.0413100
5972.53, 0.0413540
5979.42, 0.0415740
5986.32, 0.0410450
5993.24, 0.0410010
6000.18, 0.0413980
6007.13, 0.0410450
6014.1, 0.0404290
6021.08, 0.0403850
6028.09, 0.0402090
6035.1, 0.0395920
6042.14, 0.0377420
6049.19, 0.0361570
6056.25, 0.0373460
6063.34, 0.0376540
6070.44, 0.0366850
6077.55, 0.0365090
6084.69, 0.0368170
6091.84, 0.0365090
6099.0, 0.0359370
6106.19, 0.0350120
6113.39, 0.0341310
6120.61, 0.0344390
6127.84, 0.0347040
6135.09, 0.0343070
6142.36, 0.0339110
6149.65, 0.0336470
6156.95, 0.0332060
6164.27, 0.0331180
6171.61, 0.0332060
6178.97, 0.0325460
6186.34, 0.0321490
6193.73, 0.0327660
6201.14, 0.0330740
6208.57, 0.0330300
6216.01, 0.0330740
6223.47, 0.0332500
6230.95, 0.0333380
6238.45, 0.0333820
6245.97, 0.0334700
6253.5, 0.0335580
6261.06, 0.0335580
6268.63, 0.0335580
6276.21, 0.0335580
6283.82, 0.0335140
6291.45, 0.0334260
6299.1, 0.0333380
6306.76, 0.0332940
6314.44, 0.0332940
6322.14, 0.0333380
6329.86, 0.0332940
6337.6, 0.0326780
6345.35, 0.0323690
6353.13, 0.0331180
6360.92, 0.0332060
6368.74, 0.0328540
6376.57, 0.0330740
6384.43, 0.0332060
6392.3, 0.0330740
6400.19, 0.0326780
6408.1, 0.0312240
6416.03, 0.0307840
6423.98, 0.0317970
6431.95, 0.0322810
6439.94, 0.0326780
6447.95, 0.0330300
6455.98, 0.0331180
6464.03, 0.0331180
6472.1, 0.0327660
6480.19, 0.0322810
6488.31, 0.0315330
6496.44, 0.0315330
6504.59, 0.0325900
6512.76, 0.0327660
6520.95, 0.0322810
6529.16, 0.0324570
6537.4, 0.0323690
6545.65, 0.0319290
6553.92, 0.0315330
6562.22, 0.0311800
6570.54, 0.0303440
6578.88, 0.0304760
6587.23, 0.0306080
6595.61, 0.0304320
6604.02, 0.0303880
6612.44, 0.0300790
6620.89, 0.0296390
6629.35, 0.0286260
6637.84, 0.0278770
6646.35, 0.0286260
6654.88, 0.0290660
6663.44, 0.0286700
6672.01, 0.0280980
6680.61, 0.0277010
6689.23, 0.0278330
6697.88, 0.0278330
6706.54, 0.0273050
6715.23, 0.0270410
6723.94, 0.0270410
6732.67, 0.0270850
6741.42, 0.0269520
6750.2, 0.0267320
6759.0, 0.0265560
6767.82, 0.0262480
6776.67, 0.0258960
6785.54, 0.0254550
6794.44, 0.0254110
6803.35, 0.0257630
6812.29, 0.0257190
6821.26, 0.0253670
6830.24, 0.0251910
6839.25, 0.0252790
6848.29, 0.0248390
6857.35, 0.0240020
6866.43, 0.0236940
6875.54, 0.0242220
6884.67, 0.0242660
6893.82, 0.0240020
6903.0, 0.0236050
6912.2, 0.0233850
6921.43, 0.0232090
6930.69, 0.0229890
6939.96, 0.0227250
6949.27, 0.0222840
6958.59, 0.0215800
6967.95, 0.0214920
6977.33, 0.0214030
6986.73, 0.0211390
6996.16, 0.0208310
7005.61, 0.0205230
7015.09, 0.0201700
7024.6, 0.0199060
7034.13, 0.0194660
7043.69, 0.0188490
7053.27, 0.0186730
7062.88, 0.0186730
7072.52, 0.0185410
7082.18, 0.0184090
7091.87, 0.0182330
7101.58, 0.0182330
7111.32, 0.0183650
7121.09, 0.0187610
7130.88, 0.0194220
7140.71, 0.0200820
7150.56, 0.0209190
7160.43, 0.0219320
7170.33, 0.0227250
7180.27, 0.0236050
7190.23, 0.0240900
7200.21, 0.0241780
7210.23, 0.0242220
7220.27, 0.0243980
7230.34, 0.0243540
7240.44, 0.0241340
7250.56, 0.0239580
7260.72, 0.0238260
7270.9, 0.0235170
7281.12, 0.0233850
7291.36, 0.0232970
7301.63, 0.0231210
7311.93, 0.0230330
7322.25, 0.0229890
7332.61, 0.0227690
7343.0, 0.0225930
7353.41, 0.0225480
7363.86, 0.0225480
7374.33, 0.0223720
7384.83, 0.0222400
7395.37, 0.0221080
7405.93, 0.0220200
7416.53, 0.0218880
7427.15, 0.0217560
7437.81, 0.0216240
7448.5, 0.0215800
7459.22, 0.0213590
7469.96, 0.0212710
7480.74, 0.0211830
7491.55, 0.0210070
7502.39, 0.0209190
7513.27, 0.0207430
7524.17, 0.0206110
7535.11, 0.0205230
7546.08, 0.0203910
7557.08, 0.0202140
7568.11, 0.0200820
7579.17, 0.0199060
7590.27, 0.0196420
7601.4, 0.0195540
7612.56, 0.0193780
7623.76, 0.0192010
7634.98, 0.0190690
7646.24, 0.0190250
7657.54, 0.0188490
7668.87, 0.0186730
7680.23, 0.0184530
7691.62, 0.0182770
7703.05, 0.0181000
7714.51, 0.0179680
7726.01, 0.0178800
7737.54, 0.0177480
7749.11, 0.0176160
7760.71, 0.0174400
7772.35, 0.0171760
7784.02, 0.0169550
7795.72, 0.0167350
7807.46, 0.0165150
7819.23, 0.0163830
7831.04, 0.0162070
7842.89, 0.0159420
7854.77, 0.0157660
7866.69, 0.0155900
7878.65, 0.0153700
7890.64, 0.0152380
7902.67, 0.0151060
7914.74, 0.0148860
7926.84, 0.0146210
7938.98, 0.0143130
7951.16, 0.0141810
7963.37, 0.0140050
7975.62, 0.0137400
7987.91, 0.0135640
8000.24, 0.0133880
8012.6, 0.0131240
8025.01, 0.0129040
8037.45, 0.0126390
8049.93, 0.0124630
8062.45, 0.0122430
8075.01, 0.0120230
8087.61, 0.0118030
8100.24, 0.0115380
8112.91, 0.0112740
8125.63, 0.0110540
8138.39, 0.0107900
8151.18, 0.0106140
8164.02, 0.0104370
8176.9, 0.0102170
8189.81, 0.00999700
8202.77, 0.00973300
8215.77, 0.00955700
8228.82, 0.00929200
8241.9, 0.00898400
8255.02, 0.00880800
8268.19, 0.00850000
8281.39, 0.00819100
8294.65, 0.00792700
8307.94, 0.00775100
8321.28, 0.00757500
8334.66, 0.00731100
8348.08, 0.00704600
8361.54, 0.00678200
8375.05, 0.00660600
8388.6, 0.00643000
8402.2, 0.00616600
8415.84, 0.00598900
8429.52, 0.00576900
8443.25, 0.00563700
8457.02, 0.00550500
8470.84, 0.00532900
8484.7, 0.00510900
8498.61, 0.00497700
8512.57, 0.00484400
8526.57, 0.00480000
8540.62, 0.00493200
8554.71, 0.00510900
8568.85, 0.00510900
8583.04, 0.00524100
8597.27, 0.00550500
8611.55, 0.00603300
8625.88, 0.00651800
8640.26, 0.00709000
8654.68, 0.00779500
8669.16, 0.00876400
8683.68, 0.00990900
8698.25, 0.0112740
8712.87, 0.0129040
8727.53, 0.0148410
8742.25, 0.0173080
8757.02, 0.0202580
8771.83, 0.0234730
8786.7, 0.0273490
8801.62, 0.0318850
8816.59, 0.0371700
8831.61, 0.0432470
8846.68, 0.0502060
8861.8, 0.0578690
8876.97, 0.0665440
8892.2, 0.0762330
8907.48, 0.0868470
8922.81, 0.0985170
8938.2, 0.111069
8953.63, 0.124413
8969.13, 0.138638
8984.67, 0.153744
9000.27, 0.169642
9015.92, 0.186113
9031.63, 0.202892
9047.39, 0.219848
9063.21, 0.236407
9079.08, 0.251777
9095.01, 0.265209
9111.0, 0.276263
9127.04, 0.284851
9143.13, 0.291853
9159.28, 0.297975
9175.49, 0.303744
9191.76, 0.309337
9208.09, 0.314578
9224.47, 0.319202
9240.92, 0.323342
9257.42, 0.326777
9273.98, 0.329155
9290.6, 0.330388
9307.28, 0.330828
9324.02, 0.330476
9340.82, 0.329331
9357.68, 0.327525
9374.6, 0.325103
9391.58, 0.322285
9408.62, 0.319202
9425.73, 0.316031
9442.9, 0.312948
9460.13, 0.309645
9477.42, 0.306254
9494.78, 0.302731
9512.2, 0.298855
9529.69, 0.294451
9547.24, 0.289651
9564.86, 0.284234
9582.54, 0.277848
9600.28, 0.270406
9618.1, 0.261245
9635.97, 0.249971
9653.92, 0.236847
9671.93, 0.222842
9690.01, 0.209498
9708.16, 0.197343
9726.37, 0.186377
9744.65, 0.176160
9763.0, 0.166471
9781.43, 0.157135
9799.92, 0.148195
9818.48, 0.139475
9837.1, 0.131107
9855.8, 0.123356
9874.58, 0.116970
9893.42, 0.113491
9912.34, 0.114812
9931.33, 0.121947
9950.39, 0.133353
9969.52, 0.146037
9988.74, 0.157575
10008.0, 0.167440
10027.4, 0.176028
10046.8, 0.183999
10066.3, 0.191926
10085.9, 0.199898
10105.6, 0.207384
10125.3, 0.213506
10145.1, 0.217778
10165.0, 0.220112
10185.0, 0.220684
10205.0, 0.220112
10225.2, 0.219583
10245.4, 0.219892
10265.7, 0.222975
10286.0, 0.231254
10306.5, 0.244686
10327.0, 0.259924
10347.6, 0.272431
10368.3, 0.279918
10389.1, 0.282825
10409.9, 0.282429
10430.9, 0.280138
10451.9, 0.276835
10473.0, 0.272740
10494.2, 0.267983
10515.5, 0.262787
10536.9, 0.257017
10558.4, 0.251424
10579.9, 0.248121
10601.5, 0.252481
10623.3, 0.270450
10645.1, 0.299296
10667.0, 0.326425
10689.0, 0.343556
10711.1, 0.350999
10733.2, 0.351924
10755.5, 0.348753
10777.9, 0.343556
10800.3, 0.337126
10822.9, 0.329199
10845.5, 0.319730
10868.2, 0.309425
10891.1, 0.299208
10914.0, 0.290003
10937.0, 0.282561
10960.2, 0.276791
10983.4, 0.271815
11006.7, 0.266882
11030.1, 0.260673
11053.6, 0.251997
11077.3, 0.240238
11101.0, 0.226057
11124.8, 0.210775
11148.7, 0.195714
11172.7, 0.182282
11196.9, 0.170655
11221.1, 0.160350
11245.4, 0.151454
11269.9, 0.143967
11294.4, 0.137361
11319.1, 0.131415
11343.9, 0.125954
11368.8, 0.121110
11393.7, 0.116750
11418.8, 0.112654
11444.0, 0.108955
11469.4, 0.105520
11494.8, 0.102701
11520.3, 0.100323
11546.0, 0.0982530
11571.8, 0.0963150
11597.7, 0.0945980
11623.7, 0.0931890
11649.8, 0.0920440
11676.0, 0.0910310
11702.4, 0.0902380
11728.9, 0.0896210
11755.5, 0.0891810
11782.2, 0.0888730
11809.0, 0.0885640
11836.0, 0.0883440
11863.0, 0.0881680
11890.3, 0.0881240
11917.6, 0.0880360
11945.0, 0.0880360
11972.6, 0.0880360
12000.4, 0.0879920
12028.2, 0.0879920
12056.2, 0.0880360
12084.3, 0.0880360
12112.5, 0.0880360
12140.9, 0.0879480
12169.4, 0.0879480
12198.0, 0.0879480
12226.8, 0.0878600
12255.7, 0.0877280
12284.7, 0.0875070
12313.9, 0.0874190
12343.2, 0.0873310
12372.7, 0.0870670
12402.3, 0.0868470
12432.0, 0.0866710
12461.9, 0.0864950
12491.9, 0.0860540
12522.1, 0.0855700
12552.4, 0.0852610
12582.9, 0.0849530
12613.5, 0.0847770
12644.3, 0.0843810
12675.2, 0.0836320
12706.3, 0.0831030
12737.5, 0.0827070
12768.9, 0.0820910
12800.4, 0.0815180
12832.1, 0.0811220
12863.9, 0.0805050
12895.9, 0.0797120
12928.1, 0.0791400
12960.4, 0.0786110
12992.9, 0.0778190
13025.5, 0.0770700
13058.3, 0.0763650
13091.3, 0.0754410
13124.4, 0.0744280
13157.8, 0.0738550
13191.2, 0.0732830
13224.9, 0.0725340
13258.7, 0.0716530
13292.7, 0.0706840
13326.9, 0.0697590
13361.2, 0.0689670
13395.7, 0.0680420
13430.4, 0.0669850
13465.3, 0.0661040
13500.4, 0.0651790
13535.7, 0.0642540
13571.1, 0.0632850
13606.7, 0.0620960
13642.5, 0.0610390
13678.5, 0.0600710
13714.7, 0.0590140
13751.1, 0.0579570
13787.6, 0.0568560
13824.4, 0.0555780
13861.4, 0.0541250
13898.5, 0.0527160
13935.9, 0.0514830
13973.5, 0.0499410
14011.2, 0.0483560
14049.2, 0.0468150
14087.4, 0.0452730
14125.8, 0.0436000
14164.3, 0.0423220
14203.2, 0.0418820
14242.2, 0.0428510
14281.4, 0.0472990
14320.9, 0.0569440
14360.5, 0.0710370
14400.4, 0.0839840
14440.5, 0.0897540
14480.9, 0.0889170
14521.4, 0.0860100
14562.2, 0.0871110
14603.3, 0.0968880
14644.5, 0.115693
14686.0, 0.138153
14727.7, 0.154845
14769.7, 0.160173
14811.9, 0.154845
14854.3, 0.143394
14897.0, 0.130446
14939.9, 0.118380
14983.1, 0.107854
15026.5, 0.0992660
15070.2, 0.0923520
15114.2, 0.0864510
15158.3, 0.0815620
15202.8, 0.0775100
15247.5, 0.0746480
15292.5, 0.0742510
15337.7, 0.0780390
15383.2, 0.0857460
15429.0, 0.0953030
15475.1, 0.103802
15521.4, 0.108735
15568.0, 0.109131
15614.9, 0.105740
15662.1, 0.100103
15709.6, 0.0941580
15757.3, 0.0888290
15805.4, 0.0845130
15853.7, 0.0809010
15902.3, 0.0778630
15951.2, 0.0753960
16000.5, 0.0732390
16050.0, 0.0713450
16099.8, 0.0696710
16150.0, 0.0680860
16200.5, 0.0666330
16251.3, 0.0655320
16302.4, 0.0642980
16353.8, 0.0627570
16405.5, 0.0615240
16457.6, 0.0605990
16510.0, 0.0592780
16562.8, 0.0581330
16615.9, 0.0572080
16669.3, 0.0562390
16723.1, 0.0551380
16777.2, 0.0542130
16831.7, 0.0534650
16886.5, 0.0524960
16941.7, 0.0513950
16997.2, 0.0504700
17053.1, 0.0497650
17109.4, 0.0493250
17166.1, 0.0489280
17223.1, 0.0482680
17280.5, 0.0476510
17338.3, 0.0471670
17396.5, 0.0469470
17455.1, 0.0469030
17514.0, 0.0469030
17573.4, 0.0471670
17633.2, 0.0477390
17693.4, 0.0484440
17754.0, 0.0493250
17815.0, 0.0506460
17876.4, 0.0528040
17938.3, 0.0551820
18000.5, 0.0578250
18063.3, 0.0611280
18126.4, 0.0646950
18190.0, 0.0683060
18254.1, 0.0721820
18318.6, 0.0758370
18383.5, 0.0794040
18449.0, 0.0823550
18514.9, 0.0846010
18581.2, 0.0865390
18648.0, 0.0880800
18715.4, 0.0900620
18783.2, 0.0921320
18851.5, 0.0948620
18920.3, 0.0987820
18989.6, 0.105432
19059.4, 0.116133
19129.7, 0.131151
19200.6, 0.149824
19272.0, 0.169070
19343.9, 0.183779
19416.3, 0.193336
19489.3, 0.201087
19562.8, 0.210379
19637.0, 0.223151
19711.6, 0.240414
19786.8, 0.263535
19862.6, 0.288506
19939.0, 0.310702
20016.0, 0.327614
20093.6, 0.338491
20171.8, 0.345494
20250.6, 0.349061
20330.0, 0.354214
20410.0, 0.363903
20490.7, 0.373327
20572.0, 0.378524
20654.0, 0.381122
20736.6, 0.381342
20819.9, 0.379889
20903.8, 0.378216
20988.5, 0.375001
21073.8, 0.368571
21159.8, 0.359763
21246.5, 0.353465
21334.0, 0.347652
21422.1, 0.341398
21511.0, 0.336245
21600.7, 0.331621
21691.0, 0.325764
21782.1, 0.318145
21874.0, 0.312992
21966.7, 0.308985
22060.2, 0.302335
22154.5, 0.296257
22249.6, 0.287757
22345.5, 0.276131
22442.2, 0.262126
22539.8, 0.243982
22638.2, 0.225529
22737.5, 0.212449
22837.7, 0.201879
22938.7, 0.191926
23040.7, 0.184880
23143.5, 0.179111
23247.3, 0.173430
23352.1, 0.167880
23457.7, 0.161583
23564.4, 0.155373
23672.0, 0.150309
23780.5, 0.145772
23890.1, 0.144231
24000.7, 0.147446
24112.3, 0.151806
24225.0, 0.153347
24338.7, 0.150881
24453.5, 0.146213
24569.4, 0.142117
24686.4, 0.138638
