Database of Origin, USGS Spectral Database
Sample Description, See USGS database for additional info
Date Added,2016-08-10 02:45:03.548615

Data ID,USGS_gal02          
Sample ID, galena_hs37.7899
Mineral Name, galena
Material Class,Sulfide

Wavelength
1488.84, 0.0987210
1489.27, 0.0987840
1489.7, 0.0989080
1490.13, 0.0989080
1490.56, 0.0987210
1490.98, 0.0986590
1491.41, 0.0988460
1491.84, 0.0989710
1492.27, 0.0990950
1492.7, 0.0990330
1493.13, 0.0989080
1493.56, 0.0989710
1493.99, 0.0990330
1494.42, 0.0989080
1494.85, 0.0988460
1495.29, 0.0987840
1495.72, 0.0987840
1496.15, 0.0989080
1496.58, 0.0988460
1497.01, 0.0989710
1497.44, 0.0990950
1497.88, 0.0992200
1498.31, 0.0991570
1498.74, 0.0989710
1499.18, 0.0989080
1499.61, 0.0990950
1500.04, 0.0992200
1500.48, 0.0991570
1500.91, 0.0991570
1501.35, 0.0989710
1501.78, 0.0989710
1502.22, 0.0989710
1502.65, 0.0989080
1503.09, 0.0990950
1503.53, 0.0991570
1503.96, 0.0992200
1504.4, 0.0992820
1504.83, 0.0994070
1505.27, 0.0994070
1505.71, 0.0992200
1506.15, 0.0991570
1506.58, 0.0992820
1507.02, 0.0993440
1507.46, 0.0992200
1507.9, 0.0990950
1508.34, 0.0991570
1508.78, 0.0992200
1509.21, 0.0993440
1509.66, 0.0992200
1510.09, 0.0991570
1510.53, 0.0991570
1510.97, 0.0992200
1511.42, 0.0992200
1511.86, 0.0992200
1512.3, 0.0992820
1512.74, 0.0992200
1513.18, 0.0991570
1513.62, 0.0992200
1514.06, 0.0992820
1514.51, 0.0992200
1514.95, 0.0992200
1515.39, 0.0991570
1515.83, 0.0992200
1516.28, 0.0992200
1516.72, 0.0993440
1517.16, 0.0992820
1517.61, 0.0990950
1518.05, 0.0992200
1518.5, 0.0993440
1518.94, 0.0992820
1519.39, 0.0992820
1519.83, 0.0993440
1520.28, 0.0992820
1520.73, 0.0991570
1521.17, 0.0990950
1521.62, 0.0991570
1522.07, 0.0992820
1522.51, 0.0992200
1522.96, 0.0991570
1523.41, 0.0991570
1523.85, 0.0992200
1524.3, 0.0991570
1524.75, 0.0991570
1525.2, 0.0990950
1525.65, 0.0990950
1526.1, 0.0990950
1526.55, 0.0990330
1527.0, 0.0990330
1527.45, 0.0991570
1527.9, 0.0991570
1528.35, 0.0989710
1528.8, 0.0990330
1529.25, 0.0990330
1529.7, 0.0990950
1530.15, 0.0991570
1530.6, 0.0991570
1531.05, 0.0989710
1531.51, 0.0988460
1531.96, 0.0989080
1532.41, 0.0990330
1532.87, 0.0989080
1533.32, 0.0989710
1533.77, 0.0989080
1534.23, 0.0988460
1534.68, 0.0987840
1535.14, 0.0988460
1535.59, 0.0989710
1536.05, 0.0989710
1536.5, 0.0989080
1536.96, 0.0990330
1537.41, 0.0991570
1537.87, 0.0990950
1538.32, 0.0990330
1538.78, 0.0989710
1539.24, 0.0988460
1539.7, 0.0988460
1540.15, 0.0989080
1540.61, 0.0988460
1541.07, 0.0988460
1541.53, 0.0988460
1541.98, 0.0990330
1542.44, 0.0990330
1542.9, 0.0989080
1543.36, 0.0989080
1543.82, 0.0989710
1544.28, 0.0989710
1544.74, 0.0990330
1545.2, 0.0990330
1545.66, 0.0989710
1546.12, 0.0990330
1546.59, 0.0989710
1547.05, 0.0990330
1547.51, 0.0989710
1547.97, 0.0989080
1548.43, 0.0989080
1548.9, 0.0989080
1549.36, 0.0990330
1549.82, 0.0990950
1550.29, 0.0990950
1550.75, 0.0990330
1551.21, 0.0990330
1551.68, 0.0990330
1552.14, 0.0990950
1552.61, 0.0991570
1553.07, 0.0992200
1553.54, 0.0990950
1554.0, 0.0989710
1554.47, 0.0990950
1554.93, 0.0992200
1555.4, 0.0992820
1555.87, 0.0992820
1556.34, 0.0993440
1556.8, 0.0993440
1557.27, 0.0992200
1557.74, 0.0991570
1558.21, 0.0991570
1558.68, 0.0992820
1559.14, 0.0994070
1559.61, 0.0994070
1560.08, 0.0994070
1560.55, 0.0994070
1561.02, 0.0994070
1561.49, 0.0995310
1561.96, 0.0995930
1562.43, 0.0995930
1562.9, 0.0995930
1563.38, 0.0994690
1563.85, 0.0995310
1564.32, 0.0995930
1564.79, 0.0995930
1565.26, 0.0995930
1565.74, 0.0997180
1566.21, 0.0997800
1566.68, 0.0997180
1567.16, 0.0997180
1567.63, 0.0997800
1568.1, 0.0998430
1568.58, 0.0997800
1569.05, 0.0998430
1569.53, 0.0999050
1570.0, 0.0999050
1570.48, 0.0999670
1570.96, 0.0999670
1571.43, 0.0999050
1571.91, 0.0999050
1572.39, 0.0998430
1572.86, 0.0997800
1573.34, 0.0997800
1573.82, 0.0998430
1574.3, 0.0999050
1574.77, 0.0997800
1575.25, 0.0997800
1575.73, 0.0998430
1576.21, 0.0999050
1576.69, 0.0999670
1577.17, 0.100029
1577.65, 0.100029
1578.13, 0.0998430
1578.61, 0.0999050
1579.09, 0.0999670
1579.57, 0.0999670
1580.05, 0.0999670
1580.54, 0.0999050
1581.02, 0.0999050
1581.5, 0.0998430
1581.98, 0.0998430
1582.47, 0.0999050
1582.95, 0.0999670
1583.43, 0.0999670
1583.92, 0.0999050
1584.4, 0.0999050
1584.88, 0.0999050
1585.37, 0.0999670
1585.85, 0.0999050
1586.34, 0.0998430
1586.82, 0.0999050
1587.31, 0.0999050
1587.8, 0.0997800
1588.28, 0.0997800
1588.77, 0.0997180
1589.26, 0.0997180
1589.74, 0.0997180
1590.23, 0.0998430
1590.72, 0.0998430
1591.21, 0.0999050
1591.7, 0.0998430
1592.19, 0.0997800
1592.67, 0.0997800
1593.16, 0.0997800
1593.65, 0.0997800
1594.14, 0.0997800
1594.63, 0.0999050
1595.12, 0.0998430
1595.61, 0.0997180
1596.11, 0.0997180
1596.6, 0.0996560
1597.09, 0.0996560
1597.58, 0.0996560
1598.08, 0.0997800
1598.57, 0.0998430
1599.06, 0.0998430
1599.55, 0.0997800
1600.05, 0.0997180
1600.54, 0.0997180
1601.04, 0.0997180
1601.53, 0.0997180
1602.03, 0.0997180
1602.52, 0.0995930
1603.02, 0.0995930
1603.51, 0.0997800
1604.01, 0.0999050
1604.5, 0.0997800
1605.0, 0.0995930
1605.5, 0.0995310
1606.0, 0.0997180
1606.49, 0.0997180
1606.99, 0.0997180
1607.49, 0.0997800
1607.99, 0.0997800
1608.49, 0.0998430
1608.99, 0.0997800
1609.49, 0.0998430
1609.99, 0.0998430
1610.49, 0.0998430
1610.99, 0.0997180
1611.49, 0.0997180
1611.99, 0.0998430
1612.49, 0.0998430
1612.99, 0.0999050
1613.49, 0.0999050
1614.0, 0.0999050
1614.5, 0.100029
1615.0, 0.0999670
1615.51, 0.0999050
1616.01, 0.0999670
1616.51, 0.0999670
1617.02, 0.0999050
1617.52, 0.0999670
1618.03, 0.100092
1618.53, 0.100092
1619.04, 0.100092
1619.54, 0.100154
1620.05, 0.100278
1620.55, 0.100403
1621.06, 0.100403
1621.57, 0.100403
1622.08, 0.100341
1622.58, 0.100341
1623.09, 0.100341
1623.6, 0.100341
1624.11, 0.100278
1624.62, 0.100278
1625.13, 0.100341
1625.64, 0.100465
1626.15, 0.100528
1626.66, 0.100528
1627.17, 0.100528
1627.68, 0.100590
1628.19, 0.100465
1628.7, 0.100528
1629.21, 0.100528
1629.72, 0.100528
1630.24, 0.100652
1630.75, 0.100777
1631.26, 0.100777
1631.78, 0.100777
1632.29, 0.100901
1632.8, 0.100839
1633.32, 0.100777
1633.83, 0.100839
1634.35, 0.100839
1634.86, 0.100839
1635.38, 0.100839
1635.9, 0.100901
1636.41, 0.100901
1636.93, 0.100901
1637.45, 0.101026
1637.96, 0.101026
1638.48, 0.100901
1639.0, 0.100839
1639.52, 0.100839
1640.04, 0.100839
1640.56, 0.100839
1641.08, 0.101026
1641.59, 0.101026
1642.11, 0.100901
1642.63, 0.100839
1643.16, 0.100901
1643.68, 0.100964
1644.2, 0.100839
1644.72, 0.100839
1645.24, 0.100964
1645.76, 0.101026
1646.29, 0.101026
1646.81, 0.101026
1647.33, 0.101150
1647.86, 0.101150
1648.38, 0.101088
1648.9, 0.101088
1649.43, 0.101026
1649.95, 0.101088
1650.48, 0.101026
1651.0, 0.101088
1651.53, 0.101026
1652.06, 0.101026
1652.58, 0.101026
1653.11, 0.100964
1653.64, 0.100901
1654.17, 0.100901
1654.69, 0.100964
1655.22, 0.100964
1655.75, 0.100839
1656.28, 0.100777
1656.81, 0.100839
1657.34, 0.100964
1657.87, 0.100964
1658.4, 0.100839
1658.93, 0.100839
1659.46, 0.100777
1659.99, 0.100714
1660.52, 0.100901
1661.05, 0.100901
1661.59, 0.100839
1662.12, 0.100901
1662.65, 0.100901
1663.19, 0.100777
1663.72, 0.100714
1664.26, 0.100839
1664.79, 0.100964
1665.32, 0.100839
1665.86, 0.100777
1666.39, 0.100714
1666.93, 0.100777
1667.47, 0.100839
1668.0, 0.100777
1668.54, 0.100777
1669.08, 0.100777
1669.61, 0.100777
1670.15, 0.100777
1670.69, 0.100652
1671.23, 0.100652
1671.77, 0.100714
1672.31, 0.100714
1672.85, 0.100652
1673.39, 0.100714
1673.93, 0.100714
1674.47, 0.100777
1675.01, 0.100839
1675.55, 0.100901
1676.09, 0.100964
1676.64, 0.100901
1677.18, 0.100839
1677.72, 0.100839
1678.26, 0.100901
1678.81, 0.100901
1679.35, 0.100901
1679.89, 0.100839
1680.44, 0.100964
1680.98, 0.101026
1681.53, 0.101088
1682.07, 0.101088
1682.62, 0.100964
1683.17, 0.100901
1683.71, 0.101026
1684.26, 0.101026
1684.81, 0.101026
1685.36, 0.100901
1685.9, 0.100901
1686.45, 0.101150
1687.0, 0.101213
1687.55, 0.101150
1688.1, 0.101150
1688.65, 0.101213
1689.2, 0.101213
1689.75, 0.101213
1690.3, 0.101150
1690.85, 0.101213
1691.41, 0.101337
1691.96, 0.101400
1692.51, 0.101337
1693.06, 0.101337
1693.61, 0.101400
1694.17, 0.101524
1694.72, 0.101462
1695.28, 0.101462
1695.83, 0.101462
1696.39, 0.101524
1696.94, 0.101462
1697.5, 0.101524
1698.05, 0.101586
1698.61, 0.101586
1699.17, 0.101649
1699.72, 0.101649
1700.28, 0.101711
1700.84, 0.101649
1701.4, 0.101586
1701.95, 0.101649
1702.51, 0.101836
1703.07, 0.101836
1703.63, 0.101836
1704.19, 0.101773
1704.75, 0.101836
1705.31, 0.101836
1705.88, 0.101898
1706.44, 0.101836
1707.0, 0.101836
1707.56, 0.101960
1708.12, 0.101960
1708.69, 0.101960
1709.25, 0.101898
1709.81, 0.101836
1710.38, 0.101836
1710.94, 0.101898
1711.51, 0.101836
1712.07, 0.101898
1712.64, 0.101960
1713.2, 0.102022
1713.77, 0.102147
1714.34, 0.101960
1714.9, 0.101836
1715.47, 0.101898
1716.04, 0.102022
1716.61, 0.102022
1717.18, 0.101960
1717.74, 0.101898
1718.31, 0.101898
1718.88, 0.101898
1719.45, 0.101898
1720.02, 0.101898
1720.59, 0.102022
1721.17, 0.101960
1721.74, 0.101960
1722.31, 0.101898
1722.88, 0.101898
1723.45, 0.101960
1724.03, 0.102022
1724.6, 0.102085
1725.18, 0.101960
1725.75, 0.101836
1726.33, 0.101898
1726.9, 0.102022
1727.48, 0.101898
1728.05, 0.101898
1728.63, 0.101960
1729.2, 0.101960
1729.78, 0.101836
1730.36, 0.101773
1730.94, 0.101836
1731.51, 0.101773
1732.09, 0.101773
1732.67, 0.101836
1733.25, 0.101836
1733.83, 0.101836
1734.41, 0.101836
1734.99, 0.101836
1735.57, 0.101773
1736.15, 0.101836
1736.73, 0.101773
1737.32, 0.101836
1737.9, 0.101836
1738.48, 0.101711
1739.07, 0.101836
1739.65, 0.101898
1740.23, 0.101773
1740.82, 0.101586
1741.4, 0.101711
1741.99, 0.101773
1742.57, 0.101649
1743.16, 0.101586
1743.74, 0.101649
1744.33, 0.101773
1744.92, 0.101773
1745.51, 0.101711
1746.09, 0.101773
1746.68, 0.101649
1747.27, 0.101586
1747.86, 0.101649
1748.45, 0.101711
1749.04, 0.101711
1749.63, 0.101649
1750.22, 0.101649
1750.81, 0.101649
1751.4, 0.101711
1751.99, 0.101836
1752.59, 0.101836
1753.18, 0.101711
1753.77, 0.101711
1754.37, 0.101711
1754.96, 0.101649
1755.56, 0.101773
1756.15, 0.101836
1756.74, 0.101773
1757.34, 0.101773
1757.94, 0.101773
1758.53, 0.101836
1759.13, 0.101898
1759.73, 0.101836
1760.32, 0.101898
1760.92, 0.101960
1761.52, 0.101898
1762.12, 0.101898
1762.72, 0.102022
1763.32, 0.102022
1763.92, 0.101960
1764.52, 0.102022
1765.12, 0.102085
1765.72, 0.102147
1766.32, 0.102147
1766.92, 0.102085
1767.53, 0.102085
1768.13, 0.102147
1768.73, 0.102209
1769.34, 0.102209
1769.94, 0.102209
1770.55, 0.102272
1771.15, 0.102334
1771.76, 0.102334
1772.36, 0.102334
1772.97, 0.102396
1773.57, 0.102396
1774.18, 0.102272
1774.79, 0.102396
1775.4, 0.102521
1776.0, 0.102583
1776.61, 0.102458
1777.22, 0.102396
1777.83, 0.102458
1778.44, 0.102458
1779.05, 0.102583
1779.66, 0.102583
1780.27, 0.102583
1780.88, 0.102708
1781.5, 0.102645
1782.11, 0.102521
1782.72, 0.102521
1783.33, 0.102521
1783.95, 0.102521
1784.56, 0.102583
1785.18, 0.102645
1785.79, 0.102708
1786.41, 0.102770
1787.02, 0.102645
1787.64, 0.102645
1788.26, 0.102708
1788.87, 0.102708
1789.49, 0.102708
1790.11, 0.102770
1790.73, 0.102832
1791.35, 0.102708
1791.96, 0.102645
1792.58, 0.102770
1793.21, 0.102770
1793.83, 0.102708
1794.45, 0.102645
1795.07, 0.102708
1795.69, 0.102832
1796.31, 0.102770
1796.93, 0.102645
1797.56, 0.102645
1798.18, 0.102645
1798.8, 0.102645
1799.43, 0.102770
1800.05, 0.102770
1800.68, 0.102708
1801.3, 0.102645
1801.93, 0.102708
1802.56, 0.102770
1803.18, 0.102708
1803.81, 0.102708
1804.44, 0.102645
1805.07, 0.102645
1805.7, 0.102708
1806.33, 0.102708
1806.95, 0.102645
1807.58, 0.102708
1808.22, 0.102708
1808.85, 0.102583
1809.48, 0.102645
1810.11, 0.102708
1810.74, 0.102708
1811.38, 0.102583
1812.01, 0.102521
1812.64, 0.102645
1813.28, 0.102583
1813.91, 0.102458
1814.55, 0.102521
1815.18, 0.102645
1815.82, 0.102645
1816.45, 0.102521
1817.09, 0.102458
1817.73, 0.102458
1818.36, 0.102521
1819.0, 0.102458
1819.64, 0.102645
1820.28, 0.102832
1820.92, 0.102770
1821.56, 0.102708
1822.2, 0.102583
1822.84, 0.102458
1823.48, 0.102458
1824.12, 0.102521
1824.76, 0.102458
1825.41, 0.102583
1826.05, 0.102832
1826.69, 0.102708
1827.34, 0.102396
1827.98, 0.102521
1828.63, 0.102645
1829.27, 0.102583
1829.92, 0.102645
1830.56, 0.102770
1831.21, 0.102770
1831.86, 0.102521
1832.5, 0.102521
1833.15, 0.102458
1833.8, 0.102521
1834.45, 0.102645
1835.1, 0.102708
1835.75, 0.102832
1836.4, 0.102832
1837.05, 0.102832
1837.7, 0.102894
1838.35, 0.102645
1839.01, 0.102708
1839.66, 0.102957
1840.31, 0.102770
1840.96, 0.102832
1841.62, 0.103144
1842.27, 0.103019
1842.93, 0.102708
1843.58, 0.102645
1844.24, 0.102708
1844.9, 0.102708
1845.55, 0.102645
1846.21, 0.103019
1846.87, 0.103393
1847.53, 0.103393
1848.18, 0.103268
1848.84, 0.103019
1849.5, 0.102894
1850.16, 0.102957
1850.82, 0.102957
1851.48, 0.102894
1852.14, 0.102957
1852.81, 0.103206
1853.47, 0.103455
1854.13, 0.103330
1854.8, 0.102894
1855.46, 0.102894
1856.12, 0.103268
1856.79, 0.103330
1857.45, 0.103081
1858.12, 0.103019
1858.79, 0.103268
1859.45, 0.103580
1860.12, 0.103580
1860.79, 0.103393
1861.46, 0.103268
1862.12, 0.103206
1862.79, 0.103081
1863.46, 0.103144
1864.13, 0.103144
1864.8, 0.103144
1865.48, 0.103081
1866.15, 0.103081
1866.82, 0.103330
1867.49, 0.103829
1868.16, 0.103642
1868.84, 0.103393
1869.51, 0.103393
1870.19, 0.103642
1870.86, 0.104016
1871.54, 0.103642
1872.21, 0.103642
1872.89, 0.103953
1873.56, 0.103704
1874.24, 0.103455
1874.92, 0.103393
1875.6, 0.103330
1876.28, 0.103393
1876.96, 0.103517
1877.64, 0.103268
1878.32, 0.103144
1879.0, 0.103081
1879.68, 0.103144
1880.36, 0.103206
1881.04, 0.103206
1881.73, 0.103206
1882.41, 0.103206
1883.09, 0.103330
1883.78, 0.103455
1884.46, 0.103268
1885.15, 0.103144
1885.83, 0.103268
1886.52, 0.103268
1887.21, 0.103206
1887.89, 0.103144
1888.58, 0.103144
1889.27, 0.103268
1889.96, 0.103517
1890.65, 0.103330
1891.34, 0.103206
1892.03, 0.103268
1892.72, 0.103268
1893.41, 0.103268
1894.1, 0.103268
1894.79, 0.103144
1895.49, 0.103206
1896.18, 0.103206
1896.87, 0.103144
1897.57, 0.103144
1898.26, 0.103206
1898.96, 0.103517
1899.65, 0.103642
1900.35, 0.103330
1901.05, 0.103019
1901.74, 0.103019
1902.44, 0.103393
1903.14, 0.103268
1903.84, 0.102957
1904.54, 0.103268
1905.24, 0.103580
1905.94, 0.103455
1906.64, 0.103330
1907.34, 0.102957
1908.04, 0.102894
1908.75, 0.102957
1909.45, 0.102957
1910.15, 0.103081
1910.86, 0.103144
1911.56, 0.103144
1912.27, 0.103081
1912.97, 0.103268
1913.68, 0.103330
1914.39, 0.103019
1915.09, 0.102832
1915.8, 0.102832
1916.51, 0.102957
1917.22, 0.103081
1917.93, 0.103019
1918.64, 0.102957
1919.35, 0.103206
1920.06, 0.103517
1920.77, 0.103455
1921.48, 0.103081
1922.19, 0.102957
1922.91, 0.102957
1923.62, 0.103081
1924.33, 0.103144
1925.05, 0.103019
1925.76, 0.102957
1926.48, 0.103019
1927.19, 0.103019
1927.91, 0.103206
1928.63, 0.103268
1929.35, 0.103019
1930.07, 0.102957
1930.78, 0.102957
1931.5, 0.103019
1932.22, 0.103081
1932.94, 0.103144
1933.66, 0.103268
1934.39, 0.103268
1935.11, 0.103206
1935.83, 0.103268
1936.55, 0.103206
1937.28, 0.103144
1938.0, 0.103206
1938.73, 0.103268
1939.45, 0.103268
1940.18, 0.103268
1940.9, 0.103393
1941.63, 0.103330
1942.36, 0.103330
1943.09, 0.103393
1943.81, 0.103393
1944.54, 0.103455
1945.27, 0.103517
1946.0, 0.103455
1946.73, 0.103455
1947.47, 0.103517
1948.2, 0.103517
1948.93, 0.103455
1949.66, 0.103517
1950.4, 0.103580
1951.13, 0.103517
1951.86, 0.103517
1952.6, 0.103642
1953.34, 0.103642
1954.07, 0.103517
1954.81, 0.103517
1955.55, 0.103580
1956.29, 0.103580
1957.02, 0.103517
1957.76, 0.103455
1958.5, 0.103455
1959.24, 0.103517
1959.98, 0.103642
1960.72, 0.103642
1961.47, 0.103580
1962.21, 0.103580
1962.95, 0.103580
1963.7, 0.103580
1964.44, 0.103704
1965.18, 0.103766
1965.93, 0.103704
1966.67, 0.103642
1967.42, 0.103642
1968.17, 0.103642
1968.92, 0.103642
1969.66, 0.103642
1970.41, 0.103704
1971.16, 0.103642
1971.91, 0.103580
1972.66, 0.103642
1973.41, 0.103704
1974.16, 0.103642
1974.92, 0.103580
1975.67, 0.103704
1976.42, 0.103704
1977.18, 0.103642
1977.93, 0.103704
1978.69, 0.103580
1979.44, 0.103517
1980.2, 0.103580
1980.95, 0.103642
1981.71, 0.103642
1982.47, 0.103642
1983.23, 0.103704
1983.99, 0.103704
1984.74, 0.103580
1985.51, 0.103517
1986.27, 0.103455
1987.03, 0.103580
1987.79, 0.103642
1988.55, 0.103580
1989.32, 0.103517
1990.08, 0.103517
1990.84, 0.103580
1991.61, 0.103642
1992.37, 0.103580
1993.14, 0.103517
1993.9, 0.103517
1994.67, 0.103517
1995.44, 0.103642
1996.21, 0.103704
1996.98, 0.103580
1997.75, 0.103455
1998.52, 0.103455
1999.29, 0.103393
2000.06, 0.103393
2000.83, 0.103393
2001.6, 0.103455
2002.38, 0.103455
2003.15, 0.103455
2003.93, 0.103517
2004.7, 0.103455
2005.48, 0.103393
2006.25, 0.103455
2007.03, 0.103393
2007.81, 0.103330
2008.58, 0.103455
2009.36, 0.103455
2010.14, 0.103517
2010.92, 0.103455
2011.7, 0.103455
2012.48, 0.103455
2013.26, 0.103517
2014.05, 0.103580
2014.83, 0.103580
2015.61, 0.103455
2016.4, 0.103393
2017.18, 0.103517
2017.97, 0.103580
2018.75, 0.103517
2019.54, 0.103517
2020.32, 0.103517
2021.11, 0.103517
2021.9, 0.103580
2022.69, 0.103455
2023.48, 0.103455
2024.27, 0.103580
2025.06, 0.103642
2025.85, 0.103580
2026.64, 0.103580
2027.44, 0.103642
2028.23, 0.103642
2029.02, 0.103580
2029.82, 0.103580
2030.61, 0.103642
2031.41, 0.103642
2032.2, 0.103642
2033.0, 0.103704
2033.8, 0.103766
2034.6, 0.103829
2035.4, 0.103766
2036.2, 0.103704
2037.0, 0.103704
2037.8, 0.103766
2038.6, 0.103766
2039.4, 0.103704
2040.2, 0.103766
2041.01, 0.103704
2041.81, 0.103766
2042.61, 0.103891
2043.42, 0.103953
2044.22, 0.103953
2045.03, 0.103953
2045.84, 0.103891
2046.65, 0.103891
2047.46, 0.103891
2048.26, 0.103953
2049.07, 0.103953
2049.88, 0.103829
2050.69, 0.103891
2051.51, 0.103953
2052.32, 0.103953
2053.13, 0.104016
2053.94, 0.104078
2054.76, 0.104078
2055.57, 0.104016
2056.39, 0.104016
2057.2, 0.104078
2058.02, 0.104016
2058.84, 0.103953
2059.66, 0.103953
2060.48, 0.103891
2061.29, 0.103891
2062.11, 0.104016
2062.94, 0.104078
2063.76, 0.104078
2064.58, 0.103953
2065.4, 0.104016
2066.22, 0.104078
2067.05, 0.104078
2067.87, 0.104078
2068.7, 0.104078
2069.52, 0.104016
2070.35, 0.103953
2071.18, 0.103953
2072.0, 0.103953
2072.83, 0.103953
2073.66, 0.104016
2074.49, 0.104078
2075.32, 0.104078
2076.15, 0.104016
2076.98, 0.103953
2077.82, 0.104016
2078.65, 0.104078
2079.48, 0.104016
2080.32, 0.104016
2081.15, 0.104140
2081.99, 0.104140
2082.83, 0.104078
2083.66, 0.104078
2084.5, 0.104078
2085.34, 0.104016
2086.18, 0.104016
2087.02, 0.104078
2087.86, 0.104016
2088.7, 0.104016
2089.54, 0.104078
2090.39, 0.104140
2091.23, 0.104078
2092.07, 0.104140
2092.92, 0.104078
2093.76, 0.103953
2094.61, 0.103891
2095.45, 0.104016
2096.3, 0.103953
2097.15, 0.103891
2098.0, 0.103891
2098.85, 0.103891
2099.7, 0.103829
2100.55, 0.103829
2101.4, 0.103953
2102.25, 0.104016
2103.1, 0.104016
2103.96, 0.104078
2104.81, 0.104016
2105.67, 0.103953
2106.52, 0.103891
2107.38, 0.103953
2108.24, 0.104016
2109.09, 0.104016
2109.95, 0.103953
2110.81, 0.103953
2111.67, 0.103953
2112.53, 0.103891
2113.39, 0.103891
2114.25, 0.104016
2115.12, 0.104078
2115.98, 0.104016
2116.84, 0.103953
2117.71, 0.103953
2118.58, 0.104016
2119.44, 0.104016
2120.31, 0.104081
2121.18, 0.104213
2122.04, 0.104081
2122.91, 0.104016
2123.78, 0.104016
2124.65, 0.104147
2125.52, 0.104147
2126.4, 0.104081
2127.27, 0.104081
2128.14, 0.104016
2129.02, 0.104016
2129.89, 0.104081
2130.77, 0.103818
2131.64, 0.104147
2132.52, 0.104147
2133.4, 0.104016
2134.27, 0.104213
2135.15, 0.104345
2136.03, 0.104213
2136.91, 0.104147
2137.79, 0.104279
2138.68, 0.104213
2139.56, 0.104345
2140.44, 0.104279
2141.33, 0.104081
2142.21, 0.103950
2143.1, 0.103950
2143.99, 0.103752
2144.87, 0.103950
2145.76, 0.104213
2146.65, 0.104345
2147.54, 0.104213
2148.43, 0.104016
2149.32, 0.104213
2150.21, 0.104279
2151.1, 0.104147
2151.99, 0.104016
2152.89, 0.104279
2153.78, 0.104543
2154.68, 0.104543
2155.57, 0.104279
2156.47, 0.104477
2157.37, 0.104477
2158.27, 0.104147
2159.16, 0.104213
2160.06, 0.104543
2160.96, 0.104543
2161.86, 0.104213
2162.77, 0.104213
2163.67, 0.104081
2164.57, 0.104016
2165.48, 0.104213
2166.38, 0.104411
2167.29, 0.104279
2168.2, 0.104279
2169.1, 0.104345
2170.01, 0.104345
2170.92, 0.104477
2171.83, 0.104477
2172.74, 0.104477
2173.65, 0.104279
2174.56, 0.104279
2175.47, 0.104213
2176.39, 0.104345
2177.3, 0.104543
2178.22, 0.104675
2179.13, 0.104609
2180.05, 0.104477
2180.96, 0.104477
2181.88, 0.104411
2182.8, 0.104741
2183.72, 0.104872
2184.64, 0.104807
2185.56, 0.104609
2186.48, 0.104477
2187.41, 0.104411
2188.33, 0.104543
2189.25, 0.104741
2190.18, 0.104741
2191.1, 0.104609
2192.03, 0.104609
2192.96, 0.104741
2193.89, 0.104872
2194.82, 0.104872
2195.74, 0.104741
2196.68, 0.104807
2197.61, 0.104872
2198.54, 0.104872
2199.47, 0.105004
2200.4, 0.105004
2201.34, 0.105070
2202.28, 0.105202
2203.21, 0.105268
2204.15, 0.105334
2205.08, 0.105466
2206.02, 0.105268
2206.96, 0.105070
2207.9, 0.105202
2208.84, 0.105136
2209.78, 0.105070
2210.73, 0.105004
2211.67, 0.105004
2212.61, 0.105334
2213.56, 0.105532
2214.5, 0.105268
2215.45, 0.105202
2216.4, 0.105334
2217.35, 0.105334
2218.3, 0.105532
2219.24, 0.105795
2220.2, 0.105861
2221.15, 0.105532
2222.1, 0.105202
2223.05, 0.105268
2224.0, 0.105466
2224.96, 0.105795
2225.91, 0.105729
2226.87, 0.105729
2227.83, 0.105598
2228.79, 0.105663
2229.74, 0.105729
2230.7, 0.105861
2231.66, 0.105795
2232.63, 0.105729
2233.59, 0.105795
2234.55, 0.106059
2235.51, 0.105861
2236.48, 0.105729
2237.44, 0.105729
2238.41, 0.105663
2239.38, 0.105466
2240.34, 0.105532
2241.31, 0.105663
2242.28, 0.105729
2243.25, 0.105729
2244.22, 0.105466
2245.19, 0.105663
2246.17, 0.105795
2247.14, 0.105598
2248.12, 0.105795
2249.09, 0.105927
2250.07, 0.105861
2251.04, 0.105927
2252.02, 0.105861
2253.0, 0.105729
2253.98, 0.105795
2254.96, 0.105927
2255.94, 0.105663
2256.92, 0.105663
2257.91, 0.105663
2258.89, 0.105861
2259.88, 0.105927
2260.86, 0.105927
2261.85, 0.105993
2262.83, 0.105927
2263.82, 0.105861
2264.81, 0.106059
2265.8, 0.106125
2266.79, 0.106059
2267.78, 0.105927
2268.78, 0.105861
2269.77, 0.105861
2270.76, 0.105795
2271.76, 0.105729
2272.75, 0.105663
2273.75, 0.105861
2274.75, 0.105927
2275.75, 0.105927
2276.75, 0.105927
2277.75, 0.105861
2278.75, 0.105861
2279.75, 0.105993
2280.75, 0.105993
2281.76, 0.106125
2282.76, 0.106059
2283.77, 0.105729
2284.77, 0.105663
2285.78, 0.105795
2286.79, 0.105729
2287.8, 0.105927
2288.81, 0.106059
2289.82, 0.106059
2290.83, 0.105993
2291.84, 0.105927
2292.86, 0.105861
2293.87, 0.105927
2294.89, 0.105993
2295.91, 0.106191
2296.92, 0.106059
2297.94, 0.105993
2298.96, 0.106125
2299.98, 0.106191
2301.0, 0.106059
2302.02, 0.105993
2303.04, 0.105927
2304.07, 0.105927
2305.09, 0.105993
2306.12, 0.106125
2307.15, 0.106323
2308.17, 0.106257
2309.2, 0.106257
2310.23, 0.106323
2311.26, 0.106323
2312.29, 0.106454
2313.32, 0.106454
2314.35, 0.106389
2315.39, 0.106191
2316.42, 0.105927
2317.46, 0.106059
2318.5, 0.106191
2319.53, 0.106323
2320.57, 0.106323
2321.61, 0.106323
2322.65, 0.106454
2323.69, 0.106389
2324.73, 0.106389
2325.78, 0.106323
2326.82, 0.106389
2327.86, 0.106454
2328.91, 0.106520
2329.96, 0.106520
2331.01, 0.106520
2332.05, 0.106652
2333.1, 0.106652
2334.15, 0.106784
2335.21, 0.106850
2336.26, 0.106652
2337.31, 0.106652
2338.36, 0.106652
2339.42, 0.106982
2340.48, 0.107180
2341.53, 0.107048
2342.59, 0.106850
2343.65, 0.106916
2344.71, 0.107048
2345.77, 0.107114
2346.83, 0.107048
2347.9, 0.107048
2348.96, 0.107180
2350.02, 0.107311
2351.09, 0.107311
2352.16, 0.107180
2353.23, 0.107245
2354.29, 0.107443
2355.36, 0.107509
2356.43, 0.107443
2357.51, 0.107443
2358.58, 0.107509
2359.65, 0.107509
2360.73, 0.107377
2361.8, 0.107377
2362.88, 0.107377
2363.96, 0.107443
2365.03, 0.107575
2366.11, 0.107641
2367.19, 0.107575
2368.27, 0.107641
2369.36, 0.107773
2370.44, 0.107575
2371.53, 0.107377
2372.61, 0.107443
2373.7, 0.107641
2374.78, 0.107509
2375.87, 0.107443
2376.96, 0.107641
2378.05, 0.107707
2379.14, 0.107641
2380.24, 0.107509
2381.33, 0.107443
2382.42, 0.107443
2383.52, 0.107575
2384.61, 0.107641
2385.71, 0.107575
2386.81, 0.107707
2387.91, 0.107773
2389.01, 0.107773
2390.11, 0.107839
2391.22, 0.107839
2392.32, 0.107773
2393.42, 0.107839
2394.53, 0.107707
2395.64, 0.107707
2396.74, 0.107641
2397.85, 0.107641
2398.96, 0.107509
2400.07, 0.107641
2401.18, 0.107641
2402.3, 0.107575
2403.41, 0.107443
2404.52, 0.107443
2405.64, 0.107641
2406.76, 0.107707
2407.88, 0.107707
2408.99, 0.107641
2410.11, 0.107641
2411.23, 0.107575
2412.36, 0.107575
2413.48, 0.107641
2414.6, 0.107707
2415.73, 0.107707
2416.85, 0.107641
2417.98, 0.107575
2419.11, 0.107575
2420.24, 0.107773
2421.37, 0.107971
2422.5, 0.107905
2423.64, 0.107773
2424.77, 0.107575
2425.9, 0.107509
2427.04, 0.107509
2428.18, 0.107641
2429.31, 0.107641
2430.45, 0.107641
2431.59, 0.107839
2432.73, 0.107905
2433.88, 0.107773
2435.02, 0.107905
2436.16, 0.107839
2437.31, 0.107839
2438.45, 0.107839
2439.6, 0.107839
2440.75, 0.107839
2441.9, 0.107773
2443.05, 0.107773
2444.2, 0.107773
2445.35, 0.107971
2446.51, 0.108036
2447.67, 0.108036
2448.82, 0.108036
2449.98, 0.108036
2451.14, 0.107971
2452.3, 0.107971
2453.46, 0.108036
2454.62, 0.108102
2455.78, 0.108168
2456.94, 0.108234
2458.11, 0.108102
2459.28, 0.107971
2460.44, 0.108036
2461.61, 0.108102
2462.78, 0.108234
2463.95, 0.108234
2465.12, 0.108168
2466.3, 0.108234
2467.47, 0.108234
2468.65, 0.108366
2469.82, 0.108432
2471.0, 0.108234
2472.18, 0.108498
2473.36, 0.108498
2474.54, 0.108300
2475.72, 0.108300
2476.9, 0.108564
2478.08, 0.108762
2479.27, 0.108696
2480.46, 0.108630
2481.64, 0.108564
2482.83, 0.108762
2484.02, 0.108959
2485.21, 0.108893
2486.4, 0.108762
2487.6, 0.108893
2488.79, 0.109091
2489.99, 0.109091
2491.18, 0.109223
2492.38, 0.109223
2493.58, 0.109289
2494.78, 0.109223
2495.98, 0.109091
2497.18, 0.109157
2498.39, 0.109289
2499.59, 0.109289
2500.8, 0.109289
2502.01, 0.109355
2503.21, 0.109553
2504.42, 0.109487
2505.63, 0.109355
2506.84, 0.109487
2508.06, 0.109553
2509.27, 0.109750
2510.49, 0.109882
2511.7, 0.109750
2512.92, 0.109618
2514.14, 0.109618
2515.36, 0.109750
2516.58, 0.109750
2517.8, 0.109882
2519.03, 0.109948
2520.25, 0.109816
2521.48, 0.109750
2522.7, 0.109948
2523.93, 0.110080
2525.16, 0.110014
2526.39, 0.110014
2527.62, 0.110080
2528.86, 0.110080
2530.09, 0.110212
2531.33, 0.110409
2532.56, 0.110475
2533.8, 0.110278
2535.04, 0.110607
2536.28, 0.110673
2537.52, 0.110278
2538.76, 0.110080
2540.01, 0.110212
2541.25, 0.110475
2542.5, 0.111135
2543.75, 0.111135
2544.99, 0.110739
2546.24, 0.110607
2547.49, 0.110871
2548.75, 0.110739
2550.0, 0.110673
2551.26, 0.111135
2552.51, 0.111464
2553.77, 0.111003
2555.03, 0.110344
2556.29, 0.110278
2557.55, 0.110278
2558.81, 0.110607
2560.08, 0.112123
2561.34, 0.113508
2562.61, 0.113573
2563.88, 0.113244
2565.14, 0.111926
2566.41, 0.110607
2567.68, 0.110871
2568.96, 0.112255
2570.23, 0.112123
2571.51, 0.111332
2572.78, 0.112980
2574.06, 0.112717
2575.34, 0.111860
2576.62, 0.112387
2577.9, 0.111464
2579.18, 0.110739
2580.47, 0.111596
2581.75, 0.111991
2583.04, 0.113771
2584.32, 0.114035
2585.61, 0.112519
2586.9, 0.113046
2588.2, 0.112651
2589.49, 0.111926
2590.78, 0.111135
2592.08, 0.111530
2593.37, 0.116078
2594.67, 0.120956
2595.97, 0.117067
2597.27, 0.112453
2598.57, 0.110805
2599.88, 0.110937
2601.18, 0.111794
2602.49, 0.112453
2603.79, 0.113771
2605.1, 0.115815
2606.41, 0.114760
2607.72, 0.113046
2609.03, 0.112585
2610.35, 0.111991
2611.66, 0.111530
2612.98, 0.111794
2614.3, 0.111728
2615.62, 0.113837
2616.94, 0.115353
2618.26, 0.113639
2619.58, 0.114892
2620.91, 0.114694
2622.23, 0.111794
2623.56, 0.111135
2624.89, 0.112255
2626.22, 0.114430
2627.55, 0.113442
2628.88, 0.113771
2630.21, 0.116144
2631.55, 0.114233
2632.89, 0.112717
2634.22, 0.112585
2635.56, 0.111728
2636.9, 0.111530
2638.25, 0.111464
2639.59, 0.111794
2640.93, 0.112189
2642.28, 0.112387
2643.63, 0.112321
2644.98, 0.112980
2646.33, 0.112914
2647.68, 0.112321
2649.03, 0.112123
2650.39, 0.112585
2651.74, 0.113837
2653.1, 0.113969
2654.46, 0.113573
2655.82, 0.113639
2657.18, 0.112914
2658.54, 0.113771
2659.9, 0.114364
2661.27, 0.114035
2662.64, 0.114035
2664.01, 0.117001
2665.38, 0.120033
2666.74, 0.119835
2668.12, 0.117397
2669.49, 0.120165
2670.87, 0.120758
2672.24, 0.115880
2673.62, 0.114628
2675.0, 0.116144
2676.38, 0.118188
2677.76, 0.117924
2679.15, 0.117331
2680.54, 0.115221
2681.92, 0.114562
2683.31, 0.115155
2684.7, 0.115024
2686.09, 0.114958
2687.48, 0.114628
2688.88, 0.114298
2690.27, 0.114101
2691.67, 0.114892
2693.07, 0.117199
2694.47, 0.117660
2695.87, 0.116078
2697.27, 0.114562
2698.67, 0.114035
2700.08, 0.114826
2701.49, 0.115287
2702.9, 0.114298
2704.31, 0.113903
2705.72, 0.114035
2707.13, 0.114760
2708.54, 0.116474
2709.96, 0.118583
2711.38, 0.118253
2712.8, 0.115287
2714.22, 0.114233
2715.64, 0.114298
2717.06, 0.115024
2718.49, 0.116671
2719.91, 0.120231
2721.34, 0.119242
2722.77, 0.117792
2724.2, 0.119308
2725.63, 0.117528
2727.07, 0.115089
2728.5, 0.114364
2729.94, 0.114364
2731.38, 0.114430
2732.82, 0.115089
2734.26, 0.116737
2735.7, 0.116474
2737.15, 0.116078
2738.59, 0.118979
2740.04, 0.120692
2741.49, 0.119044
2742.94, 0.116276
2744.39, 0.115155
2745.84, 0.115024
2747.3, 0.114958
2748.76, 0.115089
2750.21, 0.115287
2751.67, 0.115683
2753.14, 0.116671
2754.6, 0.120099
2756.06, 0.119967
2757.53, 0.116540
2759.0, 0.115287
2760.46, 0.115815
2761.94, 0.117660
2763.41, 0.117858
2764.88, 0.116803
2766.36, 0.116935
2767.83, 0.117528
2769.31, 0.117660
2770.79, 0.117990
2772.27, 0.116935
2773.76, 0.115880
2775.24, 0.115815
2776.73, 0.116210
2778.22, 0.116276
2779.71, 0.116408
2781.2, 0.116737
2782.69, 0.116540
2784.18, 0.116342
2785.68, 0.117594
2787.18, 0.118385
2788.68, 0.117331
2790.18, 0.116408
2791.68, 0.116210
2793.19, 0.116210
2794.69, 0.116342
2796.2, 0.116474
2797.71, 0.116474
2799.22, 0.116474
2800.73, 0.117133
2802.24, 0.118649
2803.76, 0.118781
2805.28, 0.117660
2806.8, 0.117199
2808.32, 0.117133
2809.84, 0.117067
2811.36, 0.117001
2812.89, 0.117265
2814.42, 0.117462
2815.94, 0.117397
2817.48, 0.117528
2819.01, 0.118122
2820.54, 0.118122
2822.08, 0.117858
2823.61, 0.117660
2825.15, 0.117726
2826.69, 0.117924
2828.23, 0.118056
2829.78, 0.117990
2831.32, 0.118253
2832.87, 0.118583
2834.42, 0.118715
2835.97, 0.118781
2837.52, 0.118781
2839.08, 0.118649
2840.63, 0.118649
2842.19, 0.118715
2843.75, 0.118781
2845.31, 0.118781
2846.87, 0.118715
2848.44, 0.119044
2850.0, 0.119176
2851.57, 0.119242
2853.14, 0.119638
2854.71, 0.119638
2856.28, 0.119440
2857.86, 0.119506
2859.43, 0.119704
2861.01, 0.119704
2862.59, 0.119638
2864.17, 0.119638
2865.76, 0.119704
2867.34, 0.119835
2868.93, 0.119835
2870.52, 0.119901
2872.11, 0.120099
2873.7, 0.120033
2875.29, 0.120165
2876.89, 0.120033
2878.49, 0.120099
2880.08, 0.120231
2881.69, 0.120363
2883.29, 0.120429
2884.89, 0.120495
2886.5, 0.120561
2888.11, 0.120626
2889.72, 0.120626
2891.33, 0.120692
2892.94, 0.120758
2894.56, 0.120824
2896.17, 0.120956
2897.79, 0.121022
2899.42, 0.121220
2901.04, 0.121352
2902.66, 0.121286
2904.29, 0.121352
2905.92, 0.121286
2907.55, 0.121220
2909.18, 0.121352
2910.81, 0.121549
2912.45, 0.121681
2914.08, 0.121747
2915.72, 0.121813
2917.36, 0.121813
2919.01, 0.121879
2920.65, 0.122077
2922.3, 0.122340
2923.94, 0.122406
2925.59, 0.122274
2927.25, 0.122340
2928.9, 0.122406
2930.56, 0.122472
2932.21, 0.122538
2933.87, 0.122670
2935.53, 0.122736
2937.2, 0.122736
2938.86, 0.122736
2940.53, 0.122868
2942.2, 0.122999
2943.87, 0.123065
2945.54, 0.123131
2947.22, 0.123395
2948.89, 0.123329
2950.57, 0.123395
2952.25, 0.123593
2953.93, 0.123790
2955.62, 0.123790
2957.3, 0.123790
2958.99, 0.123856
2960.68, 0.123988
2962.37, 0.123988
2964.07, 0.123988
2965.76, 0.124054
2967.46, 0.124252
2969.16, 0.124450
2970.86, 0.124515
2972.56, 0.124647
2974.27, 0.124779
2975.98, 0.124845
2977.69, 0.124911
2979.4, 0.125043
2981.11, 0.125109
2982.83, 0.125241
2984.54, 0.125372
2986.26, 0.125504
2987.98, 0.125636
2989.71, 0.125702
2991.43, 0.125900
2993.16, 0.125966
2994.89, 0.126032
2996.62, 0.126229
2998.35, 0.126361
3000.09, 0.126427
3001.83, 0.126559
3003.57, 0.126691
3005.31, 0.126954
3007.05, 0.127086
3008.79, 0.127218
3010.54, 0.127350
3012.29, 0.127482
3014.04, 0.127679
3015.8, 0.127811
3017.55, 0.128075
3019.31, 0.128273
3021.07, 0.128405
3022.83, 0.128734
3024.59, 0.128998
3026.36, 0.129261
3028.13, 0.129525
3029.9, 0.129657
3031.67, 0.129921
3033.44, 0.130118
3035.22, 0.130316
3037.0, 0.130580
3038.78, 0.130909
3040.56, 0.131107
3042.34, 0.131371
3044.13, 0.131634
3045.92, 0.131766
3047.71, 0.131898
3049.5, 0.132096
3051.3, 0.132425
3053.09, 0.132689
3054.89, 0.132887
3056.69, 0.133019
3058.5, 0.133151
3060.3, 0.133348
3062.11, 0.133612
3063.92, 0.133810
3065.73, 0.134139
3067.55, 0.134469
3069.36, 0.134732
3071.18, 0.134930
3073.0, 0.135194
3074.82, 0.135458
3076.65, 0.135787
3078.48, 0.136117
3080.31, 0.136314
3082.14, 0.136578
3083.97, 0.136842
3085.8, 0.137040
3087.64, 0.137303
3089.48, 0.137633
3091.33, 0.137962
3093.17, 0.138160
3095.02, 0.138292
3096.87, 0.138556
3098.72, 0.138885
3100.57, 0.139215
3102.43, 0.139544
3104.28, 0.139874
3106.14, 0.140204
3108.01, 0.140467
3109.87, 0.140731
3111.74, 0.140929
3113.61, 0.141126
3115.48, 0.141456
3117.35, 0.141720
3119.23, 0.141983
3121.1, 0.142313
3122.98, 0.142577
3124.87, 0.142906
3126.75, 0.143302
3128.64, 0.143565
3130.53, 0.143829
3132.42, 0.144093
3134.31, 0.144224
3136.21, 0.144554
3138.11, 0.144818
3140.01, 0.145213
3141.91, 0.145477
3143.82, 0.145806
3145.73, 0.146334
3147.64, 0.146663
3149.55, 0.146927
3151.46, 0.147125
3153.38, 0.147454
3155.3, 0.147784
3157.22, 0.148048
3159.14, 0.148311
3161.07, 0.148509
3163.0, 0.148839
3164.93, 0.149168
3166.86, 0.149432
3168.8, 0.149630
3170.74, 0.150025
3172.68, 0.150355
3174.62, 0.150552
3176.56, 0.150816
3178.51, 0.151146
3180.46, 0.151409
3182.42, 0.151673
3184.37, 0.152002
3186.33, 0.152266
3188.29, 0.152596
3190.25, 0.152925
3192.21, 0.153189
3194.18, 0.153387
3196.15, 0.153716
3198.12, 0.154112
3200.09, 0.154375
3202.07, 0.154705
3204.05, 0.155035
3206.03, 0.155232
3208.02, 0.155496
3210.0, 0.155760
3211.99, 0.156023
3213.98, 0.156221
3215.98, 0.156551
3217.97, 0.156880
3219.97, 0.157276
3221.97, 0.157474
3223.98, 0.157803
3225.98, 0.158133
3227.99, 0.158330
3230.0, 0.158660
3232.02, 0.158990
3234.03, 0.159253
3236.05, 0.159517
3238.07, 0.159715
3240.1, 0.160044
3242.12, 0.160440
3244.15, 0.160769
3246.18, 0.161033
3248.22, 0.161363
3250.25, 0.161758
3252.29, 0.162088
3254.33, 0.162351
3256.38, 0.162615
3258.43, 0.162945
3260.47, 0.163274
3262.53, 0.163604
3264.58, 0.163801
3266.64, 0.163999
3268.7, 0.164263
3270.76, 0.164724
3272.82, 0.165054
3274.89, 0.165318
3276.96, 0.165647
3279.04, 0.165977
3281.11, 0.166240
3283.19, 0.166504
3285.27, 0.166702
3287.35, 0.166900
3289.44, 0.167097
3291.53, 0.167427
3293.62, 0.167691
3295.71, 0.167888
3297.81, 0.168284
3299.91, 0.168613
3302.01, 0.168877
3304.11, 0.169207
3306.22, 0.169470
3308.33, 0.169734
3310.44, 0.169932
3312.56, 0.170064
3314.68, 0.170261
3316.8, 0.170591
3318.92, 0.170855
3321.05, 0.171118
3323.18, 0.171382
3325.31, 0.171645
3327.44, 0.171909
3329.58, 0.172041
3331.72, 0.172239
3333.86, 0.172371
3336.01, 0.172436
3338.16, 0.172634
3340.31, 0.172700
3342.46, 0.172832
3344.61, 0.173030
3346.77, 0.173227
3348.94, 0.173293
3351.1, 0.173557
3353.27, 0.173821
3355.44, 0.173953
3357.61, 0.174150
3359.79, 0.174282
3361.97, 0.174414
3364.15, 0.174414
3366.33, 0.174414
3368.52, 0.174480
3370.71, 0.174546
3372.9, 0.174612
3375.1, 0.174744
3377.3, 0.174875
3379.5, 0.174941
3381.71, 0.175073
3383.91, 0.175205
3386.12, 0.175469
3388.34, 0.175666
3390.55, 0.175666
3392.77, 0.175732
3394.99, 0.175864
3397.22, 0.175930
3399.45, 0.175930
3401.68, 0.175864
3403.91, 0.175732
3406.15, 0.175666
3408.39, 0.175535
3410.63, 0.175403
3412.87, 0.175403
3415.12, 0.175403
3417.37, 0.175469
3419.63, 0.175600
3421.88, 0.175798
3424.14, 0.176128
3426.41, 0.176457
3428.67, 0.176787
3430.94, 0.176985
3433.21, 0.177117
3435.49, 0.177248
3437.77, 0.177446
3440.05, 0.177644
3442.33, 0.177908
3444.62, 0.178105
3446.91, 0.178369
3449.2, 0.178435
3451.5, 0.178633
3453.8, 0.178896
3456.1, 0.179094
3458.41, 0.179226
3460.72, 0.179358
3463.03, 0.179490
3465.34, 0.179555
3467.66, 0.179424
3469.98, 0.179490
3472.31, 0.179555
3474.63, 0.179555
3476.96, 0.179555
3479.3, 0.179621
3481.64, 0.179621
3483.97, 0.179621
3486.32, 0.179687
3488.66, 0.179687
3491.01, 0.179819
3493.36, 0.179819
3495.72, 0.179819
3498.08, 0.179819
3500.44, 0.179753
3502.81, 0.179819
3505.18, 0.179885
3507.55, 0.180215
3509.92, 0.180676
3512.3, 0.181006
3514.68, 0.181203
3517.06, 0.181467
3519.45, 0.181599
3521.84, 0.181599
3524.24, 0.181665
3526.64, 0.181731
3529.04, 0.181928
3531.44, 0.182060
3533.85, 0.182126
3536.26, 0.182192
3538.67, 0.182324
3541.09, 0.182456
3543.51, 0.182522
3545.93, 0.182653
3548.36, 0.182785
3550.79, 0.182851
3553.22, 0.182851
3555.66, 0.182785
3558.1, 0.182851
3560.54, 0.182851
3562.99, 0.182917
3565.44, 0.183049
3567.9, 0.183247
3570.35, 0.183444
3572.81, 0.183576
3575.28, 0.183708
3577.75, 0.183708
3580.22, 0.183642
3582.69, 0.183708
3585.17, 0.183774
3587.65, 0.183840
3590.14, 0.183840
3592.62, 0.183840
3595.11, 0.183840
3597.61, 0.183972
3600.11, 0.184038
3602.61, 0.184170
3605.11, 0.184235
3607.62, 0.184301
3610.14, 0.184367
3612.65, 0.184367
3615.17, 0.184301
3617.69, 0.184301
3620.22, 0.184235
3622.75, 0.184301
3625.28, 0.184235
3627.82, 0.184235
3630.36, 0.184235
3632.9, 0.184301
3635.45, 0.184367
3638.0, 0.184367
3640.56, 0.184433
3643.12, 0.184499
3645.68, 0.184565
3648.24, 0.184631
3650.81, 0.184631
3653.39, 0.184565
3655.96, 0.184499
3658.54, 0.184433
3661.13, 0.184433
3663.71, 0.184367
3666.3, 0.184433
3668.9, 0.184565
3671.5, 0.184565
3674.1, 0.184499
3676.7, 0.184565
3679.31, 0.184631
3681.93, 0.184565
3684.54, 0.184433
3687.17, 0.184367
3689.79, 0.184301
3692.42, 0.184301
3695.05, 0.184235
3697.69, 0.184170
3700.32, 0.184104
3702.97, 0.184170
3705.61, 0.184235
3708.27, 0.184235
3710.92, 0.184301
3713.58, 0.184235
3716.24, 0.184170
3718.91, 0.184038
3721.58, 0.183906
3724.25, 0.183840
3726.93, 0.183840
3729.61, 0.183840
3732.29, 0.183708
3734.98, 0.183642
3737.67, 0.183576
3740.37, 0.183576
3743.07, 0.183576
3745.78, 0.183576
3748.49, 0.183576
3751.2, 0.183642
3753.91, 0.183708
3756.63, 0.183576
3759.36, 0.183576
3762.09, 0.183510
3764.82, 0.183510
3767.55, 0.183379
3770.29, 0.183379
3773.04, 0.183379
3775.78, 0.183444
3778.54, 0.183379
3781.29, 0.183247
3784.05, 0.183247
3786.82, 0.183313
3789.59, 0.183247
3792.36, 0.183247
3795.13, 0.183247
3797.92, 0.183115
3800.7, 0.183049
3803.49, 0.182983
3806.28, 0.182917
3809.08, 0.182785
3811.88, 0.182785
3814.68, 0.182851
3817.49, 0.182917
3820.31, 0.182983
3823.12, 0.182983
3825.94, 0.182983
3828.77, 0.182917
3831.6, 0.182785
3834.43, 0.182785
3837.27, 0.182851
3840.11, 0.182917
3842.96, 0.182917
3845.81, 0.182983
3848.67, 0.182983
3851.53, 0.183049
3854.39, 0.183115
3857.26, 0.183115
3860.13, 0.183181
3863.01, 0.183181
3865.89, 0.183181
3868.77, 0.183115
3871.66, 0.183049
3874.55, 0.183049
3877.45, 0.182983
3880.35, 0.182983
3883.26, 0.183049
3886.17, 0.183115
3889.09, 0.183115
3892.01, 0.183049
3894.93, 0.182983
3897.86, 0.182983
3900.79, 0.182983
3903.73, 0.182983
3906.67, 0.182983
3909.62, 0.183049
3912.57, 0.183115
3915.52, 0.183181
3918.48, 0.183115
3921.45, 0.183049
3924.42, 0.182983
3927.39, 0.183049
3930.37, 0.183049
3933.35, 0.183049
3936.34, 0.183049
3939.33, 0.183115
3942.32, 0.183115
3945.32, 0.183115
3948.33, 0.183049
3951.34, 0.182983
3954.35, 0.182917
3957.37, 0.182785
3960.39, 0.182653
3963.42, 0.182588
3966.45, 0.182456
3969.49, 0.182258
3972.53, 0.182060
3975.58, 0.182060
3978.63, 0.182126
3981.68, 0.182126
3984.75, 0.182126
3987.81, 0.181994
3990.88, 0.181862
3993.95, 0.181731
3997.03, 0.181533
4000.12, 0.181467
4003.21, 0.181401
4006.3, 0.181335
4009.4, 0.181269
4012.5, 0.181137
4015.61, 0.181137
4018.72, 0.181137
4021.84, 0.181072
4024.96, 0.181072
4028.09, 0.181072
4031.22, 0.181072
4034.36, 0.181072
4037.5, 0.181006
4040.65, 0.180874
4043.8, 0.180808
4046.96, 0.180676
4050.12, 0.180676
4053.29, 0.180676
4056.46, 0.180610
4059.64, 0.180610
4062.82, 0.180610
4066.0, 0.180544
4069.19, 0.180478
4072.39, 0.180478
4075.59, 0.180544
4078.8, 0.180610
4082.01, 0.180544
4085.23, 0.180544
4088.45, 0.180544
4091.68, 0.180346
4094.91, 0.180215
4098.15, 0.180083
4101.39, 0.180083
4104.63, 0.180149
4107.89, 0.180281
4111.14, 0.180346
4114.41, 0.180346
4117.67, 0.180281
4120.95, 0.180215
4124.23, 0.180083
4127.51, 0.180017
4130.8, 0.180017
4134.09, 0.180017
4137.39, 0.179885
4140.7, 0.179819
4144.01, 0.179753
4147.32, 0.179687
4150.64, 0.179753
4153.97, 0.179819
4157.3, 0.179885
4160.64, 0.179951
4163.98, 0.180017
4167.33, 0.180083
4170.68, 0.179951
4174.04, 0.179753
4177.4, 0.179621
4180.77, 0.179621
4184.14, 0.179555
4187.52, 0.179490
4190.91, 0.179555
4194.3, 0.179621
4197.69, 0.179753
4201.1, 0.180017
4204.5, 0.180412
4207.92, 0.181006
4211.34, 0.181797
4214.76, 0.182719
4218.19, 0.183576
4221.62, 0.184301
4225.06, 0.184961
4228.51, 0.185488
4231.96, 0.185620
4235.42, 0.185554
4238.88, 0.185290
4242.35, 0.184697
4245.83, 0.183906
4249.31, 0.182719
4252.79, 0.181335
4256.28, 0.180478
4259.78, 0.180874
4263.29, 0.181928
4266.79, 0.182719
4270.31, 0.183313
4273.83, 0.183642
4277.35, 0.183642
4280.89, 0.183510
4284.42, 0.183313
4287.97, 0.183049
4291.52, 0.182719
4295.07, 0.182390
4298.63, 0.182126
4302.2, 0.181797
4305.78, 0.181401
4309.35, 0.180940
4312.94, 0.180412
4316.53, 0.180017
4320.13, 0.179490
4323.73, 0.179094
4327.34, 0.178962
4330.96, 0.178764
4334.58, 0.178633
4338.21, 0.178435
4341.84, 0.178303
4345.48, 0.178237
4349.12, 0.178105
4352.77, 0.178105
4356.43, 0.178105
4360.1, 0.178105
4363.76, 0.178039
4367.44, 0.177908
4371.12, 0.177710
4374.81, 0.177512
4378.51, 0.177380
4382.21, 0.177380
4385.92, 0.177380
4389.63, 0.177446
4393.35, 0.177446
4397.08, 0.177512
4400.81, 0.177446
4404.55, 0.177314
4408.29, 0.177117
4412.04, 0.176985
4415.8, 0.177051
4419.57, 0.177117
4423.34, 0.177117
4427.12, 0.177051
4430.9, 0.176853
4434.69, 0.176787
4438.49, 0.176655
4442.29, 0.176589
4446.1, 0.176523
4449.92, 0.176523
4453.74, 0.176523
4457.57, 0.176523
4461.41, 0.176457
4465.25, 0.176391
4469.1, 0.176457
4472.95, 0.176391
4476.82, 0.176326
4480.69, 0.176260
4484.56, 0.176326
4488.44, 0.176326
4492.33, 0.176326
4496.23, 0.176260
4500.13, 0.176194
4504.04, 0.176128
4507.96, 0.176128
4511.88, 0.176128
4515.81, 0.176128
4519.75, 0.176128
4523.69, 0.176062
4527.65, 0.175930
4531.6, 0.175798
4535.57, 0.175600
4539.54, 0.175600
4543.52, 0.175535
4547.5, 0.175600
4551.5, 0.175600
4555.5, 0.175666
4559.5, 0.175600
4563.52, 0.175535
4567.54, 0.175469
4571.56, 0.175469
4575.6, 0.175403
4579.64, 0.175403
4583.69, 0.175403
4587.75, 0.175403
4591.81, 0.175337
4595.88, 0.175139
4599.96, 0.175007
4604.04, 0.175007
4608.14, 0.175007
4612.24, 0.175007
4616.34, 0.175073
4620.46, 0.175073
4624.58, 0.175073
4628.71, 0.175007
4632.84, 0.174875
4636.99, 0.174809
4641.14, 0.174678
4645.3, 0.174546
4649.47, 0.174546
4653.64, 0.174546
4657.82, 0.174414
4662.01, 0.174282
4666.21, 0.174216
4670.41, 0.174216
4674.62, 0.174216
4678.84, 0.174150
4683.07, 0.174150
4687.3, 0.174150
4691.54, 0.174018
4695.79, 0.173887
4700.05, 0.173755
4704.31, 0.173623
4708.59, 0.173623
4712.87, 0.173557
4717.15, 0.173557
4721.45, 0.173623
4725.76, 0.173623
4730.07, 0.173623
4734.39, 0.173557
4738.72, 0.173557
4743.05, 0.173557
4747.39, 0.173623
4751.75, 0.173623
4756.1, 0.173491
4760.47, 0.173359
4764.85, 0.173227
4769.23, 0.172964
4773.62, 0.172766
4778.02, 0.172634
4782.43, 0.172568
4786.85, 0.172634
4791.27, 0.172634
4795.7, 0.172700
4800.14, 0.172766
4804.59, 0.172700
4809.05, 0.172766
4813.51, 0.172634
4817.99, 0.172502
4822.47, 0.172305
4826.96, 0.172239
4831.46, 0.172107
4835.96, 0.172041
4840.48, 0.172107
4845.0, 0.172041
4849.54, 0.171909
4854.08, 0.171975
4858.63, 0.171909
4863.18, 0.171843
4867.75, 0.171843
4872.33, 0.171777
4876.91, 0.171711
4881.5, 0.171514
4886.1, 0.171382
4890.71, 0.171316
4895.33, 0.171316
4899.96, 0.171316
4904.59, 0.171184
4909.24, 0.171184
4913.89, 0.171118
4918.55, 0.171118
4923.22, 0.171052
4927.9, 0.171118
4932.59, 0.171118
4937.29, 0.171118
4942.0, 0.171052
4946.71, 0.170986
4951.44, 0.170986
4956.17, 0.171052
4960.91, 0.170855
4965.67, 0.170525
4970.43, 0.170459
4975.2, 0.170393
4979.98, 0.170393
4984.76, 0.170393
4989.56, 0.170393
4994.37, 0.170327
4999.18, 0.170327
5004.01, 0.170327
5008.84, 0.170327
5013.69, 0.170525
5018.54, 0.170920
5023.4, 0.170723
5028.28, 0.170393
5033.16, 0.170261
5038.05, 0.170129
5042.95, 0.170129
5047.86, 0.170064
5052.78, 0.170064
5057.71, 0.170064
5062.65, 0.170064
5067.6, 0.169932
5072.56, 0.169866
5077.53, 0.169800
5082.5, 0.169932
5087.49, 0.169734
5092.49, 0.169536
5097.5, 0.169404
5102.51, 0.169404
5107.54, 0.169338
5112.58, 0.169338
5117.62, 0.169207
5122.68, 0.169141
5127.75, 0.169141
5132.82, 0.169075
5137.91, 0.169141
5143.01, 0.169536
5148.12, 0.169668
5153.23, 0.168943
5158.36, 0.168416
5163.5, 0.168284
5168.65, 0.168152
5173.81, 0.168086
5178.98, 0.168152
5184.15, 0.168152
5189.34, 0.168086
5194.54, 0.168350
5199.75, 0.168679
5204.98, 0.168416
5210.21, 0.169075
5215.45, 0.169141
5220.7, 0.168020
5225.96, 0.167822
5231.23, 0.167954
5236.52, 0.168086
5241.81, 0.167756
5247.12, 0.167493
5252.44, 0.167295
5257.76, 0.167295
5263.1, 0.167163
5268.45, 0.167295
5273.81, 0.167559
5279.18, 0.167493
5284.56, 0.167361
5289.95, 0.168020
5295.36, 0.167756
5300.77, 0.167031
5306.2, 0.166900
5311.63, 0.166702
5317.08, 0.166636
5322.54, 0.166570
5328.01, 0.166504
5333.49, 0.166438
5338.98, 0.166504
5344.49, 0.167691
5350.0, 0.169141
5355.53, 0.168284
5361.07, 0.167097
5366.62, 0.166636
5372.18, 0.166570
5377.75, 0.166504
5383.34, 0.166306
5388.93, 0.166109
5394.54, 0.165977
5400.16, 0.165977
5405.79, 0.166240
5411.44, 0.166702
5417.09, 0.168679
5422.76, 0.170261
5428.43, 0.167691
5434.12, 0.166306
5439.83, 0.166306
5445.54, 0.166240
5451.26, 0.165977
5457.0, 0.166636
5462.75, 0.168152
5468.52, 0.167427
5474.29, 0.166834
5480.08, 0.167097
5485.88, 0.165845
5491.69, 0.165383
5497.51, 0.165318
5503.35, 0.165449
5509.2, 0.165186
5515.06, 0.165449
5520.93, 0.165845
5526.82, 0.165515
5532.71, 0.164790
5538.63, 0.164724
5544.55, 0.165120
5550.49, 0.166109
5556.44, 0.165845
5562.4, 0.164988
5568.37, 0.164922
5574.36, 0.167295
5580.36, 0.168284
5586.37, 0.165713
5592.4, 0.164263
5598.44, 0.164922
5604.49, 0.164988
5610.56, 0.164724
5616.63, 0.164856
5622.73, 0.164131
5628.83, 0.164065
5634.95, 0.166306
5641.08, 0.169404
5647.23, 0.167493
5653.39, 0.165977
5659.56, 0.164724
5665.74, 0.163406
5671.94, 0.165186
5678.15, 0.165318
5684.38, 0.164065
5690.62, 0.164658
5696.87, 0.163867
5703.14, 0.164461
5709.42, 0.167361
5715.72, 0.166504
5722.03, 0.164724
5728.35, 0.163604
5734.69, 0.163538
5741.03, 0.164329
5747.4, 0.165515
5753.78, 0.163999
5760.17, 0.167493
5766.58, 0.172239
5773.0, 0.166965
5779.44, 0.163274
5785.88, 0.162088
5792.35, 0.161297
5798.83, 0.161626
5805.32, 0.161692
5811.83, 0.163406
5818.35, 0.169075
5824.89, 0.170195
5831.45, 0.165911
5838.01, 0.162945
5844.59, 0.161626
5851.19, 0.162285
5857.8, 0.163801
5864.43, 0.164856
5871.07, 0.165054
5877.73, 0.172371
5884.4, 0.172107
5891.09, 0.169141
5897.79, 0.169668
5904.5, 0.163208
5911.23, 0.161165
5917.98, 0.161692
5924.75, 0.162483
5931.53, 0.168679
5938.32, 0.171580
5945.13, 0.164395
5951.96, 0.161297
5958.8, 0.160901
5965.65, 0.164329
5972.53, 0.164131
5979.42, 0.162549
5986.32, 0.164790
5993.24, 0.163801
6000.18, 0.160374
6007.13, 0.160835
6014.1, 0.162219
6021.08, 0.160374
6028.09, 0.158990
6035.1, 0.160242
6042.14, 0.168811
6049.19, 0.176985
6056.25, 0.166965
6063.34, 0.162417
6070.44, 0.166043
6077.55, 0.164461
6084.69, 0.159978
6091.84, 0.158924
6099.0, 0.159385
6106.19, 0.163142
6113.39, 0.167163
6120.61, 0.162483
6127.84, 0.158594
6135.09, 0.158990
6142.36, 0.159847
6149.65, 0.159912
6156.95, 0.161231
6164.27, 0.160308
6171.61, 0.158462
6178.97, 0.161824
6186.34, 0.164131
6193.73, 0.159451
6201.14, 0.157210
6208.57, 0.157144
6216.01, 0.157276
6223.47, 0.157078
6230.95, 0.157012
6238.45, 0.157012
6245.97, 0.156946
6253.5, 0.156814
6261.06, 0.156880
6268.63, 0.156880
6276.21, 0.156748
6283.82, 0.156485
6291.45, 0.156287
6299.1, 0.155957
6306.76, 0.155892
6314.44, 0.155694
6322.14, 0.155562
6329.86, 0.155694
6337.6, 0.159649
6345.35, 0.162351
6353.13, 0.157210
6360.92, 0.156023
6368.74, 0.158594
6376.57, 0.157144
6384.43, 0.155430
6392.3, 0.155232
6400.19, 0.157078
6408.1, 0.166702
6416.03, 0.170129
6423.98, 0.161758
6431.95, 0.158133
6439.94, 0.155826
6447.95, 0.154837
6455.98, 0.154573
6464.03, 0.154903
6472.1, 0.157671
6480.19, 0.160835
6488.31, 0.166174
6496.44, 0.165977
6504.59, 0.157869
6512.76, 0.155760
6520.95, 0.157737
6529.16, 0.155364
6537.4, 0.154771
6545.65, 0.156221
6553.92, 0.157539
6562.22, 0.158792
6570.54, 0.162747
6578.88, 0.160703
6587.23, 0.158265
6595.61, 0.157342
6604.02, 0.155364
6612.44, 0.155430
6620.89, 0.156287
6629.35, 0.161824
6637.84, 0.165713
6646.35, 0.158528
6654.88, 0.153123
6663.44, 0.153519
6672.01, 0.155694
6680.61, 0.157078
6689.23, 0.154375
6697.88, 0.152530
6706.54, 0.154705
6715.23, 0.155166
6723.94, 0.153453
6732.67, 0.151541
6741.42, 0.150750
6750.2, 0.150882
6759.0, 0.150618
6767.82, 0.151805
6776.67, 0.153716
6785.54, 0.156353
6794.44, 0.155364
6803.35, 0.151014
6812.29, 0.149959
6821.26, 0.151871
6830.24, 0.151805
6839.25, 0.149630
6848.29, 0.151212
6857.35, 0.157210
6866.43, 0.158133
6875.54, 0.151475
6884.67, 0.149234
6893.82, 0.149036
6903.0, 0.149959
6912.2, 0.149234
6921.43, 0.148179
6930.69, 0.147850
6939.96, 0.147784
6949.27, 0.149564
6958.59, 0.153189
6967.95, 0.150684
6977.33, 0.148113
6986.73, 0.148443
6996.16, 0.148443
7005.61, 0.147586
7015.09, 0.147784
7024.6, 0.148048
7034.13, 0.149036
7043.69, 0.152134
7053.27, 0.150486
7062.88, 0.147388
7072.52, 0.146531
7082.18, 0.146531
7091.87, 0.146531
7101.58, 0.146466
7111.32, 0.147191
7121.09, 0.147191
7130.88, 0.146400
7140.71, 0.147322
7150.56, 0.147784
7160.43, 0.147784
7170.33, 0.148311
7180.27, 0.146729
7190.23, 0.146004
7200.21, 0.147257
7210.23, 0.147718
7220.27, 0.146136
7230.34, 0.145740
7240.44, 0.145675
7250.56, 0.145740
7260.72, 0.145938
7270.9, 0.146729
7281.12, 0.146663
7291.36, 0.145872
7301.63, 0.145675
7311.93, 0.145609
7322.25, 0.145609
7332.61, 0.146597
7343.0, 0.146729
7353.41, 0.145872
7363.86, 0.145345
7374.33, 0.145279
7384.83, 0.145147
7395.37, 0.145015
7405.93, 0.144884
7416.53, 0.144752
7427.15, 0.144620
7437.81, 0.144554
7448.5, 0.144752
7459.22, 0.145411
7469.96, 0.145411
7480.74, 0.144884
7491.55, 0.144422
7502.39, 0.144356
7513.27, 0.144356
7524.17, 0.144356
7535.11, 0.144422
7546.08, 0.144422
7557.08, 0.144356
7568.11, 0.144356
7579.17, 0.144422
7590.27, 0.144158
7601.4, 0.143895
7612.56, 0.143763
7623.76, 0.143565
7634.98, 0.143433
7646.24, 0.143302
7657.54, 0.143170
7668.87, 0.143038
7680.23, 0.142774
7691.62, 0.142379
7703.05, 0.142181
7714.51, 0.141851
7726.01, 0.141588
7737.54, 0.141522
7749.11, 0.141588
7760.71, 0.141522
7772.35, 0.141456
7784.02, 0.141390
7795.72, 0.141324
7807.46, 0.141258
7819.23, 0.141258
7831.04, 0.141126
7842.89, 0.140995
7854.77, 0.141060
7866.69, 0.140995
7878.65, 0.140797
7890.64, 0.140731
7902.67, 0.140599
7914.74, 0.140533
7926.84, 0.140599
7938.98, 0.140599
7951.16, 0.140467
7963.37, 0.140401
7975.62, 0.140204
7987.91, 0.140072
8000.24, 0.139874
8012.6, 0.139676
8025.01, 0.139544
8037.45, 0.139544
8049.93, 0.139347
8062.45, 0.139215
8075.01, 0.139017
8087.61, 0.138687
8100.24, 0.138358
8112.91, 0.137962
8125.63, 0.137501
8138.39, 0.137237
8151.18, 0.136908
8164.02, 0.136446
8176.9, 0.135985
8189.81, 0.135655
8202.77, 0.135194
8215.77, 0.134798
8228.82, 0.134403
8241.9, 0.133810
8255.02, 0.133216
8268.19, 0.132821
8281.39, 0.132294
8294.65, 0.131832
8307.94, 0.131371
8321.28, 0.130843
8334.66, 0.130250
8348.08, 0.129789
8361.54, 0.129196
8375.05, 0.128668
8388.6, 0.128273
8402.2, 0.127943
8415.84, 0.127614
8429.52, 0.127416
8443.25, 0.127350
8457.02, 0.127218
8470.84, 0.126954
8484.7, 0.126757
8498.61, 0.126559
8512.57, 0.126361
8526.57, 0.126295
8540.62, 0.126229
8554.71, 0.126163
8568.85, 0.126032
8583.04, 0.125834
8597.27, 0.125636
8611.55, 0.125438
8625.88, 0.125438
8640.26, 0.125438
8654.68, 0.125438
8669.16, 0.125306
8683.68, 0.125306
8698.25, 0.125241
8712.87, 0.125175
8727.53, 0.125109
8742.25, 0.125109
8757.02, 0.124977
8771.83, 0.125109
8786.7, 0.125175
8801.62, 0.125109
8816.59, 0.124911
8831.61, 0.124779
8846.68, 0.124713
8861.8, 0.124647
8876.97, 0.124581
8892.2, 0.124450
8907.48, 0.124384
8922.81, 0.124186
8938.2, 0.124054
8953.63, 0.123922
8969.13, 0.123659
8984.67, 0.123593
9000.27, 0.123527
9015.92, 0.123527
9031.63, 0.123527
9047.39, 0.123527
9063.21, 0.123395
9079.08, 0.123263
9095.01, 0.123263
9111.0, 0.123263
9127.04, 0.123197
9143.13, 0.123263
9159.28, 0.123197
9175.49, 0.123131
9191.76, 0.123197
9208.09, 0.123197
9224.47, 0.123197
9240.92, 0.123197
9257.42, 0.122999
9273.98, 0.122933
9290.6, 0.122999
9307.28, 0.123131
9324.02, 0.123131
9340.82, 0.123131
9357.68, 0.123131
9374.6, 0.123131
9391.58, 0.123131
9408.62, 0.123131
9425.73, 0.123131
9442.9, 0.122999
9460.13, 0.122933
9477.42, 0.122933
9494.78, 0.122868
9512.2, 0.122933
9529.69, 0.123131
9547.24, 0.123263
9564.86, 0.123329
9582.54, 0.123329
9600.28, 0.123329
9618.1, 0.123395
9635.97, 0.123395
9653.92, 0.123329
9671.93, 0.123131
9690.01, 0.123065
9708.16, 0.123197
9726.37, 0.123263
9744.65, 0.123395
9763.0, 0.123790
9781.43, 0.123988
9799.92, 0.123988
9818.48, 0.123922
9837.1, 0.123922
9855.8, 0.123988
9874.58, 0.124120
9893.42, 0.124186
9912.34, 0.124252
9931.33, 0.124384
9950.39, 0.124450
9969.52, 0.124318
9988.74, 0.124054
10008.0, 0.123724
10027.4, 0.123461
10046.8, 0.123461
10066.3, 0.123461
10085.9, 0.123263
10105.6, 0.123263
10125.3, 0.123197
10145.1, 0.122999
10165.0, 0.122604
10185.0, 0.122406
10205.0, 0.122340
10225.2, 0.122208
10245.4, 0.122143
10265.7, 0.122143
10286.0, 0.122077
10306.5, 0.121879
10327.0, 0.121747
10347.6, 0.121681
10368.3, 0.121549
10389.1, 0.121549
10409.9, 0.121615
10430.9, 0.121483
10451.9, 0.121220
10473.0, 0.121220
10494.2, 0.121088
10515.5, 0.120758
10536.9, 0.120758
10558.4, 0.120692
10579.9, 0.120363
10601.5, 0.120231
10623.3, 0.120363
10645.1, 0.120297
10667.0, 0.119967
10689.0, 0.119506
10711.1, 0.119044
10733.2, 0.118715
10755.5, 0.118385
10777.9, 0.118188
10800.3, 0.117990
10822.9, 0.117594
10845.5, 0.117397
10868.2, 0.117067
10891.1, 0.116474
10914.0, 0.115946
10937.0, 0.115749
10960.2, 0.115617
10983.4, 0.115353
11006.7, 0.115089
11030.1, 0.114892
11053.6, 0.114694
11077.3, 0.114496
11101.0, 0.114167
11124.8, 0.113903
11148.7, 0.113771
11172.7, 0.113639
11196.9, 0.113771
11221.1, 0.113771
11245.4, 0.113771
11269.9, 0.113771
11294.4, 0.113508
11319.1, 0.113046
11343.9, 0.112717
11368.8, 0.112651
11393.7, 0.112519
11418.8, 0.112519
11444.0, 0.112585
11469.4, 0.112585
11494.8, 0.112651
11520.3, 0.112453
11546.0, 0.112255
11571.8, 0.111991
11597.7, 0.112189
11623.7, 0.112321
11649.8, 0.112123
11676.0, 0.111860
11702.4, 0.111728
11728.9, 0.111530
11755.5, 0.111200
11782.2, 0.111003
11809.0, 0.111135
11836.0, 0.111069
11863.0, 0.110937
11890.3, 0.110805
11917.6, 0.110541
11945.0, 0.110278
11972.6, 0.110278
12000.4, 0.110212
12028.2, 0.110014
12056.2, 0.109816
12084.3, 0.110080
12112.5, 0.110344
12140.9, 0.110344
12169.4, 0.109948
12198.0, 0.109684
12226.8, 0.109487
12255.7, 0.109223
12284.7, 0.108959
12313.9, 0.108893
12343.2, 0.108762
12372.7, 0.108630
12402.3, 0.108366
12432.0, 0.108036
12461.9, 0.107575
12491.9, 0.107509
12522.1, 0.107575
12552.4, 0.107575
12582.9, 0.107377
12613.5, 0.107180
12644.3, 0.107180
12675.2, 0.107048
12706.3, 0.106850
12737.5, 0.106718
12768.9, 0.106389
12800.4, 0.106257
12832.1, 0.106191
12863.9, 0.105861
12895.9, 0.105663
12928.1, 0.105532
12960.4, 0.105334
12992.9, 0.105268
13025.5, 0.105400
13058.3, 0.105400
13091.3, 0.105136
13124.4, 0.105202
13157.8, 0.104872
13191.2, 0.104411
13224.9, 0.104345
13258.7, 0.104147
13292.7, 0.103950
13326.9, 0.104081
13361.2, 0.104147
13395.7, 0.104081
13430.4, 0.103950
13465.3, 0.103686
13500.4, 0.103225
13535.7, 0.102763
13571.1, 0.102236
13606.7, 0.101906
13642.5, 0.101577
13678.5, 0.100852
13714.7, 0.100588
13751.1, 0.100522
13787.6, 0.100258
13824.4, 0.0998630
13861.4, 0.0994010
13898.5, 0.0990060
13935.9, 0.0988080
13973.5, 0.0987420
14011.2, 0.0983470
14049.2, 0.0980170
14087.4, 0.0978850
14125.8, 0.0975560
14164.3, 0.0974240
14203.2, 0.0970940
14242.2, 0.0966330
14281.4, 0.0964350
14320.9, 0.0964350
14360.5, 0.0963690
14400.4, 0.0963030
14440.5, 0.0961720
14480.9, 0.0957100
14521.4, 0.0954460
14562.2, 0.0953150
14603.3, 0.0947870
14644.5, 0.0944580
14686.0, 0.0944580
14727.7, 0.0943920
14769.7, 0.0943260
14811.9, 0.0937990
14854.3, 0.0933370
14897.0, 0.0929420
14939.9, 0.0935350
14983.1, 0.0940620
15026.5, 0.0927440
15070.2, 0.0918210
15114.2, 0.0914260
15158.3, 0.0910960
15202.8, 0.0907010
15247.5, 0.0904370
15292.5, 0.0903710
15337.7, 0.0901730
15383.2, 0.0901730
15429.0, 0.0901070
15475.1, 0.0897780
15521.4, 0.0891190
15568.0, 0.0884590
15614.9, 0.0880640
15662.1, 0.0876020
15709.6, 0.0873390
15757.3, 0.0870090
15805.4, 0.0869430
15853.7, 0.0867460
15902.3, 0.0862180
15951.2, 0.0860200
16000.5, 0.0856910
16050.0, 0.0854930
16099.8, 0.0854270
16150.0, 0.0854270
16200.5, 0.0854930
16251.3, 0.0854270
16302.4, 0.0851640
16353.8, 0.0849660
16405.5, 0.0844390
16457.6, 0.0839110
16510.0, 0.0837790
16562.8, 0.0835820
16615.9, 0.0831860
16669.3, 0.0830540
16723.1, 0.0825930
16777.2, 0.0821970
16831.7, 0.0822630
16886.5, 0.0821970
16941.7, 0.0819340
16997.2, 0.0817360
17053.1, 0.0817360
17109.4, 0.0817360
17166.1, 0.0818680
17223.1, 0.0816700
17280.5, 0.0818020
17338.3, 0.0819340
17396.5, 0.0818680
17455.1, 0.0816040
17514.0, 0.0812750
17573.4, 0.0812750
17633.2, 0.0812750
17693.4, 0.0810110
17754.0, 0.0811430
17815.0, 0.0812090
17876.4, 0.0812090
17938.3, 0.0812090
18000.5, 0.0818020
18063.3, 0.0820000
18126.4, 0.0818020
18190.0, 0.0817360
18254.1, 0.0816700
18318.6, 0.0816040
18383.5, 0.0817360
18449.0, 0.0818680
18514.9, 0.0816700
18581.2, 0.0819340
18648.0, 0.0821970
18715.4, 0.0821970
18783.2, 0.0829220
18851.5, 0.0835160
18920.3, 0.0837790
18989.6, 0.0842410
19059.4, 0.0845700
19129.7, 0.0849660
19200.6, 0.0850320
19272.0, 0.0855590
19343.9, 0.0862180
19416.3, 0.0857570
19489.3, 0.0857570
19562.8, 0.0860200
19637.0, 0.0866140
19711.6, 0.0878660
19786.8, 0.0885910
19862.6, 0.0891840
19939.0, 0.0895800
20016.0, 0.0898440
20093.6, 0.0905030
20171.8, 0.0913600
20250.6, 0.0919530
20330.0, 0.0920190
20410.0, 0.0921510
20490.7, 0.0930080
20572.0, 0.0937990
20654.0, 0.0943920
20736.6, 0.0945240
20819.9, 0.0947870
20903.8, 0.0954460
20988.5, 0.0966990
21073.8, 0.0980170
21159.8, 0.0985450
21246.5, 0.0990060
21334.0, 0.100061
21422.1, 0.100192
21511.0, 0.100918
21600.7, 0.101906
21691.0, 0.102631
21782.1, 0.103818
21874.0, 0.104807
21966.7, 0.104675
22060.2, 0.104872
22154.5, 0.105466
22249.6, 0.106916
22345.5, 0.107707
22442.2, 0.108432
22539.8, 0.109421
22638.2, 0.108959
22737.5, 0.109553
22837.7, 0.110739
22938.7, 0.111530
23040.7, 0.112189
23143.5, 0.113639
23247.3, 0.114298
23352.1, 0.114628
23457.7, 0.116869
23564.4, 0.119374
23672.0, 0.119967
23780.5, 0.123131
23890.1, 0.125109
24000.7, 0.122208
24112.3, 0.120297
24225.0, 0.121615
24338.7, 0.124713
24453.5, 0.126295
24569.4, 0.127679
24686.4, 0.130052
24804.5, 0.129459
