Database of Origin, USGS Spectral Database
Sample Description, See USGS database for additional info
Date Added,2016-08-10 05:03:24.671920

Data ID,USGS_lep09          
Sample ID, lepidolite_nmnh105543.12790
Mineral Name, lepidolite
Material Class,Phyllosilicate

Wavelength
1379.5, 0.314226
1379.87, 0.313251
1380.23, 0.312082
1380.6, 0.310002
1380.97, 0.309223
1381.34, 0.309418
1381.7, 0.308638
1382.07, 0.306299
1382.44, 0.303375
1382.81, 0.301815
1383.18, 0.302010
1383.55, 0.301815
1383.92, 0.300971
1384.29, 0.299801
1384.66, 0.298177
1385.03, 0.297527
1385.4, 0.297527
1385.77, 0.297462
1386.14, 0.297137
1386.51, 0.296747
1386.88, 0.296812
1387.25, 0.296552
1387.62, 0.295383
1387.99, 0.295188
1388.36, 0.296292
1388.74, 0.296682
1389.11, 0.296227
1389.48, 0.295707
1389.85, 0.295578
1390.23, 0.295383
1390.6, 0.295253
1390.97, 0.295578
1391.35, 0.295123
1391.72, 0.294863
1392.09, 0.294538
1392.47, 0.293823
1392.84, 0.294668
1393.21, 0.295707
1393.59, 0.295513
1393.96, 0.295513
1394.34, 0.294993
1394.71, 0.294213
1395.09, 0.294733
1395.46, 0.295253
1395.84, 0.295123
1396.22, 0.294408
1396.59, 0.294083
1396.97, 0.294018
1397.35, 0.293758
1397.72, 0.294213
1398.1, 0.294213
1398.48, 0.293433
1398.85, 0.292978
1399.23, 0.292329
1399.61, 0.291549
1399.99, 0.291484
1400.37, 0.291094
1400.74, 0.290834
1401.12, 0.291224
1401.5, 0.290379
1401.88, 0.289990
1402.26, 0.289990
1402.64, 0.289860
1403.02, 0.289275
1403.4, 0.289015
1403.78, 0.289080
1404.16, 0.288690
1404.54, 0.287780
1404.92, 0.287520
1405.3, 0.287196
1405.68, 0.286871
1406.06, 0.286871
1406.44, 0.287001
1406.83, 0.286351
1407.21, 0.284921
1407.59, 0.284402
1407.97, 0.284337
1408.35, 0.284142
1408.74, 0.283427
1409.12, 0.281933
1409.5, 0.281348
1409.89, 0.281673
1410.27, 0.281608
1410.65, 0.281218
1411.04, 0.280438
1411.42, 0.279593
1411.81, 0.279009
1412.19, 0.278619
1412.58, 0.279139
1412.96, 0.279009
1413.35, 0.278749
1413.73, 0.278359
1414.12, 0.277774
1414.5, 0.277579
1414.89, 0.277644
1415.28, 0.277579
1415.66, 0.277579
1416.05, 0.277579
1416.44, 0.277254
1416.82, 0.277449
1417.21, 0.278034
1417.6, 0.277969
1417.98, 0.277579
1418.37, 0.277449
1418.76, 0.277449
1419.15, 0.277644
1419.54, 0.277579
1419.93, 0.277384
1420.32, 0.277709
1420.71, 0.278034
1421.09, 0.278099
1421.48, 0.277904
1421.88, 0.277579
1422.27, 0.277449
1422.66, 0.277774
1423.05, 0.277904
1423.44, 0.277644
1423.83, 0.277514
1424.22, 0.277839
1424.61, 0.277644
1425.0, 0.277514
1425.39, 0.277059
1425.78, 0.277319
1426.18, 0.277709
1426.57, 0.277709
1426.96, 0.277774
1427.36, 0.278034
1427.75, 0.277839
1428.14, 0.277709
1428.54, 0.277969
1428.93, 0.278164
1429.32, 0.278034
1429.72, 0.278229
1430.11, 0.278424
1430.51, 0.278814
1430.9, 0.278879
1431.3, 0.278684
1431.69, 0.278554
1432.09, 0.279009
1432.48, 0.279074
1432.88, 0.279269
1433.28, 0.279463
1433.67, 0.279333
1434.07, 0.279658
1434.46, 0.280048
1434.86, 0.280373
1435.26, 0.280828
1435.66, 0.280893
1436.05, 0.280893
1436.45, 0.280893
1436.85, 0.281218
1437.25, 0.281348
1437.65, 0.280893
1438.05, 0.280958
1438.44, 0.281413
1438.84, 0.281543
1439.24, 0.281478
1439.64, 0.281413
1440.04, 0.282062
1440.44, 0.282777
1440.84, 0.282712
1441.24, 0.282582
1441.65, 0.282647
1442.05, 0.282842
1442.45, 0.282777
1442.85, 0.282517
1443.25, 0.282582
1443.65, 0.282257
1444.05, 0.282712
1444.46, 0.282972
1444.86, 0.282842
1445.26, 0.282452
1445.67, 0.282452
1446.07, 0.282712
1446.47, 0.282322
1446.88, 0.281997
1447.28, 0.282062
1447.68, 0.282387
1448.09, 0.282452
1448.49, 0.282322
1448.9, 0.282192
1449.3, 0.281997
1449.71, 0.281997
1450.11, 0.281868
1450.52, 0.281997
1450.93, 0.282452
1451.33, 0.282647
1451.74, 0.281803
1452.14, 0.281413
1452.55, 0.281348
1452.96, 0.281088
1453.36, 0.281023
1453.77, 0.281348
1454.18, 0.281608
1454.59, 0.281608
1455.0, 0.281088
1455.41, 0.280958
1455.81, 0.281023
1456.22, 0.280763
1456.63, 0.280308
1457.04, 0.279723
1457.45, 0.279723
1457.86, 0.279983
1458.27, 0.280113
1458.68, 0.280308
1459.09, 0.280308
1459.5, 0.279853
1459.91, 0.279658
1460.32, 0.279853
1460.74, 0.279658
1461.15, 0.279398
1461.56, 0.278749
1461.97, 0.278814
1462.39, 0.279074
1462.8, 0.278749
1463.21, 0.278489
1463.62, 0.278554
1464.04, 0.278619
1464.45, 0.278554
1464.86, 0.278489
1465.28, 0.278489
1465.69, 0.278359
1466.11, 0.278034
1466.52, 0.277969
1466.94, 0.278294
1467.35, 0.278424
1467.77, 0.278554
1468.18, 0.278294
1468.6, 0.278034
1469.02, 0.277514
1469.43, 0.277449
1469.85, 0.278034
1470.27, 0.277969
1470.68, 0.277579
1471.1, 0.277774
1471.52, 0.277579
1471.94, 0.277124
1472.35, 0.276734
1472.77, 0.276604
1473.19, 0.276864
1473.61, 0.277059
1474.03, 0.277124
1474.45, 0.277059
1474.87, 0.276539
1475.29, 0.276539
1475.71, 0.276929
1476.13, 0.276799
1476.55, 0.276734
1476.97, 0.276799
1477.39, 0.276734
1477.81, 0.276604
1478.23, 0.276604
1478.65, 0.276669
1479.07, 0.277254
1479.5, 0.277709
1479.92, 0.277514
1480.34, 0.277189
1480.76, 0.276604
1481.19, 0.276539
1481.61, 0.276929
1482.03, 0.277254
1482.46, 0.277189
1482.88, 0.276604
1483.31, 0.276539
1483.73, 0.276669
1484.16, 0.276345
1484.58, 0.276085
1485.01, 0.276474
1485.43, 0.277124
1485.86, 0.277189
1486.28, 0.277384
1486.71, 0.277384
1487.14, 0.277124
1487.56, 0.276864
1487.99, 0.276734
1488.42, 0.276929
1488.84, 0.276929
1489.27, 0.276410
1489.7, 0.276604
1490.13, 0.277059
1490.56, 0.276929
1490.98, 0.276604
1491.41, 0.276539
1491.84, 0.276734
1492.27, 0.276734
1492.7, 0.276799
1493.13, 0.276799
1493.56, 0.276669
1493.99, 0.276929
1494.42, 0.276994
1494.85, 0.276864
1495.29, 0.276864
1495.72, 0.277189
1496.15, 0.277124
1496.58, 0.277254
1497.01, 0.277579
1497.44, 0.277189
1497.88, 0.277059
1498.31, 0.277254
1498.74, 0.277189
1499.18, 0.276994
1499.61, 0.277124
1500.04, 0.277514
1500.48, 0.277384
1500.91, 0.277254
1501.35, 0.277579
1501.78, 0.277709
1502.22, 0.277319
1502.65, 0.277189
1503.09, 0.277384
1503.53, 0.277774
1503.96, 0.278164
1504.4, 0.278099
1504.83, 0.277774
1505.27, 0.277579
1505.71, 0.277254
1506.15, 0.277254
1506.58, 0.277189
1507.02, 0.277319
1507.46, 0.277709
1507.9, 0.277709
1508.34, 0.277839
1508.78, 0.277969
1509.21, 0.277774
1509.66, 0.277644
1510.09, 0.277579
1510.53, 0.277774
1510.97, 0.278229
1511.42, 0.278359
1511.86, 0.278034
1512.3, 0.277774
1512.74, 0.277774
1513.18, 0.277904
1513.62, 0.277969
1514.06, 0.277839
1514.51, 0.277579
1514.95, 0.277579
1515.39, 0.277774
1515.83, 0.277709
1516.28, 0.277579
1516.72, 0.277709
1517.16, 0.277904
1517.61, 0.278099
1518.05, 0.278424
1518.5, 0.278229
1518.94, 0.278034
1519.39, 0.278359
1519.83, 0.278554
1520.28, 0.278424
1520.73, 0.278229
1521.17, 0.277774
1521.62, 0.277449
1522.07, 0.277839
1522.51, 0.278164
1522.96, 0.278294
1523.41, 0.278099
1523.85, 0.277774
1524.3, 0.277579
1524.75, 0.277969
1525.2, 0.278034
1525.65, 0.278034
1526.1, 0.278164
1526.55, 0.278229
1527.0, 0.277969
1527.45, 0.277644
1527.9, 0.277774
1528.35, 0.278294
1528.8, 0.278294
1529.25, 0.278099
1529.7, 0.278099
1530.15, 0.278164
1530.6, 0.278034
1531.05, 0.278294
1531.51, 0.278034
1531.96, 0.277774
1532.41, 0.278099
1532.87, 0.278294
1533.32, 0.278229
1533.77, 0.278424
1534.23, 0.278034
1534.68, 0.277969
1535.14, 0.277904
1535.59, 0.278164
1536.05, 0.278554
1536.5, 0.278424
1536.96, 0.278359
1537.41, 0.278424
1537.87, 0.277904
1538.32, 0.277904
1538.78, 0.278424
1539.24, 0.278684
1539.7, 0.278749
1540.15, 0.279074
1540.61, 0.279139
1541.07, 0.279074
1541.53, 0.279009
1541.98, 0.278814
1542.44, 0.279009
1542.9, 0.279463
1543.36, 0.279009
1543.82, 0.278749
1544.28, 0.279139
1544.74, 0.279204
1545.2, 0.279074
1545.66, 0.279009
1546.12, 0.279398
1546.59, 0.279528
1547.05, 0.279204
1547.51, 0.279139
1547.97, 0.279204
1548.43, 0.279398
1548.9, 0.279593
1549.36, 0.279723
1549.82, 0.279853
1550.29, 0.280048
1550.75, 0.279853
1551.21, 0.279983
1551.68, 0.280243
1552.14, 0.280438
1552.61, 0.280243
1553.07, 0.279918
1553.54, 0.279918
1554.0, 0.280048
1554.47, 0.280503
1554.93, 0.280828
1555.4, 0.280633
1555.87, 0.280568
1556.34, 0.280893
1556.8, 0.281088
1557.27, 0.280958
1557.74, 0.280893
1558.21, 0.280568
1558.68, 0.280763
1559.14, 0.281283
1559.61, 0.281283
1560.08, 0.281283
1560.55, 0.281738
1561.02, 0.281868
1561.49, 0.281868
1561.96, 0.281868
1562.43, 0.281868
1562.9, 0.281738
1563.38, 0.281738
1563.85, 0.281803
1564.32, 0.281997
1564.79, 0.281868
1565.26, 0.281997
1565.74, 0.282257
1566.21, 0.282257
1566.68, 0.282062
1567.16, 0.282257
1567.63, 0.282452
1568.1, 0.282257
1568.58, 0.282192
1569.05, 0.282192
1569.53, 0.282257
1570.0, 0.281933
1570.48, 0.281933
1570.96, 0.282062
1571.43, 0.282322
1571.91, 0.282517
1572.39, 0.282647
1572.86, 0.282842
1573.34, 0.282712
1573.82, 0.282712
1574.3, 0.282712
1574.77, 0.282452
1575.25, 0.282712
1575.73, 0.282842
1576.21, 0.283037
1576.69, 0.283232
1577.17, 0.282972
1577.65, 0.282842
1578.13, 0.283037
1578.61, 0.282972
1579.09, 0.282842
1579.57, 0.282972
1580.05, 0.282972
1580.54, 0.282907
1581.02, 0.283167
1581.5, 0.283102
1581.98, 0.282777
1582.47, 0.282777
1582.95, 0.282972
1583.43, 0.282907
1583.92, 0.282972
1584.4, 0.283232
1584.88, 0.283232
1585.37, 0.283102
1585.85, 0.282842
1586.34, 0.282907
1586.82, 0.283102
1587.31, 0.283427
1587.8, 0.283622
1588.28, 0.283232
1588.77, 0.283427
1589.26, 0.283752
1589.74, 0.283622
1590.23, 0.283622
1590.72, 0.283427
1591.21, 0.283297
1591.7, 0.283427
1592.19, 0.283427
1592.67, 0.283297
1593.16, 0.283557
1593.65, 0.283882
1594.14, 0.284012
1594.63, 0.284012
1595.12, 0.284012
1595.61, 0.283882
1596.11, 0.283687
1596.6, 0.283557
1597.09, 0.283947
1597.58, 0.284207
1598.08, 0.283947
1598.57, 0.283817
1599.06, 0.284077
1599.55, 0.283947
1600.05, 0.283882
1600.54, 0.284207
1601.04, 0.284467
1601.53, 0.284467
1602.03, 0.284726
1602.52, 0.284597
1603.02, 0.284207
1603.51, 0.284142
1604.01, 0.284402
1604.5, 0.284597
1605.0, 0.284597
1605.5, 0.284402
1606.0, 0.284532
1606.49, 0.284726
1606.99, 0.285051
1607.49, 0.284986
1607.99, 0.284921
1608.49, 0.284986
1608.99, 0.284921
1609.49, 0.285051
1609.99, 0.285441
1610.49, 0.285506
1610.99, 0.285116
1611.49, 0.284986
1611.99, 0.285051
1612.49, 0.285246
1612.99, 0.285506
1613.49, 0.285766
1614.0, 0.285766
1614.5, 0.285571
1615.0, 0.285441
1615.51, 0.285831
1616.01, 0.286091
1616.51, 0.285831
1617.02, 0.285701
1617.52, 0.285961
1618.03, 0.286221
1618.53, 0.286221
1619.04, 0.286091
1619.54, 0.286286
1620.05, 0.286741
1620.55, 0.286741
1621.06, 0.286546
1621.57, 0.286481
1622.08, 0.286481
1622.58, 0.286546
1623.09, 0.286611
1623.6, 0.286481
1624.11, 0.286546
1624.62, 0.287131
1625.13, 0.287715
1625.64, 0.287391
1626.15, 0.287196
1626.66, 0.287261
1627.17, 0.287261
1627.68, 0.287391
1628.19, 0.287391
1628.7, 0.287261
1629.21, 0.287326
1629.72, 0.287326
1630.24, 0.287520
1630.75, 0.287650
1631.26, 0.287650
1631.78, 0.287910
1632.29, 0.288040
1632.8, 0.287845
1633.32, 0.287715
1633.83, 0.287910
1634.35, 0.287845
1634.86, 0.287585
1635.38, 0.287910
1635.9, 0.288170
1636.41, 0.287845
1636.93, 0.287780
1637.45, 0.287975
1637.96, 0.288040
1638.48, 0.287975
1639.0, 0.287910
1639.52, 0.287845
1640.04, 0.288105
1640.56, 0.288170
1641.08, 0.287975
1641.59, 0.288105
1642.11, 0.288235
1642.63, 0.288365
1643.16, 0.288300
1643.68, 0.288430
1644.2, 0.288560
1644.72, 0.288430
1645.24, 0.288300
1645.76, 0.288560
1646.29, 0.288690
1646.81, 0.288625
1647.33, 0.288235
1647.86, 0.288300
1648.38, 0.288300
1648.9, 0.288235
1649.43, 0.288105
1649.95, 0.288105
1650.48, 0.288040
1651.0, 0.288040
1651.53, 0.287975
1652.06, 0.287975
1652.58, 0.288105
1653.11, 0.288105
1653.64, 0.288105
1654.17, 0.288040
1654.69, 0.287845
1655.22, 0.287975
1655.75, 0.288170
1656.28, 0.288235
1656.81, 0.288300
1657.34, 0.288235
1657.87, 0.288300
1658.4, 0.288755
1658.93, 0.288690
1659.46, 0.288690
1659.99, 0.288300
1660.52, 0.288105
1661.05, 0.288170
1661.59, 0.288300
1662.12, 0.288300
1662.65, 0.288365
1663.19, 0.288560
1663.72, 0.288950
1664.26, 0.288950
1664.79, 0.288690
1665.32, 0.288625
1665.86, 0.288560
1666.39, 0.288495
1666.93, 0.288690
1667.47, 0.288690
1668.0, 0.288755
1668.54, 0.288820
1669.08, 0.288560
1669.61, 0.288560
1670.15, 0.289210
1670.69, 0.289535
1671.23, 0.289275
1671.77, 0.289015
1672.31, 0.289080
1672.85, 0.289015
1673.39, 0.289080
1673.93, 0.289145
1674.47, 0.289275
1675.01, 0.289210
1675.55, 0.289015
1676.09, 0.289210
1676.64, 0.289535
1677.18, 0.289405
1677.72, 0.289340
1678.26, 0.289340
1678.81, 0.289535
1679.35, 0.289795
1679.89, 0.290055
1680.44, 0.289730
1680.98, 0.289535
1681.53, 0.289665
1682.07, 0.289860
1682.62, 0.289600
1683.17, 0.289535
1683.71, 0.289860
1684.26, 0.289990
1684.81, 0.289990
1685.36, 0.289990
1685.9, 0.289665
1686.45, 0.289795
1687.0, 0.289860
1687.55, 0.289925
1688.1, 0.290314
1688.65, 0.290444
1689.2, 0.290314
1689.75, 0.290379
1690.3, 0.290314
1690.85, 0.290509
1691.41, 0.290899
1691.96, 0.291029
1692.51, 0.290834
1693.06, 0.290834
1693.61, 0.290769
1694.17, 0.290769
1694.72, 0.290769
1695.28, 0.290899
1695.83, 0.290964
1696.39, 0.291159
1696.94, 0.291224
1697.5, 0.291354
1698.05, 0.291419
1698.61, 0.291224
1699.17, 0.291289
1699.72, 0.291289
1700.28, 0.291419
1700.84, 0.291679
1701.4, 0.291484
1701.95, 0.291159
1702.51, 0.291419
1703.07, 0.291874
1703.63, 0.291744
1704.19, 0.291614
1704.75, 0.291679
1705.31, 0.292069
1705.88, 0.291744
1706.44, 0.291289
1707.0, 0.291419
1707.56, 0.291354
1708.12, 0.291029
1708.69, 0.291094
1709.25, 0.291484
1709.81, 0.291549
1710.38, 0.291289
1710.94, 0.291354
1711.51, 0.291679
1712.07, 0.291874
1712.64, 0.291614
1713.2, 0.291484
1713.77, 0.291419
1714.34, 0.291549
1714.9, 0.291419
1715.47, 0.291484
1716.04, 0.291419
1716.61, 0.291289
1717.18, 0.291289
1717.74, 0.291289
1718.31, 0.291484
1718.88, 0.291744
1719.45, 0.291484
1720.02, 0.291224
1720.59, 0.291224
1721.17, 0.291289
1721.74, 0.291224
1722.31, 0.291354
1722.88, 0.291289
1723.45, 0.291159
1724.03, 0.291224
1724.6, 0.291159
1725.18, 0.291159
1725.75, 0.291354
1726.33, 0.291159
1726.9, 0.290834
1727.48, 0.290964
1728.05, 0.291159
1728.63, 0.291419
1729.2, 0.291484
1729.78, 0.290964
1730.36, 0.290964
1730.94, 0.291224
1731.51, 0.291159
1732.09, 0.291159
1732.67, 0.291224
1733.25, 0.291029
1733.83, 0.290834
1734.41, 0.290769
1734.99, 0.290834
1735.57, 0.291029
1736.15, 0.291159
1736.73, 0.291159
1737.32, 0.291094
1737.9, 0.290964
1738.48, 0.290964
1739.07, 0.290899
1739.65, 0.290964
1740.23, 0.290899
1740.82, 0.291159
1741.4, 0.291224
1741.99, 0.291159
1742.57, 0.291289
1743.16, 0.291289
1743.74, 0.291224
1744.33, 0.291159
1744.92, 0.291354
1745.51, 0.291484
1746.09, 0.291354
1746.68, 0.291354
1747.27, 0.291094
1747.86, 0.290899
1748.45, 0.291094
1749.04, 0.291289
1749.63, 0.291419
1750.22, 0.291614
1750.81, 0.291159
1751.4, 0.291094
1751.99, 0.291029
1752.59, 0.291159
1753.18, 0.291484
1753.77, 0.291679
1754.37, 0.291484
1754.96, 0.291419
1755.56, 0.291354
1756.15, 0.291289
1756.74, 0.291224
1757.34, 0.291354
1757.94, 0.291744
1758.53, 0.291809
1759.13, 0.291289
1759.73, 0.291159
1760.32, 0.291224
1760.92, 0.291289
1761.52, 0.291484
1762.12, 0.291419
1762.72, 0.291289
1763.32, 0.291549
1763.92, 0.291874
1764.52, 0.291809
1765.12, 0.291939
1765.72, 0.291939
1766.32, 0.291939
1766.92, 0.291874
1767.53, 0.291744
1768.13, 0.291679
1768.73, 0.291744
1769.34, 0.291809
1769.94, 0.291744
1770.55, 0.291744
1771.15, 0.291614
1771.76, 0.291809
1772.36, 0.291679
1772.97, 0.291679
1773.57, 0.291809
1774.18, 0.291874
1774.79, 0.292004
1775.4, 0.291939
1776.0, 0.291679
1776.61, 0.291744
1777.22, 0.291874
1777.83, 0.291939
1778.44, 0.291809
1779.05, 0.291679
1779.66, 0.291679
1780.27, 0.291354
1780.88, 0.291159
1781.5, 0.291484
1782.11, 0.291809
1782.72, 0.291874
1783.33, 0.291939
1783.95, 0.291939
1784.56, 0.291614
1785.18, 0.291354
1785.79, 0.291159
1786.41, 0.291224
1787.02, 0.291289
1787.64, 0.291419
1788.26, 0.291224
1788.87, 0.291289
1789.49, 0.291419
1790.11, 0.291419
1790.73, 0.291159
1791.35, 0.290964
1791.96, 0.290964
1792.58, 0.291224
1793.21, 0.291354
1793.83, 0.291224
1794.45, 0.290769
1795.07, 0.290639
1795.69, 0.290834
1796.31, 0.291029
1796.93, 0.291029
1797.56, 0.290639
1798.18, 0.290509
1798.8, 0.290639
1799.43, 0.290704
1800.05, 0.290509
1800.68, 0.290314
1801.3, 0.290249
1801.93, 0.290185
1802.56, 0.290314
1803.18, 0.290055
1803.81, 0.289990
1804.44, 0.290120
1805.07, 0.290120
1805.7, 0.289925
1806.33, 0.289795
1806.95, 0.289860
1807.58, 0.290444
1808.22, 0.290639
1808.85, 0.290314
1809.48, 0.289925
1810.11, 0.289665
1810.74, 0.289340
1811.38, 0.289340
1812.01, 0.289535
1812.64, 0.289535
1813.28, 0.289535
1813.91, 0.289600
1814.55, 0.289535
1815.18, 0.289210
1815.82, 0.289210
1816.45, 0.289405
1817.09, 0.289340
1817.73, 0.289405
1818.36, 0.289535
1819.0, 0.289470
1819.64, 0.288950
1820.28, 0.288235
1820.92, 0.288365
1821.56, 0.289080
1822.2, 0.289275
1822.84, 0.289015
1823.48, 0.289015
1824.12, 0.289470
1824.76, 0.289535
1825.41, 0.288950
1826.05, 0.288235
1826.69, 0.288430
1827.34, 0.289275
1827.98, 0.289210
1828.63, 0.288820
1829.27, 0.288690
1829.92, 0.288820
1830.56, 0.288495
1831.21, 0.288365
1831.86, 0.288820
1832.5, 0.288950
1833.15, 0.289015
1833.8, 0.289340
1834.45, 0.289080
1835.1, 0.288560
1835.75, 0.288105
1836.4, 0.287845
1837.05, 0.287975
1837.7, 0.287650
1838.35, 0.288105
1839.01, 0.288625
1839.66, 0.287975
1840.31, 0.287975
1840.96, 0.288365
1841.62, 0.287650
1842.27, 0.287455
1842.93, 0.288235
1843.58, 0.288560
1844.24, 0.288625
1844.9, 0.288690
1845.55, 0.288755
1846.21, 0.288235
1846.87, 0.287196
1847.53, 0.287001
1848.18, 0.287196
1848.84, 0.287715
1849.5, 0.288430
1850.16, 0.288560
1850.82, 0.288365
1851.48, 0.288495
1852.14, 0.288430
1852.81, 0.287975
1853.47, 0.287261
1854.13, 0.287066
1854.8, 0.287780
1855.46, 0.288105
1856.12, 0.287715
1856.79, 0.287326
1857.45, 0.287780
1858.12, 0.288170
1858.79, 0.287780
1859.45, 0.286741
1860.12, 0.286416
1860.79, 0.287066
1861.46, 0.287585
1862.12, 0.287845
1862.79, 0.287715
1863.46, 0.287455
1864.13, 0.287261
1864.8, 0.287326
1865.48, 0.287455
1866.15, 0.287520
1866.82, 0.287261
1867.49, 0.286091
1868.16, 0.285896
1868.84, 0.286546
1869.51, 0.286546
1870.19, 0.285831
1870.86, 0.284791
1871.54, 0.285636
1872.21, 0.286091
1872.89, 0.284986
1873.56, 0.284921
1874.24, 0.285766
1874.92, 0.286091
1875.6, 0.285896
1876.28, 0.285441
1876.96, 0.284921
1877.64, 0.285116
1878.32, 0.285376
1879.0, 0.285441
1879.68, 0.285311
1880.36, 0.285116
1881.04, 0.284986
1881.73, 0.285051
1882.41, 0.285051
1883.09, 0.284856
1883.78, 0.284207
1884.46, 0.283947
1885.15, 0.283752
1885.83, 0.283362
1886.52, 0.283167
1887.21, 0.282972
1887.89, 0.282972
1888.58, 0.282907
1889.27, 0.282127
1889.96, 0.281218
1890.65, 0.281218
1891.34, 0.281218
1892.03, 0.280308
1892.72, 0.279853
1893.41, 0.279788
1894.1, 0.279398
1894.79, 0.278944
1895.49, 0.278424
1896.18, 0.277839
1896.87, 0.277124
1897.57, 0.276474
1898.26, 0.276020
1898.96, 0.275045
1899.65, 0.273745
1900.35, 0.273551
1901.05, 0.273616
1901.74, 0.273356
1902.44, 0.272706
1903.14, 0.272186
1903.84, 0.272186
1904.54, 0.271796
1905.24, 0.270692
1905.94, 0.270562
1906.64, 0.270627
1907.34, 0.270757
1908.04, 0.270951
1908.75, 0.271081
1909.45, 0.271406
1910.15, 0.271146
1910.86, 0.270757
1911.56, 0.270822
1912.27, 0.271146
1912.97, 0.271081
1913.68, 0.270887
1914.39, 0.271536
1915.09, 0.272251
1915.8, 0.272446
1916.51, 0.272641
1917.22, 0.273031
1917.93, 0.273486
1918.64, 0.273681
1919.35, 0.273291
1920.06, 0.272836
1920.77, 0.273031
1921.48, 0.273940
1922.19, 0.274655
1922.91, 0.274915
1923.62, 0.274785
1924.33, 0.275045
1925.05, 0.275760
1925.76, 0.276085
1926.48, 0.276020
1927.19, 0.276150
1927.91, 0.275955
1928.63, 0.276020
1929.35, 0.276345
1930.07, 0.276604
1930.78, 0.276539
1931.5, 0.276734
1932.22, 0.276864
1932.94, 0.277059
1933.66, 0.277124
1934.39, 0.277319
1935.11, 0.277514
1935.83, 0.277839
1936.55, 0.277839
1937.28, 0.277774
1938.0, 0.277709
1938.73, 0.277969
1939.45, 0.278034
1940.18, 0.278164
1940.9, 0.278099
1941.63, 0.278034
1942.36, 0.278034
1943.09, 0.278359
1943.81, 0.278489
1944.54, 0.278489
1945.27, 0.278814
1946.0, 0.279009
1946.73, 0.278814
1947.47, 0.278749
1948.2, 0.278814
1948.93, 0.278879
1949.66, 0.279009
1950.4, 0.279009
1951.13, 0.279009
1951.86, 0.278944
1952.6, 0.278489
1953.34, 0.278424
1954.07, 0.278684
1954.81, 0.278944
1955.55, 0.278814
1956.29, 0.278684
1957.02, 0.278879
1957.76, 0.278619
1958.5, 0.278359
1959.24, 0.278619
1959.98, 0.278749
1960.72, 0.278749
1961.47, 0.278814
1962.21, 0.278424
1962.95, 0.278164
1963.7, 0.278294
1964.44, 0.278294
1965.18, 0.278359
1965.93, 0.278229
1966.67, 0.278229
1967.42, 0.278294
1968.17, 0.278229
1968.92, 0.278294
1969.66, 0.278294
1970.41, 0.278099
1971.16, 0.277904
1971.91, 0.277969
1972.66, 0.278034
1973.41, 0.277839
1974.16, 0.277839
1974.92, 0.277839
1975.67, 0.277774
1976.42, 0.277839
1977.18, 0.277644
1977.93, 0.277579
1978.69, 0.277449
1979.44, 0.277384
1980.2, 0.277449
1980.95, 0.277319
1981.71, 0.277449
1982.47, 0.277514
1983.23, 0.277384
1983.99, 0.277514
1984.74, 0.277384
1985.51, 0.277124
1986.27, 0.277189
1987.03, 0.277254
1987.79, 0.277319
1988.55, 0.277059
1989.32, 0.276929
1990.08, 0.276994
1990.84, 0.277059
1991.61, 0.276864
1992.37, 0.276604
1993.14, 0.276799
1993.9, 0.276929
1994.67, 0.276669
1995.44, 0.276474
1996.21, 0.276474
1996.98, 0.276539
1997.75, 0.276539
1998.52, 0.276539
1999.29, 0.276345
2000.06, 0.276150
2000.83, 0.276215
2001.6, 0.276345
2002.38, 0.276345
2003.15, 0.276604
2003.93, 0.276474
2004.7, 0.276150
2005.48, 0.276345
2006.25, 0.276410
2007.03, 0.276085
2007.81, 0.276150
2008.58, 0.276280
2009.36, 0.276345
2010.14, 0.276345
2010.92, 0.276345
2011.7, 0.276345
2012.48, 0.276345
2013.26, 0.276150
2014.05, 0.276020
2014.83, 0.276020
2015.61, 0.276215
2016.4, 0.276150
2017.18, 0.276280
2017.97, 0.276280
2018.75, 0.276150
2019.54, 0.276345
2020.32, 0.276280
2021.11, 0.276020
2021.9, 0.276085
2022.69, 0.276150
2023.48, 0.275890
2024.27, 0.275825
2025.06, 0.276020
2025.85, 0.276215
2026.64, 0.276280
2027.44, 0.276280
2028.23, 0.276345
2029.02, 0.276280
2029.82, 0.276085
2030.61, 0.276085
2031.41, 0.275955
2032.2, 0.275890
2033.0, 0.275890
2033.8, 0.275955
2034.6, 0.275955
2035.4, 0.276085
2036.2, 0.276280
2037.0, 0.276150
2037.8, 0.276085
2038.6, 0.276020
2039.4, 0.276085
2040.2, 0.276215
2041.01, 0.276085
2041.81, 0.276020
2042.61, 0.275955
2043.42, 0.275890
2044.22, 0.275825
2045.03, 0.275890
2045.84, 0.275955
2046.65, 0.275955
2047.46, 0.275825
2048.26, 0.275760
2049.07, 0.275890
2049.88, 0.275825
2050.69, 0.275695
2051.51, 0.275760
2052.32, 0.275695
2053.13, 0.275565
2053.94, 0.275435
2054.76, 0.275305
2055.57, 0.275435
2056.39, 0.275305
2057.2, 0.275110
2058.02, 0.275240
2058.84, 0.275175
2059.66, 0.274850
2060.48, 0.274850
2061.29, 0.274915
2062.11, 0.274720
2062.94, 0.274460
2063.76, 0.274460
2064.58, 0.274395
2065.4, 0.274135
2066.22, 0.274200
2067.05, 0.273940
2067.87, 0.273486
2068.7, 0.273486
2069.52, 0.273421
2070.35, 0.273421
2071.18, 0.273226
2072.0, 0.272836
2072.83, 0.272641
2073.66, 0.272641
2074.49, 0.272576
2075.32, 0.272511
2076.15, 0.272316
2076.98, 0.271926
2077.82, 0.271666
2078.65, 0.271666
2079.48, 0.271341
2080.32, 0.271211
2081.15, 0.271146
2081.99, 0.271016
2082.83, 0.270822
2083.66, 0.270757
2084.5, 0.270757
2085.34, 0.270757
2086.18, 0.270627
2087.02, 0.270432
2087.86, 0.270302
2088.7, 0.270172
2089.54, 0.270172
2090.39, 0.270302
2091.23, 0.270042
2092.07, 0.269782
2092.92, 0.269327
2093.76, 0.269132
2094.61, 0.269327
2095.45, 0.269392
2096.3, 0.269327
2097.15, 0.269002
2098.0, 0.268872
2098.85, 0.268872
2099.7, 0.268742
2100.55, 0.268612
2101.4, 0.268612
2102.25, 0.268677
2103.1, 0.268482
2103.96, 0.268417
2104.81, 0.268417
2105.67, 0.268158
2106.52, 0.267833
2107.38, 0.267638
2108.24, 0.267443
2109.09, 0.267573
2109.95, 0.267703
2110.81, 0.267768
2111.67, 0.267443
2112.53, 0.267313
2113.39, 0.267313
2114.25, 0.267118
2115.12, 0.266988
2115.98, 0.266988
2116.84, 0.267053
2117.71, 0.267053
2118.58, 0.266988
2119.44, 0.266858
2120.31, 0.266728
2121.18, 0.266663
2122.04, 0.266533
2122.91, 0.266468
2123.78, 0.266403
2124.65, 0.266338
2125.52, 0.266338
2126.4, 0.266533
2127.27, 0.266663
2128.14, 0.266598
2129.02, 0.266338
2129.89, 0.266208
2130.77, 0.266078
2131.64, 0.266468
2132.52, 0.266728
2133.4, 0.266468
2134.27, 0.266143
2135.15, 0.266273
2136.03, 0.266338
2136.91, 0.266338
2137.79, 0.266208
2138.68, 0.266338
2139.56, 0.266273
2140.44, 0.266208
2141.33, 0.265793
2142.21, 0.265377
2143.1, 0.264843
2143.99, 0.264903
2144.87, 0.265377
2145.76, 0.265911
2146.65, 0.265911
2147.54, 0.265615
2148.43, 0.265555
2149.32, 0.265496
2150.21, 0.264903
2151.1, 0.264843
2151.99, 0.264606
2152.89, 0.264250
2153.78, 0.263894
2154.68, 0.263775
2155.57, 0.263478
2156.47, 0.262885
2157.37, 0.262885
2158.27, 0.263241
2159.16, 0.262707
2160.06, 0.261698
2160.96, 0.261105
2161.86, 0.260927
2162.77, 0.261105
2163.67, 0.261283
2164.57, 0.261164
2165.48, 0.261105
2166.38, 0.260096
2167.29, 0.259621
2168.2, 0.259562
2169.1, 0.258969
2170.01, 0.257841
2170.92, 0.257248
2171.83, 0.256773
2172.74, 0.256417
2173.65, 0.256179
2174.56, 0.255230
2175.47, 0.253806
2176.39, 0.252916
2177.3, 0.252797
2178.22, 0.252085
2179.13, 0.250779
2180.05, 0.250067
2180.96, 0.248999
2181.88, 0.247278
2182.8, 0.245973
2183.72, 0.245676
2184.64, 0.244904
2185.56, 0.243065
2186.48, 0.241641
2187.41, 0.240098
2188.33, 0.237961
2189.25, 0.236240
2190.18, 0.234816
2191.1, 0.233214
2192.03, 0.231078
2192.96, 0.228763
2193.89, 0.226390
2194.82, 0.223719
2195.74, 0.221405
2196.68, 0.219506
2197.61, 0.216064
2198.54, 0.213156
2199.47, 0.211495
2200.4, 0.209240
2201.34, 0.206451
2202.28, 0.204196
2203.21, 0.202416
2204.15, 0.200339
2205.08, 0.199033
2206.02, 0.199389
2206.96, 0.199211
2207.9, 0.198855
2208.84, 0.199330
2209.78, 0.200101
2210.73, 0.200339
2211.67, 0.201229
2212.61, 0.202178
2213.56, 0.203484
2214.5, 0.204908
2215.45, 0.206213
2216.4, 0.207816
2217.35, 0.209062
2218.3, 0.210427
2219.24, 0.212504
2220.2, 0.214343
2221.15, 0.216064
2222.1, 0.217429
2223.05, 0.219209
2224.0, 0.220930
2224.96, 0.222117
2225.91, 0.223660
2226.87, 0.225322
2227.83, 0.226627
2228.79, 0.227577
2229.74, 0.228467
2230.7, 0.229535
2231.66, 0.230840
2232.63, 0.232146
2233.59, 0.233214
2234.55, 0.233926
2235.51, 0.234876
2236.48, 0.235469
2237.44, 0.236181
2238.41, 0.237546
2239.38, 0.238495
2240.34, 0.239030
2241.31, 0.239386
2242.28, 0.240454
2243.25, 0.240929
2244.22, 0.241225
2245.19, 0.241759
2246.17, 0.241997
2247.14, 0.241997
2248.12, 0.242115
2249.09, 0.242353
2250.07, 0.242768
2251.04, 0.243302
2252.02, 0.243302
2253.0, 0.243302
2253.98, 0.243362
2254.96, 0.243184
2255.94, 0.243243
2256.92, 0.243302
2257.91, 0.243540
2258.89, 0.243658
2259.88, 0.243896
2260.86, 0.243896
2261.85, 0.244192
2262.83, 0.244548
2263.82, 0.244726
2264.81, 0.244489
2265.8, 0.244489
2266.79, 0.244311
2267.78, 0.244430
2268.78, 0.244311
2269.77, 0.243480
2270.76, 0.243184
2271.76, 0.243540
2272.75, 0.243658
2273.75, 0.243480
2274.75, 0.243302
2275.75, 0.243184
2276.75, 0.242827
2277.75, 0.242590
2278.75, 0.242531
2279.75, 0.242709
2280.75, 0.242768
2281.76, 0.242649
2282.76, 0.242115
2283.77, 0.241759
2284.77, 0.241759
2285.78, 0.241937
2286.79, 0.241463
2287.8, 0.241285
2288.81, 0.241107
2289.82, 0.240750
2290.83, 0.240869
2291.84, 0.240394
2292.86, 0.239920
2293.87, 0.239920
2294.89, 0.239801
2295.91, 0.239386
2296.92, 0.238733
2297.94, 0.238674
2298.96, 0.238377
2299.98, 0.238139
2301.0, 0.237665
2302.02, 0.237427
2303.04, 0.236953
2304.07, 0.236656
2305.09, 0.236359
2306.12, 0.235588
2307.15, 0.235054
2308.17, 0.234876
2309.2, 0.234638
2310.23, 0.233986
2311.26, 0.232977
2312.29, 0.231790
2313.32, 0.230662
2314.35, 0.229832
2315.39, 0.229060
2316.42, 0.228882
2317.46, 0.228407
2318.5, 0.227636
2319.53, 0.227042
2320.57, 0.225856
2321.61, 0.224847
2322.65, 0.224372
2323.69, 0.223482
2324.73, 0.222532
2325.78, 0.221583
2326.82, 0.220693
2327.86, 0.220040
2328.91, 0.219150
2329.96, 0.218438
2331.01, 0.217963
2332.05, 0.217310
2333.1, 0.216598
2334.15, 0.216242
2335.21, 0.215530
2336.26, 0.214759
2337.31, 0.214462
2338.36, 0.213691
2339.42, 0.212741
2340.48, 0.212148
2341.53, 0.211673
2342.59, 0.210723
2343.65, 0.209893
2344.71, 0.208646
2345.77, 0.207816
2346.83, 0.207578
2347.9, 0.207104
2348.96, 0.206569
2350.02, 0.206273
2351.09, 0.206213
2352.16, 0.206154
2353.23, 0.205976
2354.29, 0.205857
2355.36, 0.205679
2356.43, 0.206035
2357.51, 0.206391
2358.58, 0.206332
2359.65, 0.206095
2360.73, 0.206332
2361.8, 0.206451
2362.88, 0.206629
2363.96, 0.207104
2365.03, 0.207519
2366.11, 0.207400
2367.19, 0.207341
2368.27, 0.207104
2369.36, 0.206985
2370.44, 0.206807
2371.53, 0.206629
2372.61, 0.206748
2373.7, 0.206629
2374.78, 0.206332
2375.87, 0.206213
2376.96, 0.206154
2378.05, 0.205679
2379.14, 0.204849
2380.24, 0.204789
2381.33, 0.204730
2382.42, 0.204730
2383.52, 0.204255
2384.61, 0.204018
2385.71, 0.203721
2386.81, 0.203958
2387.91, 0.204136
2389.01, 0.203958
2390.11, 0.203780
2391.22, 0.203721
2392.32, 0.203958
2393.42, 0.203484
2394.53, 0.203009
2395.64, 0.203484
2396.74, 0.203365
2397.85, 0.202772
2398.96, 0.202950
2400.07, 0.203306
2401.18, 0.202831
2402.3, 0.202475
2403.41, 0.202475
2404.52, 0.202238
2405.64, 0.201941
2406.76, 0.201703
2407.88, 0.201525
2408.99, 0.201051
2410.11, 0.200398
2411.23, 0.200161
2412.36, 0.199864
2413.48, 0.199508
2414.6, 0.199152
2415.73, 0.198796
2416.85, 0.198143
2417.98, 0.197431
2419.11, 0.196897
2420.24, 0.196600
2421.37, 0.196007
2422.5, 0.195473
2423.64, 0.195117
2424.77, 0.194523
2425.9, 0.193514
2427.04, 0.193040
2428.18, 0.192683
2429.31, 0.192268
2430.45, 0.191675
2431.59, 0.191259
2432.73, 0.190725
2433.88, 0.190369
2435.02, 0.189776
2436.16, 0.189242
2437.31, 0.188886
2438.45, 0.188530
2439.6, 0.188292
2440.75, 0.188648
2441.9, 0.188411
2443.05, 0.187936
2444.2, 0.187936
2445.35, 0.187699
2446.51, 0.187877
2447.67, 0.188055
2448.82, 0.188055
2449.98, 0.188292
2451.14, 0.188470
2452.3, 0.188530
2453.46, 0.188708
2454.62, 0.188886
2455.78, 0.188648
2456.94, 0.189182
2458.11, 0.189479
2459.28, 0.189123
2460.44, 0.189123
2461.61, 0.189716
2462.78, 0.189776
2463.95, 0.189776
2465.12, 0.190013
2466.3, 0.190725
2467.47, 0.190963
2468.65, 0.190725
2469.82, 0.190903
2471.0, 0.191437
2472.18, 0.191556
2473.36, 0.191615
2474.54, 0.191734
2475.72, 0.191675
2476.9, 0.191378
2478.08, 0.191378
2479.27, 0.191734
2480.46, 0.191853
2481.64, 0.191675
2482.83, 0.191734
2484.02, 0.191971
2485.21, 0.191971
2486.4, 0.192031
2487.6, 0.192387
2488.79, 0.192387
2489.99, 0.192327
2491.18, 0.192327
2492.38, 0.191971
2493.58, 0.191793
2494.78, 0.191734
2495.98, 0.191734
2497.18, 0.191437
2498.39, 0.191319
2499.59, 0.191319
2500.8, 0.191259
2502.01, 0.190963
2503.21, 0.190607
2504.42, 0.190488
2505.63, 0.190310
2506.84, 0.189894
2508.06, 0.189716
2509.27, 0.189598
2510.49, 0.189242
2511.7, 0.188945
2512.92, 0.188530
2514.14, 0.188173
2515.36, 0.187877
2516.58, 0.187461
2517.8, 0.187046
2519.03, 0.186749
2520.25, 0.186393
2521.48, 0.186215
2522.7, 0.185740
2523.93, 0.185444
2525.16, 0.185503
2526.39, 0.185444
2527.62, 0.185147
2528.86, 0.184732
2530.09, 0.184613
2531.33, 0.184316
2532.56, 0.183782
2533.8, 0.183604
2535.04, 0.183782
2536.28, 0.183485
2537.52, 0.183070
2538.76, 0.183307
2540.01, 0.183485
2541.25, 0.183545
2542.5, 0.182951
2543.75, 0.182655
2544.99, 0.182655
2546.24, 0.182773
2547.49, 0.182417
2548.75, 0.182239
2550.0, 0.182299
2551.26, 0.182061
2552.51, 0.181824
2553.77, 0.182180
2555.03, 0.182477
2556.29, 0.182239
2557.55, 0.182002
2558.81, 0.182121
2560.08, 0.182061
2561.34, 0.181171
2562.61, 0.180934
2563.88, 0.181171
2565.14, 0.181171
2566.41, 0.181468
2567.68, 0.181349
2568.96, 0.181290
2570.23, 0.180637
2571.51, 0.180934
2572.78, 0.181112
2574.06, 0.180044
2575.34, 0.180222
2576.62, 0.180222
2577.9, 0.180044
2579.18, 0.180637
2580.47, 0.180400
2581.75, 0.179984
2583.04, 0.180103
2584.32, 0.178916
2585.61, 0.179450
2586.9, 0.179332
2588.2, 0.178738
2589.49, 0.179035
2590.78, 0.179332
2592.08, 0.179628
2593.37, 0.179569
2594.67, 0.177373
2595.97, 0.176424
2597.27, 0.178441
2598.57, 0.179450
2599.88, 0.179450
2601.18, 0.179272
2602.49, 0.179094
2603.79, 0.179035
2605.1, 0.178323
2606.41, 0.177195
2607.72, 0.178026
2609.03, 0.178441
2610.35, 0.178382
2611.66, 0.178797
2612.98, 0.178441
2614.3, 0.177967
2615.62, 0.177967
2616.94, 0.176246
2618.26, 0.176186
2619.58, 0.177017
2620.91, 0.175652
2622.23, 0.175652
2623.56, 0.176246
2624.89, 0.176542
2626.22, 0.175712
2627.55, 0.174822
2628.88, 0.175771
2630.21, 0.174406
2631.55, 0.173101
2632.89, 0.173872
2634.22, 0.173397
2635.56, 0.172923
2636.9, 0.172745
2638.25, 0.172567
2639.59, 0.172507
2640.93, 0.172210
2642.28, 0.171380
2643.63, 0.170846
2644.98, 0.170371
2646.33, 0.169481
2647.68, 0.169125
2649.03, 0.168769
2650.39, 0.168591
2651.74, 0.168057
2653.1, 0.166988
2654.46, 0.166692
2655.82, 0.166098
2657.18, 0.165683
2658.54, 0.165386
2659.9, 0.164793
2661.27, 0.164496
2662.64, 0.164259
2664.01, 0.163725
2665.38, 0.162182
2666.74, 0.161173
2668.12, 0.161351
2669.49, 0.161944
2670.87, 0.159215
2672.24, 0.158918
2673.62, 0.159393
2675.0, 0.159037
2676.38, 0.157434
2677.76, 0.156129
2679.15, 0.155120
2680.54, 0.154171
2681.92, 0.153636
2683.31, 0.152331
2684.7, 0.150551
2686.09, 0.148830
2687.48, 0.146753
2688.88, 0.144379
2690.27, 0.141234
2691.67, 0.137317
2693.07, 0.131680
2694.47, 0.124381
2695.87, 0.116370
2697.27, 0.108180
2698.67, 0.100585
2700.08, 0.0939380
2701.49, 0.0881230
2702.9, 0.0835540
2704.31, 0.0801120
2705.72, 0.0776190
2707.13, 0.0758390
2708.54, 0.0744740
2709.96, 0.0734060
2711.38, 0.0720410
2712.8, 0.0710920
2714.22, 0.0704390
2715.64, 0.0691330
2717.06, 0.0675910
2718.49, 0.0663440
2719.91, 0.0649790
2721.34, 0.0627840
2722.77, 0.0618940
2724.2, 0.0604690
2725.63, 0.0588670
2727.07, 0.0577400
2728.5, 0.0566720
2729.94, 0.0558410
2731.38, 0.0550100
2732.82, 0.0542390
2734.26, 0.0534670
2735.7, 0.0528140
2737.15, 0.0529330
2738.59, 0.0525770
2740.04, 0.0514500
2741.49, 0.0507970
2742.94, 0.0506190
2744.39, 0.0502630
2745.84, 0.0501440
2747.3, 0.0499660
2748.76, 0.0495510
2750.21, 0.0491950
2751.67, 0.0489570
2753.14, 0.0486010
2754.6, 0.0482450
2756.06, 0.0472960
2757.53, 0.0473550
2759.0, 0.0478300
2760.46, 0.0483640
2761.94, 0.0483640
2763.41, 0.0480080
2764.88, 0.0480080
2766.36, 0.0484230
2767.83, 0.0484820
2769.31, 0.0484230
2770.79, 0.0484820
2772.27, 0.0487200
2773.76, 0.0490760
2775.24, 0.0491950
2776.73, 0.0493130
2778.22, 0.0495510
2779.71, 0.0496100
2781.2, 0.0496100
2782.69, 0.0497290
2784.18, 0.0500850
2785.68, 0.0503810
2787.18, 0.0503810
2788.68, 0.0503220
2790.18, 0.0505590
2791.68, 0.0509150
2793.19, 0.0512710
2794.69, 0.0520430
2796.2, 0.0529330
2797.71, 0.0534670
2799.22, 0.0540610
2800.73, 0.0547730
2802.24, 0.0553660
2803.76, 0.0558410
2805.28, 0.0560780
2806.8, 0.0569090
2808.32, 0.0586300
2809.84, 0.0609440
2811.36, 0.0633770
2812.89, 0.0659880
2814.42, 0.0684210
2815.94, 0.0704980
2817.48, 0.0722190
2819.01, 0.0735840
2820.54, 0.0744150
2822.08, 0.0751270
2823.61, 0.0756610
2825.15, 0.0761360
2826.69, 0.0766700
2828.23, 0.0767290
2829.78, 0.0766700
2831.32, 0.0766110
2832.87, 0.0767290
2834.42, 0.0769070
2835.97, 0.0770260
2837.52, 0.0770260
2839.08, 0.0769670
2840.63, 0.0772630
2842.19, 0.0775010
2843.75, 0.0773230
2845.31, 0.0770850
2846.87, 0.0771450
2848.44, 0.0773230
2850.0, 0.0773230
2851.57, 0.0773230
2853.14, 0.0776190
2854.71, 0.0776790
2856.28, 0.0775010
2857.86, 0.0775010
2859.43, 0.0776790
2861.01, 0.0779160
2862.59, 0.0781530
2864.17, 0.0784500
2865.76, 0.0785090
2867.34, 0.0785090
2868.93, 0.0786870
2870.52, 0.0792810
2872.11, 0.0795780
2873.7, 0.0798740
2875.29, 0.0801710
2876.89, 0.0801710
2878.49, 0.0805860
2880.08, 0.0809420
2881.69, 0.0812390
2883.29, 0.0815950
2884.89, 0.0818920
2886.5, 0.0821890
2888.11, 0.0823670
2889.72, 0.0824850
2891.33, 0.0826630
2892.94, 0.0829600
2894.56, 0.0834350
2896.17, 0.0836720
2897.79, 0.0835540
2899.42, 0.0838500
2901.04, 0.0842060
2902.66, 0.0844440
2904.29, 0.0843840
2905.92, 0.0843840
2907.55, 0.0846220
2909.18, 0.0848590
2910.81, 0.0850370
2912.45, 0.0851560
2914.08, 0.0852150
2915.72, 0.0855710
2917.36, 0.0856300
2919.01, 0.0857490
2920.65, 0.0860460
2922.3, 0.0861650
2923.94, 0.0861650
2925.59, 0.0861650
2927.25, 0.0861050
2928.9, 0.0862830
2930.56, 0.0864020
2932.21, 0.0861650
2933.87, 0.0861050
2935.53, 0.0863430
2937.2, 0.0866390
2938.86, 0.0869360
2940.53, 0.0869950
2942.2, 0.0869360
2943.87, 0.0869950
2945.54, 0.0869950
2947.22, 0.0870550
2948.89, 0.0873510
2950.57, 0.0875290
2952.25, 0.0875890
2953.93, 0.0877070
2955.62, 0.0878850
2957.3, 0.0878260
2958.99, 0.0879450
2960.68, 0.0881230
2962.37, 0.0883010
2964.07, 0.0883010
2965.76, 0.0881820
2967.46, 0.0884200
2969.16, 0.0885980
2970.86, 0.0885980
2972.56, 0.0886570
2974.27, 0.0888940
2975.98, 0.0888350
2977.69, 0.0888350
2979.4, 0.0888350
2981.11, 0.0886570
2982.83, 0.0887760
2984.54, 0.0890720
2986.26, 0.0893100
2987.98, 0.0894280
2989.71, 0.0892500
2991.43, 0.0890720
2993.16, 0.0893100
2994.89, 0.0894280
2996.62, 0.0893690
2998.35, 0.0892500
3000.09, 0.0892500
3001.83, 0.0892500
3003.57, 0.0890130
3005.31, 0.0889540
3007.05, 0.0891320
3008.79, 0.0892500
3010.54, 0.0890720
3012.29, 0.0889540
3014.04, 0.0886570
3015.8, 0.0884200
3017.55, 0.0884790
3019.31, 0.0881820
3021.07, 0.0878850
3022.83, 0.0877070
3024.59, 0.0878260
3026.36, 0.0875890
3028.13, 0.0874110
3029.9, 0.0872920
3031.67, 0.0871140
3033.44, 0.0868770
3035.22, 0.0867580
3037.0, 0.0865210
3038.78, 0.0862830
3040.56, 0.0861050
3042.34, 0.0861050
3044.13, 0.0860460
3045.92, 0.0859270
3047.71, 0.0858090
3049.5, 0.0857490
3051.3, 0.0858680
3053.09, 0.0858680
3054.89, 0.0857490
3056.69, 0.0858680
3058.5, 0.0859270
3060.3, 0.0858680
3062.11, 0.0858090
3063.92, 0.0859870
3065.73, 0.0861650
3067.55, 0.0863430
3069.36, 0.0865210
3071.18, 0.0867580
3073.0, 0.0868770
3074.82, 0.0871140
3076.65, 0.0872330
3078.48, 0.0873510
3080.31, 0.0875890
3082.14, 0.0878850
3083.97, 0.0880040
3085.8, 0.0883010
3087.64, 0.0884790
3089.48, 0.0888940
3091.33, 0.0891910
3093.17, 0.0892500
3095.02, 0.0894280
3096.87, 0.0897250
3098.72, 0.0900810
3100.57, 0.0906150
3102.43, 0.0910310
3104.28, 0.0914460
3106.14, 0.0918610
3108.01, 0.0920990
3109.87, 0.0922770
3111.74, 0.0925740
3113.61, 0.0929890
3115.48, 0.0934640
3117.35, 0.0938200
3119.23, 0.0941760
3121.1, 0.0945910
3122.98, 0.0948290
3124.87, 0.0951250
3126.75, 0.0956000
3128.64, 0.0958970
3130.53, 0.0961340
3132.42, 0.0964310
3134.31, 0.0968460
3136.21, 0.0972020
3138.11, 0.0974400
3140.01, 0.0977360
3141.91, 0.0981520
3143.82, 0.0984480
3145.73, 0.0987450
3147.64, 0.0991010
3149.55, 0.0995170
3151.46, 0.0998130
3153.38, 0.100110
3155.3, 0.100347
3157.22, 0.100644
3159.14, 0.101059
3161.07, 0.101534
3163.0, 0.101950
3164.93, 0.102246
3166.86, 0.102484
3168.8, 0.102840
3170.74, 0.103136
3172.68, 0.103374
3174.62, 0.103789
3176.56, 0.104086
3178.51, 0.104264
3180.46, 0.104679
3182.42, 0.105035
3184.37, 0.105273
3186.33, 0.105688
3188.29, 0.106103
3190.25, 0.106282
3192.21, 0.106578
3194.18, 0.106816
3196.15, 0.106994
3198.12, 0.107350
3200.09, 0.107706
3202.07, 0.108002
3204.05, 0.108240
3206.03, 0.108537
3208.02, 0.108952
3210.0, 0.109189
3211.99, 0.109308
3213.98, 0.109427
3215.98, 0.109545
3217.97, 0.109842
3219.97, 0.110139
3221.97, 0.110376
3223.98, 0.110554
3225.98, 0.110673
3227.99, 0.110970
3230.0, 0.111207
3232.02, 0.111385
3234.03, 0.111622
3236.05, 0.111800
3238.07, 0.111978
3240.1, 0.112216
3242.12, 0.112631
3244.15, 0.112868
3246.18, 0.112928
3248.22, 0.113165
3250.25, 0.113462
3252.29, 0.113759
3254.33, 0.113818
3256.38, 0.114055
3258.43, 0.114293
3260.47, 0.114471
3262.53, 0.114708
3264.58, 0.114945
3266.64, 0.115183
3268.7, 0.115598
3270.76, 0.116014
3272.82, 0.116310
3274.89, 0.116370
3276.96, 0.116488
3279.04, 0.116785
3281.11, 0.116904
3283.19, 0.117022
3285.27, 0.117200
3287.35, 0.117438
3289.44, 0.117853
3291.53, 0.117972
3293.62, 0.118091
3295.71, 0.118209
3297.81, 0.118387
3299.91, 0.118625
3302.01, 0.118803
3304.11, 0.118981
3306.22, 0.119099
3308.33, 0.119218
3310.44, 0.119396
3312.56, 0.119515
3314.68, 0.119693
3316.8, 0.119752
3318.92, 0.119811
3321.05, 0.120108
3323.18, 0.120227
3325.31, 0.120405
3327.44, 0.120524
3329.58, 0.120702
3331.72, 0.120642
3333.86, 0.120405
3336.01, 0.120464
3338.16, 0.120583
3340.31, 0.120464
3342.46, 0.120346
3344.61, 0.120642
3346.77, 0.120820
3348.94, 0.120642
3351.1, 0.120524
3353.27, 0.120524
3355.44, 0.120464
3357.61, 0.120346
3359.79, 0.120346
3361.97, 0.120227
3364.15, 0.120108
3366.33, 0.120049
3368.52, 0.119811
3370.71, 0.119633
3372.9, 0.119515
3375.1, 0.119633
3377.3, 0.119693
3379.5, 0.119633
3381.71, 0.119633
3383.91, 0.119574
3386.12, 0.119455
3388.34, 0.119693
3390.55, 0.119811
3392.77, 0.119871
3394.99, 0.119871
3397.22, 0.119752
3399.45, 0.119633
3401.68, 0.119396
3403.91, 0.119099
3406.15, 0.118921
3408.39, 0.118684
3410.63, 0.118565
3412.87, 0.118447
3415.12, 0.118447
3417.37, 0.118684
3419.63, 0.119159
3421.88, 0.119633
3424.14, 0.120049
3426.41, 0.120524
3428.67, 0.121058
3430.94, 0.121473
3433.21, 0.121948
3435.49, 0.122363
3437.77, 0.122719
3440.05, 0.123075
3442.33, 0.123431
3444.62, 0.123669
3446.91, 0.123847
3449.2, 0.124084
3451.5, 0.124203
3453.8, 0.124262
3456.1, 0.124440
3458.41, 0.124678
3460.72, 0.124915
3463.03, 0.125034
3465.34, 0.124974
3467.66, 0.124974
3469.98, 0.124856
3472.31, 0.124796
3474.63, 0.124618
3476.96, 0.124321
3479.3, 0.124084
3481.64, 0.123965
3483.97, 0.124143
3486.32, 0.124084
3488.66, 0.123906
3491.01, 0.123669
3493.36, 0.123313
3495.72, 0.122957
3498.08, 0.122601
3500.44, 0.122423
3502.81, 0.122541
3505.18, 0.122779
3507.55, 0.123194
3509.92, 0.123550
3512.3, 0.123965
3514.68, 0.124440
3517.06, 0.124856
3519.45, 0.125212
3521.84, 0.125508
3524.24, 0.125746
3526.64, 0.125983
3529.04, 0.126280
3531.44, 0.126458
3533.85, 0.126636
3536.26, 0.126933
3538.67, 0.127229
3541.09, 0.127348
3543.51, 0.127526
3545.93, 0.127704
3548.36, 0.127645
3550.79, 0.127823
3553.22, 0.128060
3555.66, 0.128238
3558.1, 0.128416
3560.54, 0.128594
3562.99, 0.128594
3565.44, 0.128713
3567.9, 0.128950
3570.35, 0.129010
3572.81, 0.129069
3575.28, 0.129128
3577.75, 0.129247
3580.22, 0.129484
3582.69, 0.129603
3585.17, 0.129722
3587.65, 0.129840
3590.14, 0.129959
3592.62, 0.130018
3595.11, 0.130137
3597.61, 0.130137
3600.11, 0.130078
3602.61, 0.130078
3605.11, 0.130196
3607.62, 0.130374
3610.14, 0.130434
3612.65, 0.130374
3615.17, 0.130552
3617.69, 0.130552
3620.22, 0.130493
3622.75, 0.130552
3625.28, 0.130612
3627.82, 0.130552
3630.36, 0.130552
3632.9, 0.130552
3635.45, 0.130612
3638.0, 0.130671
3640.56, 0.130790
3643.12, 0.130730
3645.68, 0.130612
3648.24, 0.130493
3650.81, 0.130493
3653.39, 0.130552
3655.96, 0.130552
3658.54, 0.130493
3661.13, 0.130374
3663.71, 0.130315
3666.3, 0.130256
3668.9, 0.130078
3671.5, 0.129900
3674.1, 0.129900
3676.7, 0.130018
3679.31, 0.129900
3681.93, 0.129722
3684.54, 0.129840
3687.17, 0.129900
3689.79, 0.129840
3692.42, 0.129900
3695.05, 0.129662
3697.69, 0.129366
3700.32, 0.129366
3702.97, 0.129306
3705.61, 0.129247
3708.27, 0.129188
3710.92, 0.129069
3713.58, 0.129010
3716.24, 0.129069
3718.91, 0.129069
3721.58, 0.128891
3724.25, 0.128713
3726.93, 0.128653
3729.61, 0.128653
3732.29, 0.128594
3734.98, 0.128535
3737.67, 0.128535
3740.37, 0.128416
3743.07, 0.128357
3745.78, 0.128357
3748.49, 0.128297
3751.2, 0.128297
3753.91, 0.128238
3756.63, 0.128179
3759.36, 0.128119
3762.09, 0.128119
3764.82, 0.128060
3767.55, 0.127941
3770.29, 0.127882
3773.04, 0.127823
3775.78, 0.127704
3778.54, 0.127704
3781.29, 0.127763
3784.05, 0.127704
3786.82, 0.127526
3789.59, 0.127407
3792.36, 0.127289
3795.13, 0.127229
3797.92, 0.127289
3800.7, 0.127289
3803.49, 0.127289
3806.28, 0.127289
3809.08, 0.127229
3811.88, 0.126992
3814.68, 0.126695
3817.49, 0.126695
3820.31, 0.126636
3823.12, 0.126458
3825.94, 0.126280
3828.77, 0.126280
3831.6, 0.126161
3834.43, 0.126161
3837.27, 0.125924
3840.11, 0.125686
3842.96, 0.125568
3845.81, 0.125330
3848.67, 0.125271
3851.53, 0.125271
3854.39, 0.125152
3857.26, 0.124796
3860.13, 0.124500
3863.01, 0.124381
3865.89, 0.124203
3868.77, 0.124143
3871.66, 0.124025
3874.55, 0.123906
3877.45, 0.123728
3880.35, 0.123431
3883.26, 0.123253
3886.17, 0.123135
3889.09, 0.122957
3892.01, 0.122779
3894.93, 0.122660
3897.86, 0.122541
3900.79, 0.122423
3903.73, 0.122304
3906.67, 0.122126
3909.62, 0.121948
3912.57, 0.121770
3915.52, 0.121592
3918.48, 0.121532
3921.45, 0.121651
3924.42, 0.121651
3927.39, 0.121473
3930.37, 0.121236
3933.35, 0.121117
3936.34, 0.120998
3939.33, 0.120939
3942.32, 0.120761
3945.32, 0.120702
3948.33, 0.120702
3951.34, 0.120583
3954.35, 0.120524
3957.37, 0.120464
3960.39, 0.120346
3963.42, 0.120168
3966.45, 0.120108
3969.49, 0.120168
3972.53, 0.119990
3975.58, 0.119811
3978.63, 0.119752
3981.68, 0.119752
3984.75, 0.119574
3987.81, 0.119396
3990.88, 0.119218
3993.95, 0.119159
3997.03, 0.119040
4000.12, 0.118862
4003.21, 0.118743
4006.3, 0.118743
4009.4, 0.118625
4012.5, 0.118447
4015.61, 0.118387
4018.72, 0.118328
4021.84, 0.118328
4024.96, 0.118150
4028.09, 0.118031
4031.22, 0.117913
4034.36, 0.117794
4037.5, 0.117794
4040.65, 0.117735
4043.8, 0.117616
4046.96, 0.117497
4050.12, 0.117556
4053.29, 0.117438
4056.46, 0.117378
4059.64, 0.117319
4062.82, 0.117200
4066.0, 0.117082
4069.19, 0.117022
4072.39, 0.117022
4075.59, 0.116844
4078.8, 0.116726
4082.01, 0.116785
4085.23, 0.116726
4088.45, 0.116607
4091.68, 0.116488
4094.91, 0.116370
4098.15, 0.116251
4101.39, 0.116192
4104.63, 0.116132
4107.89, 0.116073
4111.14, 0.115954
4114.41, 0.115895
4117.67, 0.115836
4120.95, 0.115776
4124.23, 0.115598
4127.51, 0.115420
4130.8, 0.115420
4134.09, 0.115480
4137.39, 0.115302
4140.7, 0.115183
4144.01, 0.115123
4147.32, 0.115064
4150.64, 0.114945
4153.97, 0.114767
4157.3, 0.114589
4160.64, 0.114649
4163.98, 0.114649
4167.33, 0.114530
4170.68, 0.114411
4174.04, 0.114411
4177.4, 0.114411
4180.77, 0.114411
4184.14, 0.114174
4187.52, 0.113996
4190.91, 0.113937
4194.3, 0.114115
4197.69, 0.114352
4201.1, 0.114589
4204.5, 0.114945
4207.92, 0.115598
4211.34, 0.116251
4214.76, 0.116963
4218.19, 0.117675
4221.62, 0.118387
4225.06, 0.118743
4228.51, 0.118921
4231.96, 0.119040
4235.42, 0.118981
4238.88, 0.118743
4242.35, 0.118387
4245.83, 0.117616
4249.31, 0.116548
4252.79, 0.115064
4256.28, 0.114115
4259.78, 0.114471
4263.29, 0.115361
4266.79, 0.115836
4270.31, 0.115895
4273.83, 0.115895
4277.35, 0.115717
4280.89, 0.115420
4284.42, 0.115242
4287.97, 0.115005
4291.52, 0.114649
4295.07, 0.114233
4298.63, 0.113759
4302.2, 0.113403
4305.78, 0.112987
4309.35, 0.112394
4312.94, 0.111978
4316.53, 0.111563
4320.13, 0.111207
4323.73, 0.110851
4327.34, 0.110317
4330.96, 0.109783
4334.58, 0.109486
4338.21, 0.109189
4341.84, 0.108833
4345.48, 0.108418
4349.12, 0.108121
4352.77, 0.107884
4356.43, 0.107706
4360.1, 0.107290
4363.76, 0.106934
4367.44, 0.106578
4371.12, 0.106222
4374.81, 0.105807
4378.51, 0.105332
4382.21, 0.104857
4385.92, 0.104323
4389.63, 0.103849
4393.35, 0.103433
4397.08, 0.102958
4400.81, 0.102365
4404.55, 0.101831
4408.29, 0.101237
4412.04, 0.100525
4415.8, 0.0998130
4419.57, 0.0992200
4423.34, 0.0986260
4427.12, 0.0980920
4430.9, 0.0974400
4434.69, 0.0967270
4438.49, 0.0960750
4442.29, 0.0954810
4446.1, 0.0948880
4449.92, 0.0942940
4453.74, 0.0937010
4457.57, 0.0931080
4461.41, 0.0925140
4465.25, 0.0919210
4469.1, 0.0913270
4472.95, 0.0906750
4476.82, 0.0900220
4480.69, 0.0894880
4484.56, 0.0889540
4488.44, 0.0884200
4492.33, 0.0877670
4496.23, 0.0871730
4500.13, 0.0865800
4504.04, 0.0860460
4507.96, 0.0854520
4511.88, 0.0849180
4515.81, 0.0843840
4519.75, 0.0838500
4523.69, 0.0833160
4527.65, 0.0826630
4531.6, 0.0821890
4535.57, 0.0817140
4539.54, 0.0812990
4543.52, 0.0807050
4547.5, 0.0801710
4551.5, 0.0796370
4555.5, 0.0791620
4559.5, 0.0788060
4563.52, 0.0783310
4567.54, 0.0777380
4571.56, 0.0773230
4575.6, 0.0768480
4579.64, 0.0763730
4583.69, 0.0759580
4587.75, 0.0755420
4591.81, 0.0749490
4595.88, 0.0745930
4599.96, 0.0741180
4604.04, 0.0735250
4608.14, 0.0730500
4612.24, 0.0725750
4616.34, 0.0721010
4620.46, 0.0715660
4624.58, 0.0710920
4628.71, 0.0704390
4632.84, 0.0698460
4636.99, 0.0693110
4641.14, 0.0687770
4645.3, 0.0681250
4649.47, 0.0675310
4653.64, 0.0669380
4657.82, 0.0665220
4662.01, 0.0661070
4666.21, 0.0656320
4670.41, 0.0650390
4674.62, 0.0645050
4678.84, 0.0639710
4683.07, 0.0634370
4687.3, 0.0629620
4691.54, 0.0624870
4695.79, 0.0619530
4700.05, 0.0614780
4704.31, 0.0611220
4708.59, 0.0606480
4712.87, 0.0601730
4717.15, 0.0596980
4721.45, 0.0591640
4725.76, 0.0586890
4730.07, 0.0583330
4734.39, 0.0579180
4738.72, 0.0575620
4743.05, 0.0572060
4747.39, 0.0568500
4751.75, 0.0566120
4756.1, 0.0563750
4760.47, 0.0560780
4764.85, 0.0557220
4769.23, 0.0554250
4773.62, 0.0552470
4778.02, 0.0551290
4782.43, 0.0548910
4786.85, 0.0547130
4791.27, 0.0545350
4795.7, 0.0544760
4800.14, 0.0543570
4804.59, 0.0543570
4809.05, 0.0543570
4813.51, 0.0541790
4817.99, 0.0540610
4822.47, 0.0541200
4826.96, 0.0541200
4831.46, 0.0540610
4835.96, 0.0540610
4840.48, 0.0541200
4845.0, 0.0541200
4849.54, 0.0541200
4854.08, 0.0541790
4858.63, 0.0541790
4863.18, 0.0541790
4867.75, 0.0542980
4872.33, 0.0542980
4876.91, 0.0542980
4881.5, 0.0544170
4886.1, 0.0544170
4890.71, 0.0545950
4895.33, 0.0546540
4899.96, 0.0546540
4904.59, 0.0546540
4909.24, 0.0547130
4913.89, 0.0547730
4918.55, 0.0548910
4923.22, 0.0551290
4927.9, 0.0551290
4932.59, 0.0552470
4937.29, 0.0554250
4942.0, 0.0554850
4946.71, 0.0554250
4951.44, 0.0554850
4956.17, 0.0556030
4960.91, 0.0556630
4965.67, 0.0558410
4970.43, 0.0559000
4975.2, 0.0559600
4979.98, 0.0560780
4984.76, 0.0562560
4989.56, 0.0563750
4994.37, 0.0563750
4999.18, 0.0563750
5004.01, 0.0564340
5008.84, 0.0563750
5013.69, 0.0563750
5018.54, 0.0563750
5023.4, 0.0564340
5028.28, 0.0564340
5033.16, 0.0564340
5038.05, 0.0563750
5042.95, 0.0562560
5047.86, 0.0562560
5052.78, 0.0562560
5057.71, 0.0561970
5062.65, 0.0561380
5067.6, 0.0560780
5072.56, 0.0559600
5077.53, 0.0559000
5082.5, 0.0558410
5087.49, 0.0556630
5092.49, 0.0553660
5097.5, 0.0550690
5102.51, 0.0548910
5107.54, 0.0545950
5112.58, 0.0541790
5117.62, 0.0536450
5122.68, 0.0530520
5127.75, 0.0524580
5132.82, 0.0518650
5137.91, 0.0511530
5143.01, 0.0504410
5148.12, 0.0497290
5153.23, 0.0489570
5158.36, 0.0482450
5163.5, 0.0474140
5168.65, 0.0464650
5173.81, 0.0456930
5178.98, 0.0448630
5184.15, 0.0440910
5189.34, 0.0434380
5194.54, 0.0429040
5199.75, 0.0422520
5204.98, 0.0416580
5210.21, 0.0410650
5215.45, 0.0405310
5220.7, 0.0399970
5225.96, 0.0395810
5231.23, 0.0392250
5236.52, 0.0388690
5241.81, 0.0384540
5247.12, 0.0379790
5252.44, 0.0376820
5257.76, 0.0374450
5263.1, 0.0371480
5268.45, 0.0369110
5273.81, 0.0367330
5279.18, 0.0364950
5284.56, 0.0361990
5289.95, 0.0361390
5295.36, 0.0360210
5300.77, 0.0359020
5306.2, 0.0357240
5311.63, 0.0355460
5317.08, 0.0353680
5322.54, 0.0353680
5328.01, 0.0351900
5333.49, 0.0351300
5338.98, 0.0350710
5344.49, 0.0350710
5350.0, 0.0351300
5355.53, 0.0350120
5361.07, 0.0348930
5366.62, 0.0347740
5372.18, 0.0347740
5377.75, 0.0346560
5383.34, 0.0345960
5388.93, 0.0345960
5394.54, 0.0344180
5400.16, 0.0343000
5405.79, 0.0342400
5411.44, 0.0341810
5417.09, 0.0341810
5422.76, 0.0340620
5428.43, 0.0339440
5434.12, 0.0338250
5439.83, 0.0337060
5445.54, 0.0335880
5451.26, 0.0335280
5457.0, 0.0334100
5462.75, 0.0332320
5468.52, 0.0329350
5474.29, 0.0328160
5480.08, 0.0326970
5485.88, 0.0326380
5491.69, 0.0326380
5497.51, 0.0326380
5503.35, 0.0325190
5509.2, 0.0323410
5515.06, 0.0323410
5520.93, 0.0322820
5526.82, 0.0321630
5532.71, 0.0321630
5538.63, 0.0322230
5544.55, 0.0322230
5550.49, 0.0322230
5556.44, 0.0321040
5562.4, 0.0319850
5568.37, 0.0319850
5574.36, 0.0319850
5580.36, 0.0318670
5586.37, 0.0318070
5592.4, 0.0318070
5598.44, 0.0317480
5604.49, 0.0316290
5610.56, 0.0315700
5616.63, 0.0315110
5622.73, 0.0314510
5628.83, 0.0314510
5634.95, 0.0314510
5641.08, 0.0314510
5647.23, 0.0313920
5653.39, 0.0313330
5659.56, 0.0312140
5665.74, 0.0311550
5671.94, 0.0312140
5678.15, 0.0311550
5684.38, 0.0312140
5690.62, 0.0312730
5696.87, 0.0313330
5703.14, 0.0314510
5709.42, 0.0315110
5715.72, 0.0316290
5722.03, 0.0316290
5728.35, 0.0316290
5734.69, 0.0316890
5741.03, 0.0316290
5747.4, 0.0316890
5753.78, 0.0317480
5760.17, 0.0318070
5766.58, 0.0316890
5773.0, 0.0316290
5779.44, 0.0316290
5785.88, 0.0314510
5792.35, 0.0313920
5798.83, 0.0313330
5805.32, 0.0312140
5811.83, 0.0311550
5818.35, 0.0310360
5824.89, 0.0308580
5831.45, 0.0307390
5838.01, 0.0306800
5844.59, 0.0305610
5851.19, 0.0305020
5857.8, 0.0305020
5864.43, 0.0303240
5871.07, 0.0301460
5877.73, 0.0301460
5884.4, 0.0299680
5891.09, 0.0300270
5897.79, 0.0298490
5904.5, 0.0297900
5911.23, 0.0297300
5917.98, 0.0296120
5924.75, 0.0296710
5931.53, 0.0297900
5938.32, 0.0296120
5945.13, 0.0294340
5951.96, 0.0293740
5958.8, 0.0293150
5965.65, 0.0293740
5972.53, 0.0293740
5979.42, 0.0293150
5986.32, 0.0293150
5993.24, 0.0293740
6000.18, 0.0293740
6007.13, 0.0294930
6014.1, 0.0295520
6021.08, 0.0293740
6028.09, 0.0293150
6035.1, 0.0293150
6042.14, 0.0295520
6049.19, 0.0295520
6056.25, 0.0293740
6063.34, 0.0296120
6070.44, 0.0296710
6077.55, 0.0296120
6084.69, 0.0295520
6091.84, 0.0296710
6099.0, 0.0297900
6106.19, 0.0299080
6113.39, 0.0299080
6120.61, 0.0299080
6127.84, 0.0299680
6135.09, 0.0300270
6142.36, 0.0301460
6149.65, 0.0302050
6156.95, 0.0303830
6164.27, 0.0303830
6171.61, 0.0303830
6178.97, 0.0304420
6186.34, 0.0303240
6193.73, 0.0303240
6201.14, 0.0304420
6208.57, 0.0305610
6216.01, 0.0306800
6223.47, 0.0306800
6230.95, 0.0307980
6238.45, 0.0309170
6245.97, 0.0309170
6253.5, 0.0308580
6261.06, 0.0308580
6268.63, 0.0308580
6276.21, 0.0308580
6283.82, 0.0308580
6291.45, 0.0307980
6299.1, 0.0307390
6306.76, 0.0306200
6314.44, 0.0305020
6322.14, 0.0304420
6329.86, 0.0304420
6337.6, 0.0304420
6345.35, 0.0302050
6353.13, 0.0301460
6360.92, 0.0301460
6368.74, 0.0300270
6376.57, 0.0299080
6384.43, 0.0298490
6392.3, 0.0298490
6400.19, 0.0299080
6408.1, 0.0297900
6416.03, 0.0294930
6423.98, 0.0293740
6431.95, 0.0292560
6439.94, 0.0291370
6447.95, 0.0291370
6455.98, 0.0290180
6464.03, 0.0289590
6472.1, 0.0286620
6480.19, 0.0284840
6488.31, 0.0284250
6496.44, 0.0283650
6504.59, 0.0282470
6512.76, 0.0281870
6520.95, 0.0280090
6529.16, 0.0279500
6537.4, 0.0279500
6545.65, 0.0279500
6553.92, 0.0278910
6562.22, 0.0278910
6570.54, 0.0277720
6578.88, 0.0276530
6587.23, 0.0275940
6595.61, 0.0272970
6604.02, 0.0271190
6612.44, 0.0271190
6620.89, 0.0271790
6629.35, 0.0270600
6637.84, 0.0268230
6646.35, 0.0267040
6654.88, 0.0267630
6663.44, 0.0266450
6672.01, 0.0265260
6680.61, 0.0263480
6689.23, 0.0261700
6697.88, 0.0261700
6706.54, 0.0260510
6715.23, 0.0258730
6723.94, 0.0258140
6732.67, 0.0255170
6741.42, 0.0252200
6750.2, 0.0251610
6759.0, 0.0249240
6767.82, 0.0247460
6776.67, 0.0246270
6785.54, 0.0245680
6794.44, 0.0242710
6803.35, 0.0240930
6812.29, 0.0239740
6821.26, 0.0238550
6830.24, 0.0235590
6839.25, 0.0233810
6848.29, 0.0232620
6857.35, 0.0229650
6866.43, 0.0226690
6875.54, 0.0225500
6884.67, 0.0223720
6893.82, 0.0221350
6903.0, 0.0219570
6912.2, 0.0217790
6921.43, 0.0216000
6930.69, 0.0213630
6939.96, 0.0210660
6949.27, 0.0208880
6958.59, 0.0206510
6967.95, 0.0204730
6977.33, 0.0202360
6986.73, 0.0200580
6996.16, 0.0199390
7005.61, 0.0197020
7015.09, 0.0195240
7024.6, 0.0194640
7034.13, 0.0194050
7043.69, 0.0192860
7053.27, 0.0191080
7062.88, 0.0189890
7072.52, 0.0189300
7082.18, 0.0189300
7091.87, 0.0187520
7101.58, 0.0185740
7111.32, 0.0185150
7121.09, 0.0183960
7130.88, 0.0182180
7140.71, 0.0180990
7150.56, 0.0179810
7160.43, 0.0178620
7170.33, 0.0177430
7180.27, 0.0175650
7190.23, 0.0173870
7200.21, 0.0172090
7210.23, 0.0169720
7220.27, 0.0168530
7230.34, 0.0167940
7240.44, 0.0165560
7250.56, 0.0162600
7260.72, 0.0160820
7270.9, 0.0160220
7281.12, 0.0157850
7291.36, 0.0156070
7301.63, 0.0155480
7311.93, 0.0153700
7322.25, 0.0151920
7332.61, 0.0150730
7343.0, 0.0148950
7353.41, 0.0145980
7363.86, 0.0143010
7374.33, 0.0141230
7384.83, 0.0139450
7395.37, 0.0138270
7405.93, 0.0135890
7416.53, 0.0133520
7427.15, 0.0132930
7437.81, 0.0131740
7448.5, 0.0129370
7459.22, 0.0125810
7469.96, 0.0123430
7480.74, 0.0121060
7491.55, 0.0119870
7502.39, 0.0118090
7513.27, 0.0114530
7524.17, 0.0110970
7535.11, 0.0109780
7546.08, 0.0108000
7557.08, 0.0105630
7568.11, 0.0104440
7579.17, 0.0103260
7590.27, 0.0100290
7601.4, 0.00979100
7612.56, 0.00967300
7623.76, 0.00943500
7634.98, 0.00919800
7646.24, 0.00896100
7657.54, 0.00872300
7668.87, 0.00842700
7680.23, 0.00818900
7691.62, 0.00795200
7703.05, 0.00765500
7714.51, 0.00741800
7726.01, 0.00718000
7737.54, 0.00700200
7749.11, 0.00688400
7760.71, 0.00664600
7772.35, 0.00635000
7784.02, 0.00605300
7795.72, 0.00587500
7807.46, 0.00575600
7819.23, 0.00551900
7831.04, 0.00522200
7842.89, 0.00504400
7854.77, 0.00480700
7866.69, 0.00462900
7878.65, 0.00445100
7890.64, 0.00415400
7902.67, 0.00391700
7914.74, 0.00362000
7926.84, 0.00350100
7938.98, 0.00326400
7951.16, 0.00320400
7963.37, 0.00314500
7975.62, 0.00296700
7987.91, 0.00255200
8000.24, 0.00225500
8012.6, 0.00207700
8025.01, 0.00189900
8037.45, 0.00172100
8049.93, 0.00154300
8062.45, 0.00136500
8075.01, 0.00130600
8087.61, 0.00130600
8100.24, 0.00112700
8112.91, 0.000949000
8125.63, 0.000890000
8138.39, 0.000831000
8151.18, 0.000831000
8164.02, 0.000831000
8176.9, 0.000831000
8189.81, 0.000890000
8202.77, 0.000890000
8215.77, 0.00100900
8228.82, 0.00118700
8241.9, 0.00136500
8255.02, 0.00172100
8268.19, 0.00219600
8281.39, 0.00243300
8294.65, 0.00290800
8307.94, 0.00338200
8321.28, 0.00391700
8334.66, 0.00468800
8348.08, 0.00557800
8361.54, 0.00646800
8375.05, 0.00747700
8388.6, 0.00878300
8402.2, 0.0103850
8415.84, 0.0124020
8429.52, 0.0145980
8443.25, 0.0170310
8457.02, 0.0199980
8470.84, 0.0235590
8484.7, 0.0276530
8498.61, 0.0323410
8512.57, 0.0377420
8526.57, 0.0440910
8540.62, 0.0512710
8554.71, 0.0592230
8568.85, 0.0680650
8583.04, 0.0778570
8597.27, 0.0883600
8611.55, 0.0997540
8625.88, 0.112038
8640.26, 0.125212
8654.68, 0.138979
8669.16, 0.153162
8683.68, 0.167760
8698.25, 0.181883
8712.87, 0.195591
8727.53, 0.208172
8742.25, 0.219091
8757.02, 0.228467
8771.83, 0.236715
8786.7, 0.244014
8801.62, 0.250779
8816.59, 0.257366
8831.61, 0.264013
8846.68, 0.270718
8861.8, 0.277661
8876.97, 0.284664
8892.2, 0.291785
8907.48, 0.298490
8922.81, 0.304781
8938.2, 0.310477
8953.63, 0.315462
8969.13, 0.319379
8984.67, 0.322464
9000.27, 0.324423
9015.92, 0.325728
9031.63, 0.325966
9047.39, 0.325966
9063.21, 0.325491
9079.08, 0.324541
9095.01, 0.322939
9111.0, 0.320684
9127.04, 0.317420
9143.13, 0.314038
9159.28, 0.310893
9175.49, 0.309053
9191.76, 0.308994
9208.09, 0.312080
9224.47, 0.319082
9240.92, 0.330060
9257.42, 0.344599
9273.98, 0.362283
9290.6, 0.381688
9307.28, 0.402457
9324.02, 0.423346
9340.82, 0.443463
9357.68, 0.461859
9374.6, 0.478712
9391.58, 0.493429
9408.62, 0.506306
9425.73, 0.517225
9442.9, 0.526779
9460.13, 0.534256
9477.42, 0.540665
9494.78, 0.545828
9512.2, 0.549566
9529.69, 0.551525
9547.24, 0.552296
9564.86, 0.551287
9582.54, 0.548498
9600.28, 0.543691
9618.1, 0.536867
9635.97, 0.527550
9653.92, 0.516216
9671.93, 0.502745
9690.01, 0.487910
9708.16, 0.471650
9726.37, 0.455034
9744.65, 0.438359
9763.0, 0.422871
9781.43, 0.409222
9799.92, 0.397710
9818.48, 0.387919
9837.1, 0.380382
9855.8, 0.374567
9874.58, 0.370235
9893.42, 0.366971
9912.34, 0.364479
9931.33, 0.361690
9950.39, 0.358900
9969.52, 0.355281
9988.74, 0.350177
10008.0, 0.343471
10027.4, 0.335579
10046.8, 0.326440
10066.3, 0.316768
10085.9, 0.306917
10105.6, 0.297956
10125.3, 0.289886
10145.1, 0.283180
10165.0, 0.278017
10185.0, 0.273923
10205.0, 0.270837
10225.2, 0.268819
10245.4, 0.266920
10265.7, 0.264843
10286.0, 0.262529
10306.5, 0.259859
10327.0, 0.255942
10347.6, 0.251313
10368.3, 0.245617
10389.1, 0.238792
10409.9, 0.231078
10430.9, 0.222948
10451.9, 0.214106
10473.0, 0.205145
10494.2, 0.196956
10515.5, 0.189538
10536.9, 0.182536
10558.4, 0.176305
10579.9, 0.170727
10601.5, 0.165742
10623.3, 0.161232
10645.1, 0.157078
10667.0, 0.153399
10689.0, 0.150017
10711.1, 0.146634
10733.2, 0.143311
10755.5, 0.140284
10777.9, 0.137614
10800.3, 0.134944
10822.9, 0.131977
10845.5, 0.129366
10868.2, 0.127289
10891.1, 0.124856
10914.0, 0.122482
10937.0, 0.120464
10960.2, 0.118565
10983.4, 0.116726
11006.7, 0.115064
11030.1, 0.113343
11053.6, 0.111385
11077.3, 0.109605
11101.0, 0.107765
11124.8, 0.105985
11148.7, 0.103908
11172.7, 0.102128
11196.9, 0.100703
11221.1, 0.0990420
11245.4, 0.0973800
11269.9, 0.0960150
11294.4, 0.0948290
11319.1, 0.0935230
11343.9, 0.0920390
11368.8, 0.0906750
11393.7, 0.0893690
11418.8, 0.0883600
11444.0, 0.0872330
11469.4, 0.0861050
11494.8, 0.0852740
11520.3, 0.0843840
11546.0, 0.0837320
11571.8, 0.0829600
11597.7, 0.0821290
11623.7, 0.0811800
11649.8, 0.0804680
11676.0, 0.0797560
11702.4, 0.0791030
11728.9, 0.0786870
11755.5, 0.0780350
11782.2, 0.0771450
11809.0, 0.0764920
11836.0, 0.0758390
11863.0, 0.0750680
11890.3, 0.0741770
11917.6, 0.0732280
11945.0, 0.0721010
11972.6, 0.0710320
12000.4, 0.0699640
12028.2, 0.0687770
12056.2, 0.0677090
12084.3, 0.0668190
12112.5, 0.0658100
12140.9, 0.0646830
12169.4, 0.0635550
12198.0, 0.0619530
12226.8, 0.0599950
12255.7, 0.0583330
12284.7, 0.0569090
12313.9, 0.0553070
12343.2, 0.0537640
12372.7, 0.0528140
12402.3, 0.0519840
12432.0, 0.0509750
12461.9, 0.0500850
12491.9, 0.0493730
12522.1, 0.0488380
12552.4, 0.0486010
12582.9, 0.0482450
12613.5, 0.0478890
12644.3, 0.0478890
12675.2, 0.0481260
12706.3, 0.0479480
12737.5, 0.0478890
12768.9, 0.0476520
12800.4, 0.0471770
12832.1, 0.0461680
12863.9, 0.0453970
12895.9, 0.0445660
12928.1, 0.0435570
12960.4, 0.0426080
12992.9, 0.0417770
13025.5, 0.0410650
13058.3, 0.0402340
13091.3, 0.0395810
13124.4, 0.0397000
13157.8, 0.0401750
13191.2, 0.0410050
13224.9, 0.0419550
13258.7, 0.0430820
13292.7, 0.0443280
13326.9, 0.0453970
13361.2, 0.0458120
13395.7, 0.0456340
13430.4, 0.0455750
13465.3, 0.0452780
13500.4, 0.0448630
13535.7, 0.0439720
13571.1, 0.0427860
13606.7, 0.0415390
13642.5, 0.0402340
13678.5, 0.0391060
13714.7, 0.0380380
13751.1, 0.0371480
13787.6, 0.0362580
13824.4, 0.0354270
13861.4, 0.0347150
13898.5, 0.0338840
13935.9, 0.0329350
13973.5, 0.0318070
14011.2, 0.0314510
14049.2, 0.0312140
14087.4, 0.0302640
14125.8, 0.0295520
14164.3, 0.0291370
14203.2, 0.0282470
14242.2, 0.0275350
14281.4, 0.0272970
14320.9, 0.0270010
14360.5, 0.0267040
14400.4, 0.0263480
14440.5, 0.0261100
14480.9, 0.0260510
14521.4, 0.0257540
14562.2, 0.0249830
14603.3, 0.0244490
14644.5, 0.0243300
14686.0, 0.0239150
14727.7, 0.0232030
14769.7, 0.0223720
14811.9, 0.0213040
14854.3, 0.0204140
14897.0, 0.0197020
14939.9, 0.0186930
14983.1, 0.0175060
15026.5, 0.0163190
15070.2, 0.0153100
15114.2, 0.0143610
15158.3, 0.0132330
15202.8, 0.0125810
15247.5, 0.0116310
15292.5, 0.0107410
15337.7, 0.0100290
15383.2, 0.00878300
15429.0, 0.00777400
15475.1, 0.00724000
15521.4, 0.00664600
15568.0, 0.00670600
15614.9, 0.00753600
15662.1, 0.00878300
15709.6, 0.0109780
15757.3, 0.0141230
15805.4, 0.0179810
15853.7, 0.0229650
15902.3, 0.0283650
15951.2, 0.0344780
16000.5, 0.0410650
16050.0, 0.0477700
16099.8, 0.0544760
16150.0, 0.0604100
16200.5, 0.0661660
16251.3, 0.0726940
16302.4, 0.0793400
16353.8, 0.0860460
16405.5, 0.0931670
16457.6, 0.101415
16510.0, 0.110851
16562.8, 0.121176
16615.9, 0.132867
16669.3, 0.146753
16723.1, 0.161054
16777.2, 0.175652
16831.7, 0.190132
16886.5, 0.203009
16941.7, 0.213987
16997.2, 0.222711
17053.1, 0.228526
17109.4, 0.232324
17166.1, 0.235232
17223.1, 0.238970
17280.5, 0.244252
17338.3, 0.251847
17396.5, 0.262351
17455.1, 0.275881
17514.0, 0.291607
17573.4, 0.308638
17633.2, 0.324482
17693.4, 0.338190
17754.0, 0.351067
17815.0, 0.362758
17876.4, 0.371837
17938.3, 0.378780
18000.5, 0.384180
18063.3, 0.388215
18126.4, 0.391301
18190.0, 0.394387
18254.1, 0.394743
18318.6, 0.392666
18383.5, 0.389640
18449.0, 0.386435
18514.9, 0.381510
18581.2, 0.376288
18648.0, 0.369285
18715.4, 0.360918
18783.2, 0.352373
18851.5, 0.343353
18920.3, 0.332078
18989.6, 0.318726
19059.4, 0.305611
19129.7, 0.293565
19200.6, 0.281459
19272.0, 0.270659
19343.9, 0.262114
19416.3, 0.255111
19489.3, 0.250186
19562.8, 0.247694
19637.0, 0.245379
19711.6, 0.244370
19786.8, 0.247041
19862.6, 0.250661
19939.0, 0.254399
20016.0, 0.261520
20093.6, 0.270243
20171.8, 0.279679
20250.6, 0.291310
20330.0, 0.303712
20410.0, 0.315521
20490.7, 0.325550
20572.0, 0.334214
20654.0, 0.340386
20736.6, 0.340148
20819.9, 0.334095
20903.8, 0.324363
20988.5, 0.311427
21073.8, 0.297185
21159.8, 0.285198
21246.5, 0.274991
21334.0, 0.266327
21422.1, 0.255171
21511.0, 0.242649
21600.7, 0.229238
21691.0, 0.218853
21782.1, 0.211495
21874.0, 0.205027
21966.7, 0.200576
22060.2, 0.201703
22154.5, 0.205857
22249.6, 0.212444
22345.5, 0.221939
22442.2, 0.232977
22539.8, 0.239860
22638.2, 0.245795
22737.5, 0.249533
22837.7, 0.248940
22938.7, 0.245913
23040.7, 0.242412
23143.5, 0.237843
23247.3, 0.234876
23352.1, 0.229713
23457.7, 0.225262
23564.4, 0.221583
23672.0, 0.218497
23780.5, 0.211970
23890.1, 0.204374
24000.7, 0.202475
24112.3, 0.197312
24225.0, 0.191141
24338.7, 0.187995
24453.5, 0.181587
24569.4, 0.177433
24686.4, 0.174406
24804.5, 0.167997
