Database of Origin, USGS Spectral Database
Sample Description, See USGS database for additional info
Date Added,2016-08-10 02:55:13.902100

Data ID,USGS_hem07          
Sample ID, hematite_gds69.9419
Mineral Name, hematite
Material Class,Oxide

Wavelength
229.1, 0.117249
236.1, 0.109646
242.1, 0.107649
248.1, 0.101502
253.6, 0.101390
258.6, 0.0998500
263.6, 0.0985670
268.6, 0.0983200
273.1, 0.0995570
277.1, 0.0990430
281.1, 0.0984990
285.1, 0.0954230
289.1, 0.0959200
293.1, 0.0942050
297.1, 0.0949100
301.1, 0.0937240
305.1, 0.0922810
309.1, 0.0921390
313.1, 0.0910510
317.1, 0.0898180
321.1, 0.0885300
325.1, 0.0854990
329.1, 0.0844980
333.1, 0.0860850
337.1, 0.0815480
341.1, 0.0790810
345.1, 0.0800920
349.1, 0.0767160
353.1, 0.0793700
357.1, 0.0831220
360.6, 0.0814710
363.6, 0.0819220
366.6, 0.0830190
369.6, 0.0837610
372.6, 0.0850400
375.6, 0.0846180
378.6, 0.0869680
381.1, 0.0872400
383.1, 0.0884770
385.1, 0.0896070
387.1, 0.0901410
389.1, 0.0909530
391.1, 0.0910150
393.1, 0.0911340
395.1, 0.0939380
397.1, 0.0924920
399.1, 0.0916090
401.1, 0.0925760
403.1, 0.0948250
405.1, 0.0938930
407.1, 0.0943470
409.1, 0.0942670
411.1, 0.0940750
412.8, 0.0948990
415.8, 0.0949430
418.8, 0.0946150
421.8, 0.0955170
424.8, 0.0966580
427.8, 0.0952760
430.8, 0.0955220
433.8, 0.0953660
436.8, 0.0950550
439.8, 0.0959520
442.8, 0.0943070
445.8, 0.0937220
448.8, 0.0926900
451.3, 0.0929150
453.3, 0.0939700
455.3, 0.0917800
457.3, 0.0915220
459.3, 0.0919020
461.3, 0.0913000
463.3, 0.0902160
465.3, 0.0901530
467.3, 0.0901090
469.3, 0.0897020
471.3, 0.0893420
473.3, 0.0888100
475.3, 0.0890340
477.3, 0.0885610
479.3, 0.0883460
481.3, 0.0879480
483.3, 0.0889880
485.3, 0.0875280
487.3, 0.0873710
489.3, 0.0896460
491.3, 0.0870730
493.3, 0.0863210
495.3, 0.0871580
497.3, 0.0868170
499.3, 0.0860310
501.3, 0.0879540
503.3, 0.0861860
505.3, 0.0861910
507.3, 0.0860890
509.3, 0.0841090
511.3, 0.0883670
513.3, 0.0859490
515.3, 0.0860370
517.3, 0.0878130
519.3, 0.0861110
521.3, 0.0862200
523.3, 0.0860100
525.3, 0.0863390
527.3, 0.0855250
529.3, 0.0883480
531.3, 0.0864000
533.3, 0.0869950
535.3, 0.0867430
537.3, 0.0860850
539.3, 0.0868190
541.3, 0.0867910
543.3, 0.0871050
545.3, 0.0869340
547.3, 0.0888440
549.3, 0.0869140
551.3, 0.0857650
553.3, 0.0863440
555.3, 0.0869700
557.3, 0.0861300
559.3, 0.0868540
561.3, 0.0852690
563.3, 0.0854410
565.3, 0.0859080
567.3, 0.0857740
569.3, 0.0855020
571.3, 0.0855500
573.3, 0.0873310
575.3, 0.0851730
577.3, 0.0829630
579.3, 0.0850800
581.3, 0.0844230
583.3, 0.0845810
585.3, 0.0850400
587.3, 0.0846900
589.3, 0.0848240
591.3, 0.0852490
593.3, 0.0868700
595.3, 0.0844780
597.3, 0.0852810
599.3, 0.0847450
601.1, 0.0854610
602.7, 0.0854070
604.3, 0.0847190
605.9, 0.0893410
607.5, 0.0848160
609.1, 0.0892370
610.7, 0.0847920
612.3, 0.0846170
613.9, 0.0874390
615.5, 0.0845910
617.1, 0.0852780
618.7, 0.0882430
620.3, 0.0847550
621.9, 0.0848130
623.5, 0.0843970
625.1, 0.0851890
626.7, 0.0847250
628.3, 0.0848530
629.9, 0.0842300
631.7, 0.0841170
633.7, 0.0841700
635.7, 0.0839630
637.7, 0.0838430
639.7, 0.0837910
641.7, 0.0836710
643.7, 0.0835090
645.7, 0.0835700
647.7, 0.0834310
649.7, 0.0854430
651.7, 0.0826340
653.7, 0.0836530
655.7, 0.0833290
657.7, 0.0833320
659.7, 0.0833720
661.7, 0.0838740
663.7, 0.0842350
665.7, 0.0827730
667.7, 0.0839550
670.2, 0.0833710
673.2, 0.0838200
676.2, 0.0836630
679.2, 0.0840630
682.2, 0.0836510
685.2, 0.0837870
688.2, 0.0842790
691.2, 0.0846380
694.2, 0.0842510
697.2, 0.0853970
700.2, 0.0835550
702.0, 0.0851950
704.0, 0.0851350
706.0, 0.0855350
708.0, 0.0856180
710.0, 0.0882880
712.0, 0.0853390
714.0, 0.0863620
716.0, 0.0866800
718.0, 0.0868310
720.0, 0.0854080
722.0, 0.0868610
724.0, 0.0870890
726.0, 0.0872230
728.0, 0.0870010
730.0, 0.0870060
732.0, 0.0871270
734.0, 0.0871820
736.0, 0.0861360
738.0, 0.0869000
740.0, 0.0899900
742.0, 0.0858240
744.0, 0.0921390
746.0, 0.0880730
748.0, 0.0902880
750.5, 0.0878560
753.5, 0.0874210
756.5, 0.0894250
759.5, 0.0869940
762.5, 0.0864990
765.5, 0.0863450
768.5, 0.0851860
771.5, 0.0858740
774.5, 0.0851830
777.5, 0.0846700
781.0, 0.0847690
785.0, 0.0858230
789.0, 0.0840880
793.0, 0.0868760
797.0, 0.0813940
801.5, 0.0825470
806.5, 0.0814700
811.5, 0.0818980
816.5, 0.0816810
822.0, 0.0815330
828.0, 0.0798770
835.0, 0.0804390
843.0, 0.0799270
851.0, 0.0840330
859.0, 0.0834090
871.0, 0.0828520
883.0, 0.0808030
894.0, 0.0832070
904.0, 0.0802210
914.0, 0.0821000
924.0, 0.0799220
933.0, 0.0811330
941.0, 0.0823090
949.0, 0.0827600
957.0, 0.0834690
964.0, 0.0853960
970.0, 0.0826110
976.0, 0.0886340
982.0, 0.0847070
988.0, 0.0904460
994.0, 0.0875850
1000.0, 0.0902630
1006.0, 0.0939240
1012.0, 0.0956990
1018.0, 0.0972060
1023.5, 0.0973200
1028.5, 0.102032
1033.5, 0.101275
1038.5, 0.103448
1043.5, 0.106045
1048.5, 0.107672
1053.5, 0.109367
1058.5, 0.107372
1063.5, 0.112121
1068.5, 0.111977
1073.5, 0.111336
1078.5, 0.112956
1083.5, 0.114735
1088.5, 0.117191
1093.5, 0.119800
1098.5, 0.118840
1103.5, 0.123319
1108.5, 0.124821
1113.5, 0.126047
1118.5, 0.126099
1123.5, 0.129219
1128.5, 0.130168
1133.5, 0.132395
1138.5, 0.133950
1143.5, 0.135538
1148.5, 0.137665
1153.5, 0.138516
1158.5, 0.140061
1163.5, 0.142580
1168.5, 0.144945
1173.5, 0.143877
1178.5, 0.145802
1183.5, 0.146127
1188.5, 0.146570
1193.5, 0.147025
1198.5, 0.151461
1203.5, 0.148613
1208.5, 0.149562
1213.5, 0.150751
1218.5, 0.149710
1223.5, 0.151974
1228.5, 0.149442
1233.5, 0.150983
1238.5, 0.152038
1243.5, 0.151628
1248.5, 0.151394
1253.5, 0.152701
1258.5, 0.150453
1263.5, 0.151968
1268.5, 0.150739
1273.5, 0.152334
1278.5, 0.151787
1283.5, 0.151628
1288.5, 0.149097
1293.5, 0.150723
1298.5, 0.150022
1303.5, 0.150005
1308.5, 0.150009
1313.5, 0.150451
1318.5, 0.149364
1323.5, 0.150509
1328.5, 0.149379
1333.5, 0.151433
1338.5, 0.149433
1343.5, 0.150708
1348.5, 0.148251
1353.5, 0.148828
1358.5, 0.146910
1363.5, 0.147735
1368.5, 0.147686
1373.5, 0.150396
1378.5, 0.148337
1383.5, 0.151297
1388.5, 0.150456
1393.5, 0.148821
1398.5, 0.148785
1403.5, 0.151132
1408.5, 0.149191
1413.5, 0.150728
1418.5, 0.149893
1423.5, 0.148457
1428.5, 0.149270
1433.5, 0.148030
1438.5, 0.150682
1443.5, 0.150594
1448.5, 0.150295
1453.5, 0.150293
1458.5, 0.150150
1463.5, 0.151111
1468.5, 0.149473
1473.5, 0.149231
1478.5, 0.150314
1483.5, 0.149388
1488.5, 0.150932
1493.5, 0.150559
1498.5, 0.154554
1503.5, 0.152065
1508.5, 0.153437
1513.5, 0.150830
1518.5, 0.150600
1523.5, 0.154119
1528.5, 0.151362
1534.0, 0.150962
1540.0, 0.152440
1546.0, 0.153676
1552.0, 0.153102
1558.0, 0.154471
1564.0, 0.155072
1570.5, 0.151606
1577.5, 0.153577
1584.5, 0.152757
1591.5, 0.154145
1598.5, 0.152668
1605.5, 0.153863
1612.5, 0.155518
1619.5, 0.153770
1626.5, 0.154340
1633.5, 0.156989
1640.5, 0.155141
1647.5, 0.156322
1654.5, 0.154902
1661.5, 0.155248
1668.5, 0.154238
1676.0, 0.155752
1684.0, 0.156343
1692.0, 0.158344
1700.0, 0.159921
1708.0, 0.159201
1716.0, 0.157987
1724.0, 0.157240
1732.0, 0.162677
1740.0, 0.159552
1748.0, 0.159695
1756.0, 0.161539
1764.0, 0.163220
1772.0, 0.163921
1780.0, 0.163512
1788.0, 0.163481
1796.0, 0.164564
1805.0, 0.163658
1815.0, 0.165836
1825.0, 0.166474
1835.0, 0.168215
1845.0, 0.167242
1855.0, 0.167420
1865.0, 0.167454
1875.0, 0.168629
1885.0, 0.168601
1895.0, 0.166959
1905.0, 0.167396
1915.0, 0.170275
1925.0, 0.169026
1935.0, 0.170180
1945.0, 0.172224
1955.0, 0.171109
1965.0, 0.171615
1975.0, 0.176113
1985.0, 0.177030
1995.0, 0.180410
2005.0, 0.175491
2015.0, 0.179824
2025.0, 0.181567
2035.0, 0.182738
2045.0, 0.181108
2055.0, 0.179278
2065.0, 0.181615
2075.0, 0.183999
2085.0, 0.184187
2095.0, 0.182049
2105.0, 0.181392
2115.0, 0.190223
2125.0, 0.190068
2135.0, 0.190476
2145.0, 0.190376
2155.0, 0.188066
2165.0, 0.192081
2175.0, 0.187837
2185.0, 0.192086
2195.0, 0.196066
2205.0, 0.191306
2215.0, 0.196320
2225.0, 0.192861
2235.0, 0.194143
2245.0, 0.194570
2255.0, 0.197196
2265.0, 0.195750
2275.0, 0.202058
2285.0, 0.194730
2295.0, 0.204632
2305.0, 0.206820
2315.0, 0.199196
2325.0, 0.206886
2335.0, 0.202706
2345.0, 0.205211
2355.0, 0.202390
2365.0, 0.205456
2375.0, 0.206206
2386.0, 0.206045
2400.0, 0.208827
2418.0, 0.209032
2440.0, 0.211308
2466.0, 0.210158
2496.0, 0.215617
2528.0, 0.213595
2560.0, 0.216907
2592.0, 0.215321
2624.0, 0.220003
2656.0, 0.218757
2688.0, 0.212174
2720.0, 0.185942
2752.0, 0.152806
2784.0, 0.117739
2816.0, 0.120003
2848.0, 0.139129
2880.0, 0.133011
2912.0, 0.113939
2944.0, 0.119976
2976.0, 0.115596
