Database of Origin, USGS Spectral Database
Sample Description, See USGS database for additional info
Date Added,2016-08-10 02:45:38.319685

Data ID,USGS_gay02          
Sample ID, gaylussite_nmnh102876-2.8014
Mineral Name, gaylussite
Material Class,Carbonate

Wavelength
1457.45, 0.0864440
1457.86, 0.0862420
1458.27, 0.0859730
1458.68, 0.0856370
1459.09, 0.0853680
1459.5, 0.0856370
1459.91, 0.0861080
1460.32, 0.0851660
1460.74, 0.0845610
1461.15, 0.0844930
1461.56, 0.0839550
1461.97, 0.0822730
1462.39, 0.0822060
1462.8, 0.0828790
1463.21, 0.0826770
1463.62, 0.0824080
1464.04, 0.0836190
1464.45, 0.0831480
1464.86, 0.0824750
1465.28, 0.0824750
1465.69, 0.0813320
1466.11, 0.0814660
1466.52, 0.0818030
1466.94, 0.0821390
1467.35, 0.0811300
1467.77, 0.0799860
1468.18, 0.0797170
1468.6, 0.0800530
1469.02, 0.0794480
1469.43, 0.0791120
1469.85, 0.0795150
1470.27, 0.0795150
1470.68, 0.0801880
1471.1, 0.0803230
1471.52, 0.0801210
1471.94, 0.0790440
1472.35, 0.0781700
1472.77, 0.0777660
1473.19, 0.0780350
1473.61, 0.0787080
1474.03, 0.0783040
1474.45, 0.0768920
1474.87, 0.0764880
1475.29, 0.0757480
1475.71, 0.0754120
1476.13, 0.0762860
1476.55, 0.0763540
1476.97, 0.0762860
1477.39, 0.0764210
1477.81, 0.0762860
1478.23, 0.0755460
1478.65, 0.0746040
1479.07, 0.0744030
1479.5, 0.0752770
1479.92, 0.0750080
1480.34, 0.0746040
1480.76, 0.0748740
1481.19, 0.0741340
1481.61, 0.0739320
1482.03, 0.0741340
1482.46, 0.0740660
1482.88, 0.0739320
1483.31, 0.0732590
1483.73, 0.0733260
1484.16, 0.0738640
1484.58, 0.0733260
1485.01, 0.0722500
1485.43, 0.0716440
1485.86, 0.0715100
1486.28, 0.0715770
1486.71, 0.0717120
1487.14, 0.0718460
1487.56, 0.0715770
1487.99, 0.0712410
1488.42, 0.0710390
1488.84, 0.0710390
1489.27, 0.0705010
1489.7, 0.0703660
1490.13, 0.0709050
1490.56, 0.0711740
1490.98, 0.0709720
1491.41, 0.0707700
1491.84, 0.0701650
1492.27, 0.0701650
1492.7, 0.0705680
1493.13, 0.0698950
1493.56, 0.0694920
1493.99, 0.0694920
1494.42, 0.0694250
1494.85, 0.0695590
1495.29, 0.0695590
1495.72, 0.0695590
1496.15, 0.0690880
1496.58, 0.0690880
1497.01, 0.0692900
1497.44, 0.0691550
1497.88, 0.0688190
1498.31, 0.0685500
1498.74, 0.0684830
1499.18, 0.0680790
1499.61, 0.0682810
1500.04, 0.0682140
1500.48, 0.0680120
1500.91, 0.0683480
1501.35, 0.0685500
1501.78, 0.0678100
1502.22, 0.0678100
1502.65, 0.0676080
1503.09, 0.0670700
1503.53, 0.0670030
1503.96, 0.0672720
1504.4, 0.0673390
1504.83, 0.0669350
1505.27, 0.0671370
1505.71, 0.0679450
1506.15, 0.0676080
1506.58, 0.0670030
1507.02, 0.0672050
1507.46, 0.0668680
1507.9, 0.0666660
1508.34, 0.0670030
1508.78, 0.0667340
1509.21, 0.0661950
1509.66, 0.0662630
1510.09, 0.0665990
1510.53, 0.0666660
1510.97, 0.0660610
1511.42, 0.0655230
1511.86, 0.0651190
1512.3, 0.0648500
1512.74, 0.0652540
1513.18, 0.0660610
1513.62, 0.0655230
1514.06, 0.0647150
1514.51, 0.0652540
1514.95, 0.0653880
1515.39, 0.0649170
1515.83, 0.0649850
1516.28, 0.0649170
1516.72, 0.0641100
1517.16, 0.0638410
1517.61, 0.0643790
1518.05, 0.0643790
1518.5, 0.0639080
1518.94, 0.0642450
1519.39, 0.0646480
1519.83, 0.0643790
1520.28, 0.0640430
1520.73, 0.0639760
1521.17, 0.0639080
1521.62, 0.0639760
1522.07, 0.0638410
1522.51, 0.0635720
1522.96, 0.0633030
1523.41, 0.0630340
1523.85, 0.0626970
1524.3, 0.0631010
1524.75, 0.0633700
1525.2, 0.0632360
1525.65, 0.0635050
1526.1, 0.0632360
1526.55, 0.0629660
1527.0, 0.0631680
1527.45, 0.0632360
1527.9, 0.0630340
1528.35, 0.0626300
1528.8, 0.0627650
1529.25, 0.0623610
1529.7, 0.0618900
1530.15, 0.0620920
1530.6, 0.0619570
1531.05, 0.0614190
1531.51, 0.0614190
1531.96, 0.0615540
1532.41, 0.0621590
1532.87, 0.0622940
1533.32, 0.0618230
1533.77, 0.0613520
1534.23, 0.0614860
1534.68, 0.0615540
1535.14, 0.0610830
1535.59, 0.0610830
1536.05, 0.0609480
1536.5, 0.0605450
1536.96, 0.0608140
1537.41, 0.0611500
1537.87, 0.0607460
1538.32, 0.0604770
1538.78, 0.0604770
1539.24, 0.0602080
1539.7, 0.0600740
1540.15, 0.0604100
1540.61, 0.0604100
1541.07, 0.0603430
1541.53, 0.0604770
1541.98, 0.0601410
1542.44, 0.0598720
1542.9, 0.0600060
1543.36, 0.0600740
1543.82, 0.0600060
1544.28, 0.0596030
1544.74, 0.0591990
1545.2, 0.0596030
1545.66, 0.0596700
1546.12, 0.0595360
1546.59, 0.0594680
1547.05, 0.0594680
1547.51, 0.0598050
1547.97, 0.0600740
1548.43, 0.0598050
1548.9, 0.0588630
1549.36, 0.0589970
1549.82, 0.0594680
1550.29, 0.0590650
1550.75, 0.0589300
1551.21, 0.0591990
1551.68, 0.0588630
1552.14, 0.0586610
1552.61, 0.0587960
1553.07, 0.0585940
1553.54, 0.0581900
1554.0, 0.0585260
1554.47, 0.0589970
1554.93, 0.0589970
1555.4, 0.0587280
1555.87, 0.0584590
1556.34, 0.0583920
1556.8, 0.0581900
1557.27, 0.0583920
1557.74, 0.0587960
1558.21, 0.0587280
1558.68, 0.0584590
1559.14, 0.0581900
1559.61, 0.0579880
1560.08, 0.0582570
1560.55, 0.0585260
1561.02, 0.0588630
1561.49, 0.0585260
1561.96, 0.0581900
1562.43, 0.0581900
1562.9, 0.0583250
1563.38, 0.0583920
1563.85, 0.0585260
1564.32, 0.0583920
1564.79, 0.0581900
1565.26, 0.0583250
1565.74, 0.0588630
1566.21, 0.0585940
1566.68, 0.0579880
1567.16, 0.0579880
1567.63, 0.0584590
1568.1, 0.0583920
1568.58, 0.0579880
1569.05, 0.0577860
1569.53, 0.0579880
1570.0, 0.0581900
1570.48, 0.0580560
1570.96, 0.0577860
1571.43, 0.0578540
1571.91, 0.0579210
1572.39, 0.0577860
1572.86, 0.0580560
1573.34, 0.0582570
1573.82, 0.0581230
1574.3, 0.0579880
1574.77, 0.0577190
1575.25, 0.0575850
1575.73, 0.0573160
1576.21, 0.0573830
1576.69, 0.0571810
1577.17, 0.0572480
1577.65, 0.0574500
1578.13, 0.0576520
1578.61, 0.0583920
1579.09, 0.0582570
1579.57, 0.0575170
1580.05, 0.0573160
1580.54, 0.0574500
1581.02, 0.0575850
1581.5, 0.0578540
1581.98, 0.0581230
1582.47, 0.0577860
1582.95, 0.0577860
1583.43, 0.0579210
1583.92, 0.0577190
1584.4, 0.0577860
1584.88, 0.0583250
1585.37, 0.0585260
1585.85, 0.0580560
1586.34, 0.0580560
1586.82, 0.0583250
1587.31, 0.0581900
1587.8, 0.0582570
1588.28, 0.0585940
1588.77, 0.0583250
1589.26, 0.0580560
1589.74, 0.0579210
1590.23, 0.0577860
1590.72, 0.0577860
1591.21, 0.0581900
1591.7, 0.0582570
1592.19, 0.0581900
1592.67, 0.0585940
1593.16, 0.0585260
1593.65, 0.0582570
1594.14, 0.0584590
1594.63, 0.0586610
1595.12, 0.0583250
1595.61, 0.0577190
1596.11, 0.0575850
1596.6, 0.0577190
1597.09, 0.0581900
1597.58, 0.0587280
1598.08, 0.0589970
1598.57, 0.0588630
1599.06, 0.0587280
1599.55, 0.0587960
1600.05, 0.0587280
1600.54, 0.0585260
1601.04, 0.0584590
1601.53, 0.0585260
1602.03, 0.0584590
1602.52, 0.0581230
1603.02, 0.0584590
1603.51, 0.0586610
1604.01, 0.0585260
1604.5, 0.0587280
1605.0, 0.0589300
1605.5, 0.0588630
1606.0, 0.0586610
1606.49, 0.0583920
1606.99, 0.0583250
1607.49, 0.0586610
1607.99, 0.0587960
1608.49, 0.0587280
1608.99, 0.0585940
1609.49, 0.0584590
1609.99, 0.0583920
1610.49, 0.0583920
1610.99, 0.0583250
1611.49, 0.0581900
1611.99, 0.0583920
1612.49, 0.0587960
1612.99, 0.0587960
1613.49, 0.0584590
1614.0, 0.0583920
1614.5, 0.0586610
1615.0, 0.0589300
1615.51, 0.0588630
1616.01, 0.0586610
1616.51, 0.0587280
1617.02, 0.0586610
1617.52, 0.0583920
1618.03, 0.0585940
1618.53, 0.0586610
1619.04, 0.0586610
1619.54, 0.0587960
1620.05, 0.0589300
1620.55, 0.0587280
1621.06, 0.0587280
1621.57, 0.0584590
1622.08, 0.0584590
1622.58, 0.0589970
1623.09, 0.0589970
1623.6, 0.0586610
1624.11, 0.0584590
1624.62, 0.0586610
1625.13, 0.0587960
1625.64, 0.0587960
1626.15, 0.0584590
1626.66, 0.0582570
1627.17, 0.0583920
1627.68, 0.0585260
1628.19, 0.0585940
1628.7, 0.0585940
1629.21, 0.0585940
1629.72, 0.0587280
1630.24, 0.0590650
1630.75, 0.0588630
1631.26, 0.0589300
1631.78, 0.0589970
1632.29, 0.0586610
1632.8, 0.0582570
1633.32, 0.0581900
1633.83, 0.0583920
1634.35, 0.0583250
1634.86, 0.0583250
1635.38, 0.0582570
1635.9, 0.0584590
1636.41, 0.0586610
1636.93, 0.0581900
1637.45, 0.0581230
1637.96, 0.0586610
1638.48, 0.0587960
1639.0, 0.0584590
1639.52, 0.0582570
1640.04, 0.0585260
1640.56, 0.0583920
1641.08, 0.0577190
1641.59, 0.0575170
1642.11, 0.0578540
1642.63, 0.0581900
1643.16, 0.0580560
1643.68, 0.0581900
1644.2, 0.0582570
1644.72, 0.0581230
1645.24, 0.0578540
1645.76, 0.0577190
1646.29, 0.0575850
1646.81, 0.0575850
1647.33, 0.0575850
1647.86, 0.0575850
1648.38, 0.0576520
1648.9, 0.0577190
1649.43, 0.0573830
1649.95, 0.0573160
1650.48, 0.0574500
1651.0, 0.0574500
1651.53, 0.0575170
1652.06, 0.0579210
1652.58, 0.0577190
1653.11, 0.0572480
1653.64, 0.0567770
1654.17, 0.0567100
1654.69, 0.0569790
1655.22, 0.0571140
1655.75, 0.0569120
1656.28, 0.0567770
1656.81, 0.0565080
1657.34, 0.0565760
1657.87, 0.0567100
1658.4, 0.0565080
1658.93, 0.0565080
1659.46, 0.0562390
1659.99, 0.0563070
1660.52, 0.0564410
1661.05, 0.0562390
1661.59, 0.0559700
1662.12, 0.0561720
1662.65, 0.0562390
1663.19, 0.0561720
1663.72, 0.0562390
1664.26, 0.0563740
1664.79, 0.0562390
1665.32, 0.0561050
1665.86, 0.0559030
1666.39, 0.0554990
1666.93, 0.0553650
1667.47, 0.0557010
1668.0, 0.0559030
1668.54, 0.0552970
1669.08, 0.0547590
1669.61, 0.0550960
1670.15, 0.0552300
1670.69, 0.0550960
1671.23, 0.0552300
1671.77, 0.0553650
1672.31, 0.0552300
1672.85, 0.0552970
1673.39, 0.0552970
1673.93, 0.0551630
1674.47, 0.0548940
1675.01, 0.0547590
1675.55, 0.0545570
1676.09, 0.0544900
1676.64, 0.0544900
1677.18, 0.0545570
1677.72, 0.0542880
1678.26, 0.0540190
1678.81, 0.0538170
1679.35, 0.0535480
1679.89, 0.0537500
1680.44, 0.0537500
1680.98, 0.0537500
1681.53, 0.0539520
1682.07, 0.0540870
1682.62, 0.0540190
1683.17, 0.0538170
1683.71, 0.0539520
1684.26, 0.0540870
1684.81, 0.0537500
1685.36, 0.0536160
1685.9, 0.0534810
1686.45, 0.0534810
1687.0, 0.0535480
1687.55, 0.0534140
1688.1, 0.0532790
1688.65, 0.0533470
1689.2, 0.0532790
1689.75, 0.0531450
1690.3, 0.0530770
1690.85, 0.0528080
1691.41, 0.0528760
1691.96, 0.0528080
1692.51, 0.0525390
1693.06, 0.0525390
1693.61, 0.0528080
1694.17, 0.0529430
1694.72, 0.0525390
1695.28, 0.0525390
1695.83, 0.0526070
1696.39, 0.0525390
1696.94, 0.0522700
1697.5, 0.0518670
1698.05, 0.0517320
1698.61, 0.0518670
1699.17, 0.0520680
1699.72, 0.0522030
1700.28, 0.0521360
1700.84, 0.0521360
1701.4, 0.0520680
1701.95, 0.0517320
1702.51, 0.0517320
1703.07, 0.0518670
1703.63, 0.0518670
1704.19, 0.0518670
1704.75, 0.0520680
1705.31, 0.0519340
1705.88, 0.0515300
1706.44, 0.0513960
1707.0, 0.0513280
1707.56, 0.0511940
1708.12, 0.0512610
1708.69, 0.0511270
1709.25, 0.0509920
1709.81, 0.0507900
1710.38, 0.0505880
1710.94, 0.0507900
1711.51, 0.0507230
1712.07, 0.0507230
1712.64, 0.0507900
1713.2, 0.0508570
1713.77, 0.0507900
1714.34, 0.0505880
1714.9, 0.0505880
1715.47, 0.0504540
1716.04, 0.0502520
1716.61, 0.0499160
1717.18, 0.0496470
1717.74, 0.0496470
1718.31, 0.0496470
1718.88, 0.0495790
1719.45, 0.0497140
1720.02, 0.0499160
1720.59, 0.0501180
1721.17, 0.0500500
1721.74, 0.0498480
1722.31, 0.0495790
1722.88, 0.0495120
1723.45, 0.0495790
1724.03, 0.0493100
1724.6, 0.0493780
1725.18, 0.0493100
1725.75, 0.0490410
1726.33, 0.0490410
1726.9, 0.0489740
1727.48, 0.0489070
1728.05, 0.0487720
1728.63, 0.0489740
1729.2, 0.0489740
1729.78, 0.0487720
1730.36, 0.0487720
1730.94, 0.0485700
1731.51, 0.0487050
1732.09, 0.0487050
1732.67, 0.0487720
1733.25, 0.0487050
1733.83, 0.0483680
1734.41, 0.0483680
1734.99, 0.0486380
1735.57, 0.0485700
1736.15, 0.0482340
1736.73, 0.0478980
1737.32, 0.0478980
1737.9, 0.0479650
1738.48, 0.0480320
1739.07, 0.0480320
1739.65, 0.0476960
1740.23, 0.0474270
1740.82, 0.0474940
1741.4, 0.0478980
1741.99, 0.0480320
1742.57, 0.0478300
1743.16, 0.0477630
1743.74, 0.0476960
1744.33, 0.0476280
1744.92, 0.0474940
1745.51, 0.0476960
1746.09, 0.0475610
1746.68, 0.0471580
1747.27, 0.0472250
1747.86, 0.0473590
1748.45, 0.0471580
1749.04, 0.0472920
1749.63, 0.0472920
1750.22, 0.0472250
1750.81, 0.0470230
1751.4, 0.0469560
1751.99, 0.0470230
1752.59, 0.0470900
1753.18, 0.0471580
1753.77, 0.0470900
1754.37, 0.0468880
1754.96, 0.0470900
1755.56, 0.0472920
1756.15, 0.0469560
1756.74, 0.0466870
1757.34, 0.0466190
1757.94, 0.0467540
1758.53, 0.0469560
1759.13, 0.0466870
1759.73, 0.0465520
1760.32, 0.0466190
1760.92, 0.0467540
1761.52, 0.0469560
1762.12, 0.0465520
1762.72, 0.0460810
1763.32, 0.0462830
1763.92, 0.0467540
1764.52, 0.0467540
1765.12, 0.0464180
1765.72, 0.0463500
1766.32, 0.0464180
1766.92, 0.0464180
1767.53, 0.0463500
1768.13, 0.0463500
1768.73, 0.0464180
1769.34, 0.0464850
1769.94, 0.0464850
1770.55, 0.0463500
1771.15, 0.0461480
1771.76, 0.0458120
1772.36, 0.0459470
1772.97, 0.0461480
1773.57, 0.0459470
1774.18, 0.0456780
1774.79, 0.0457450
1775.4, 0.0457450
1776.0, 0.0458120
1776.61, 0.0458120
1777.22, 0.0456100
1777.83, 0.0456780
1778.44, 0.0457450
1779.05, 0.0458120
1779.66, 0.0460140
1780.27, 0.0457450
1780.88, 0.0453410
1781.5, 0.0453410
1782.11, 0.0455430
1782.72, 0.0456780
1783.33, 0.0456100
1783.95, 0.0456780
1784.56, 0.0459470
1785.18, 0.0458120
1785.79, 0.0456780
1786.41, 0.0455430
1787.02, 0.0456780
1787.64, 0.0455430
1788.26, 0.0455430
1788.87, 0.0456780
1789.49, 0.0457450
1790.11, 0.0458790
1790.73, 0.0458120
1791.35, 0.0455430
1791.96, 0.0452740
1792.58, 0.0452740
1793.21, 0.0456780
1793.83, 0.0457450
1794.45, 0.0457450
1795.07, 0.0456780
1795.69, 0.0454080
1796.31, 0.0453410
1796.93, 0.0456100
1797.56, 0.0459470
1798.18, 0.0460810
1798.8, 0.0458790
1799.43, 0.0456780
1800.05, 0.0456100
1800.68, 0.0457450
1801.3, 0.0459470
1801.93, 0.0458790
1802.56, 0.0457450
1803.18, 0.0459470
1803.81, 0.0458790
1804.44, 0.0458120
1805.07, 0.0459470
1805.7, 0.0460810
1806.33, 0.0459470
1806.95, 0.0459470
1807.58, 0.0461480
1808.22, 0.0460810
1808.85, 0.0459470
1809.48, 0.0460140
1810.11, 0.0462160
1810.74, 0.0462830
1811.38, 0.0464180
1812.01, 0.0462830
1812.64, 0.0460140
1813.28, 0.0462160
1813.91, 0.0464850
1814.55, 0.0464850
1815.18, 0.0462830
1815.82, 0.0462830
1816.45, 0.0463500
1817.09, 0.0463500
1817.73, 0.0466190
1818.36, 0.0468210
1819.0, 0.0468210
1819.64, 0.0467540
1820.28, 0.0466190
1820.92, 0.0464850
1821.56, 0.0465520
1822.2, 0.0466190
1822.84, 0.0465520
1823.48, 0.0466190
1824.12, 0.0464850
1824.76, 0.0464180
1825.41, 0.0466870
1826.05, 0.0467540
1826.69, 0.0468880
1827.34, 0.0470900
1827.98, 0.0469560
1828.63, 0.0469560
1829.27, 0.0470900
1829.92, 0.0471580
1830.56, 0.0471580
1831.21, 0.0474270
1831.86, 0.0472920
1832.5, 0.0471580
1833.15, 0.0474270
1833.8, 0.0474270
1834.45, 0.0472250
1835.1, 0.0473590
1835.75, 0.0474940
1836.4, 0.0474940
1837.05, 0.0472920
1837.7, 0.0470900
1838.35, 0.0472250
1839.01, 0.0473590
1839.66, 0.0474940
1840.31, 0.0474940
1840.96, 0.0473590
1841.62, 0.0473590
1842.27, 0.0472920
1842.93, 0.0472920
1843.58, 0.0474940
1844.24, 0.0476280
1844.9, 0.0475610
1845.55, 0.0474940
1846.21, 0.0474940
1846.87, 0.0473590
1847.53, 0.0473590
1848.18, 0.0474940
1848.84, 0.0474940
1849.5, 0.0476280
1850.16, 0.0476960
1850.82, 0.0476280
1851.48, 0.0475610
1852.14, 0.0474270
1852.81, 0.0475610
1853.47, 0.0473590
1854.13, 0.0473590
1854.8, 0.0478300
1855.46, 0.0477630
1856.12, 0.0472920
1856.79, 0.0470230
1857.45, 0.0470900
1858.12, 0.0470230
1858.79, 0.0469560
1859.45, 0.0470900
1860.12, 0.0468880
1860.79, 0.0468880
1861.46, 0.0468880
1862.12, 0.0468210
1862.79, 0.0466870
1863.46, 0.0464850
1864.13, 0.0467540
1864.8, 0.0467540
1865.48, 0.0467540
1866.15, 0.0466870
1866.82, 0.0464850
1867.49, 0.0462160
1868.16, 0.0460140
1868.84, 0.0461480
1869.51, 0.0460140
1870.19, 0.0460140
1870.86, 0.0462160
1871.54, 0.0460140
1872.21, 0.0458120
1872.89, 0.0456780
1873.56, 0.0455430
1874.24, 0.0454760
1874.92, 0.0453410
1875.6, 0.0454080
1876.28, 0.0454760
1876.96, 0.0453410
1877.64, 0.0452070
1878.32, 0.0451390
1879.0, 0.0452070
1879.68, 0.0450720
1880.36, 0.0448700
1881.04, 0.0448030
1881.73, 0.0446680
1882.41, 0.0445340
1883.09, 0.0442650
1883.78, 0.0441980
1884.46, 0.0438610
1885.15, 0.0439290
1885.83, 0.0441300
1886.52, 0.0437270
1887.21, 0.0439290
1887.89, 0.0437940
1888.58, 0.0437270
1889.27, 0.0435250
1889.96, 0.0433230
1890.65, 0.0433900
1891.34, 0.0430540
1892.03, 0.0429870
1892.72, 0.0429190
1893.41, 0.0427180
1894.1, 0.0425830
1894.79, 0.0424490
1895.49, 0.0425160
1896.18, 0.0422470
1896.87, 0.0419780
1897.57, 0.0421120
1898.26, 0.0420450
1898.96, 0.0418430
1899.65, 0.0415070
1900.35, 0.0413720
1901.05, 0.0415740
1901.74, 0.0412380
1902.44, 0.0411700
1903.14, 0.0412380
1903.84, 0.0411030
1904.54, 0.0409010
1905.24, 0.0410360
1905.94, 0.0411030
1906.64, 0.0409010
1907.34, 0.0405650
1908.04, 0.0403630
1908.75, 0.0400940
1909.45, 0.0400270
1910.15, 0.0400940
1910.86, 0.0399590
1911.56, 0.0397580
1912.27, 0.0395560
1912.97, 0.0396900
1913.68, 0.0395560
1914.39, 0.0395560
1915.09, 0.0396900
1915.8, 0.0396900
1916.51, 0.0394890
1917.22, 0.0393540
1917.93, 0.0394210
1918.64, 0.0392870
1919.35, 0.0391520
1920.06, 0.0392190
1920.77, 0.0391520
1921.48, 0.0390180
1922.19, 0.0389500
1922.91, 0.0388830
1923.62, 0.0390180
1924.33, 0.0388830
1925.05, 0.0387490
1925.76, 0.0385470
1926.48, 0.0386140
1927.19, 0.0386810
1927.91, 0.0384790
1928.63, 0.0383450
1929.35, 0.0382100
1930.07, 0.0381430
1930.78, 0.0380760
1931.5, 0.0379410
1932.22, 0.0378740
1932.94, 0.0379410
1933.66, 0.0380760
1934.39, 0.0379410
1935.11, 0.0378070
1935.83, 0.0379410
1936.55, 0.0380090
1937.28, 0.0380090
1938.0, 0.0378070
1938.73, 0.0376050
1939.45, 0.0374030
1940.18, 0.0375380
1940.9, 0.0377390
1941.63, 0.0376720
1942.36, 0.0376050
1943.09, 0.0374030
1943.81, 0.0373360
1944.54, 0.0371340
1945.27, 0.0369320
1946.0, 0.0370670
1946.73, 0.0372690
1947.47, 0.0371340
1948.2, 0.0368650
1948.93, 0.0370670
1949.66, 0.0371340
1950.4, 0.0368650
1951.13, 0.0368650
1951.86, 0.0367980
1952.6, 0.0367300
1953.34, 0.0367980
1954.07, 0.0366630
1954.81, 0.0365960
1955.55, 0.0363940
1956.29, 0.0364610
1957.02, 0.0365290
1957.76, 0.0365290
1958.5, 0.0366630
1959.24, 0.0367300
1959.98, 0.0365960
1960.72, 0.0363270
1961.47, 0.0363940
1962.21, 0.0363270
1962.95, 0.0363270
1963.7, 0.0363270
1964.44, 0.0361250
1965.18, 0.0359230
1965.93, 0.0360580
1966.67, 0.0361250
1967.42, 0.0361250
1968.17, 0.0361250
1968.92, 0.0359900
1969.66, 0.0359900
1970.41, 0.0360580
1971.16, 0.0362600
1971.91, 0.0363940
1972.66, 0.0363270
1973.41, 0.0361920
1974.16, 0.0359900
1974.92, 0.0360580
1975.67, 0.0360580
1976.42, 0.0361250
1977.18, 0.0362600
1977.93, 0.0362600
1978.69, 0.0363270
1979.44, 0.0361920
1980.2, 0.0361250
1980.95, 0.0361920
1981.71, 0.0362600
1982.47, 0.0361250
1983.23, 0.0360580
1983.99, 0.0361920
1984.74, 0.0363270
1985.51, 0.0362600
1986.27, 0.0362600
1987.03, 0.0363940
1987.79, 0.0363940
1988.55, 0.0363940
1989.32, 0.0364610
1990.08, 0.0363940
1990.84, 0.0364610
1991.61, 0.0364610
1992.37, 0.0364610
1993.14, 0.0363940
1993.9, 0.0363940
1994.67, 0.0363940
1995.44, 0.0362600
1996.21, 0.0362600
1996.98, 0.0363940
1997.75, 0.0365960
1998.52, 0.0367980
1999.29, 0.0368650
2000.06, 0.0366630
2000.83, 0.0365960
2001.6, 0.0366630
2002.38, 0.0367980
2003.15, 0.0367980
2003.93, 0.0366630
2004.7, 0.0365960
2005.48, 0.0366630
2006.25, 0.0365290
2007.03, 0.0362600
2007.81, 0.0361920
2008.58, 0.0366630
2009.36, 0.0368650
2010.14, 0.0367980
2010.92, 0.0367300
2011.7, 0.0367300
2012.48, 0.0367300
2013.26, 0.0366630
2014.05, 0.0366630
2014.83, 0.0367300
2015.61, 0.0366630
2016.4, 0.0367300
2017.18, 0.0367980
2017.97, 0.0367980
2018.75, 0.0369320
2019.54, 0.0369320
2020.32, 0.0369320
2021.11, 0.0369320
2021.9, 0.0367980
2022.69, 0.0366630
2023.48, 0.0369320
2024.27, 0.0369320
2025.06, 0.0367300
2025.85, 0.0368650
2026.64, 0.0371340
2027.44, 0.0372010
2028.23, 0.0371340
2029.02, 0.0368650
2029.82, 0.0367300
2030.61, 0.0367300
2031.41, 0.0369320
2032.2, 0.0370670
2033.0, 0.0371340
2033.8, 0.0371340
2034.6, 0.0371340
2035.4, 0.0371340
2036.2, 0.0370670
2037.0, 0.0370000
2037.8, 0.0370000
2038.6, 0.0371340
2039.4, 0.0372010
2040.2, 0.0372690
2041.01, 0.0373360
2041.81, 0.0371340
2042.61, 0.0370670
2043.42, 0.0373360
2044.22, 0.0374030
2045.03, 0.0372010
2045.84, 0.0372010
2046.65, 0.0372690
2047.46, 0.0372690
2048.26, 0.0372690
2049.07, 0.0372690
2049.88, 0.0372010
2050.69, 0.0372010
2051.51, 0.0371340
2052.32, 0.0371340
2053.13, 0.0373360
2053.94, 0.0374030
2054.76, 0.0374030
2055.57, 0.0374030
2056.39, 0.0374700
2057.2, 0.0374700
2058.02, 0.0374700
2058.84, 0.0375380
2059.66, 0.0374700
2060.48, 0.0376050
2061.29, 0.0376050
2062.11, 0.0374030
2062.94, 0.0373360
2063.76, 0.0373360
2064.58, 0.0374700
2065.4, 0.0374700
2066.22, 0.0374700
2067.05, 0.0375380
2067.87, 0.0374030
2068.7, 0.0374700
2069.52, 0.0375380
2070.35, 0.0375380
2071.18, 0.0375380
2072.0, 0.0376050
2072.83, 0.0378070
2073.66, 0.0376720
2074.49, 0.0374030
2075.32, 0.0375380
2076.15, 0.0376050
2076.98, 0.0375380
2077.82, 0.0374700
2078.65, 0.0376050
2079.48, 0.0378070
2080.32, 0.0377390
2081.15, 0.0376050
2081.99, 0.0375380
2082.83, 0.0375380
2083.66, 0.0376720
2084.5, 0.0376050
2085.34, 0.0376050
2086.18, 0.0377390
2087.02, 0.0375380
2087.86, 0.0375380
2088.7, 0.0376050
2089.54, 0.0376720
2090.39, 0.0376050
2091.23, 0.0378070
2092.07, 0.0379410
2092.92, 0.0380090
2093.76, 0.0378740
2094.61, 0.0379410
2095.45, 0.0379410
2096.3, 0.0376050
2097.15, 0.0374030
2098.0, 0.0374700
2098.85, 0.0376050
2099.7, 0.0379410
2100.55, 0.0380090
2101.4, 0.0376720
2102.25, 0.0374030
2103.1, 0.0372010
2103.96, 0.0374700
2104.81, 0.0376720
2105.67, 0.0376720
2106.52, 0.0376050
2107.38, 0.0376050
2108.24, 0.0376050
2109.09, 0.0375380
2109.95, 0.0376720
2110.81, 0.0376720
2111.67, 0.0376720
2112.53, 0.0376050
2113.39, 0.0376050
2114.25, 0.0376050
2115.12, 0.0374700
2115.98, 0.0373360
2116.84, 0.0374700
2117.71, 0.0376720
2118.58, 0.0375380
2119.44, 0.0376050
2120.31, 0.0378740
2121.18, 0.0378740
2122.04, 0.0378070
2122.91, 0.0378070
2123.78, 0.0378070
2124.65, 0.0376050
2125.52, 0.0376050
2126.4, 0.0377390
2127.27, 0.0380090
2128.14, 0.0378740
2129.02, 0.0377390
2129.89, 0.0378070
2130.77, 0.0378740
2131.64, 0.0378070
2132.52, 0.0378740
2133.4, 0.0378740
2134.27, 0.0377390
2135.15, 0.0376720
2136.03, 0.0378740
2136.91, 0.0378740
2137.79, 0.0377390
2138.68, 0.0378070
2139.56, 0.0379410
2140.44, 0.0378740
2141.33, 0.0378070
2142.21, 0.0377390
2143.1, 0.0378740
2143.99, 0.0381430
2144.87, 0.0380760
2145.76, 0.0380090
2146.65, 0.0378740
2147.54, 0.0379410
2148.43, 0.0382100
2149.32, 0.0381430
2150.21, 0.0380090
2151.1, 0.0381430
2151.99, 0.0382100
2152.89, 0.0382780
2153.78, 0.0383450
2154.68, 0.0383450
2155.57, 0.0383450
2156.47, 0.0383450
2157.37, 0.0382780
2158.27, 0.0380760
2159.16, 0.0379410
2160.06, 0.0380760
2160.96, 0.0382100
2161.86, 0.0381430
2162.77, 0.0381430
2163.67, 0.0382100
2164.57, 0.0382780
2165.48, 0.0384120
2166.38, 0.0384790
2167.29, 0.0384790
2168.2, 0.0384790
2169.1, 0.0384120
2170.01, 0.0382780
2170.92, 0.0382780
2171.83, 0.0384790
2172.74, 0.0386810
2173.65, 0.0386810
2174.56, 0.0386810
2175.47, 0.0388160
2176.39, 0.0389500
2177.3, 0.0388830
2178.22, 0.0388160
2179.13, 0.0389500
2180.05, 0.0389500
2180.96, 0.0388160
2181.88, 0.0387490
2182.8, 0.0391520
2183.72, 0.0392870
2184.64, 0.0392190
2185.56, 0.0390180
2186.48, 0.0391520
2187.41, 0.0394210
2188.33, 0.0394890
2189.25, 0.0394890
2190.18, 0.0394890
2191.1, 0.0394210
2192.03, 0.0394890
2192.96, 0.0395560
2193.89, 0.0394890
2194.82, 0.0396230
2195.74, 0.0398250
2196.68, 0.0399590
2197.61, 0.0398920
2198.54, 0.0398250
2199.47, 0.0397580
2200.4, 0.0398920
2201.34, 0.0402290
2202.28, 0.0401610
2203.21, 0.0401610
2204.15, 0.0402960
2205.08, 0.0402960
2206.02, 0.0403630
2206.96, 0.0402960
2207.9, 0.0401610
2208.84, 0.0402960
2209.78, 0.0404980
2210.73, 0.0404980
2211.67, 0.0406320
2212.61, 0.0409010
2213.56, 0.0409690
2214.5, 0.0409010
2215.45, 0.0409010
2216.4, 0.0409690
2217.35, 0.0409010
2218.3, 0.0409690
2219.24, 0.0411030
2220.2, 0.0412380
2221.15, 0.0413050
2222.1, 0.0413050
2223.05, 0.0413720
2224.0, 0.0415070
2224.96, 0.0415070
2225.91, 0.0415070
2226.87, 0.0416410
2227.83, 0.0417090
2228.79, 0.0417760
2229.74, 0.0417760
2230.7, 0.0416630
2231.66, 0.0416630
2232.63, 0.0414930
2233.59, 0.0412660
2234.55, 0.0413230
2235.51, 0.0414360
2236.48, 0.0413800
2237.44, 0.0413800
2238.41, 0.0412100
2239.38, 0.0411530
2240.34, 0.0413230
2241.31, 0.0414360
2242.28, 0.0414930
2243.25, 0.0415490
2244.22, 0.0414930
2245.19, 0.0416060
2246.17, 0.0417760
2247.14, 0.0415490
2248.12, 0.0412100
2249.09, 0.0413230
2250.07, 0.0416060
2251.04, 0.0414930
2252.02, 0.0413800
2253.0, 0.0413800
2253.98, 0.0414360
2254.96, 0.0416630
2255.94, 0.0411530
2256.92, 0.0408700
2257.91, 0.0408130
2258.89, 0.0405300
2259.88, 0.0401910
2260.86, 0.0402470
2261.85, 0.0404170
2262.83, 0.0405870
2263.82, 0.0405870
2264.81, 0.0405870
2265.8, 0.0407000
2266.79, 0.0408700
2267.78, 0.0408130
2268.78, 0.0406440
2269.77, 0.0404170
2270.76, 0.0403610
2271.76, 0.0403610
2272.75, 0.0405870
2273.75, 0.0402470
2274.75, 0.0400210
2275.75, 0.0400780
2276.75, 0.0400780
2277.75, 0.0400780
2278.75, 0.0399080
2279.75, 0.0396810
2280.75, 0.0397380
2281.76, 0.0396810
2282.76, 0.0395680
2283.77, 0.0395680
2284.77, 0.0393980
2285.78, 0.0393420
2286.79, 0.0392850
2287.8, 0.0392850
2288.81, 0.0393420
2289.82, 0.0392850
2290.83, 0.0391720
2291.84, 0.0391720
2292.86, 0.0390020
2293.87, 0.0387760
2294.89, 0.0387760
2295.91, 0.0384360
2296.92, 0.0384930
2297.94, 0.0387760
2298.96, 0.0388320
2299.98, 0.0387760
2301.0, 0.0387190
2302.02, 0.0386620
2303.04, 0.0387760
2304.07, 0.0386060
2305.09, 0.0382100
2306.12, 0.0379830
2307.15, 0.0379270
2308.17, 0.0379830
2309.2, 0.0379270
2310.23, 0.0379270
2311.26, 0.0379830
2312.29, 0.0378130
2313.32, 0.0377570
2314.35, 0.0375870
2315.39, 0.0375300
2316.42, 0.0377570
2317.46, 0.0377570
2318.5, 0.0376440
2319.53, 0.0376440
2320.57, 0.0376440
2321.61, 0.0372470
2322.65, 0.0368510
2323.69, 0.0370210
2324.73, 0.0371340
2325.78, 0.0370210
2326.82, 0.0370210
2327.86, 0.0368510
2328.91, 0.0369080
2329.96, 0.0371910
2331.01, 0.0375300
2332.05, 0.0374740
2333.1, 0.0372470
2334.15, 0.0370210
2335.21, 0.0368510
2336.26, 0.0369640
2337.31, 0.0370210
2338.36, 0.0368510
2339.42, 0.0367380
2340.48, 0.0365680
2341.53, 0.0365680
2342.59, 0.0366810
2343.65, 0.0369080
2344.71, 0.0369640
2345.77, 0.0367940
2346.83, 0.0367380
2347.9, 0.0365680
2348.96, 0.0364550
2350.02, 0.0365110
2351.09, 0.0366250
2352.16, 0.0365680
2353.23, 0.0364550
2354.29, 0.0361150
2355.36, 0.0360020
2356.43, 0.0361720
2357.51, 0.0361150
2358.58, 0.0360590
2359.65, 0.0360020
2360.73, 0.0359450
2361.8, 0.0360020
2362.88, 0.0361720
2363.96, 0.0360590
2365.03, 0.0360020
2366.11, 0.0360020
2367.19, 0.0357750
2368.27, 0.0355490
2369.36, 0.0356060
2370.44, 0.0355490
2371.53, 0.0356060
2372.61, 0.0356060
2373.7, 0.0355490
2374.78, 0.0352660
2375.87, 0.0350960
2376.96, 0.0352090
2378.05, 0.0353230
2379.14, 0.0353790
2380.24, 0.0353230
2381.33, 0.0350400
2382.42, 0.0349830
2383.52, 0.0347570
2384.61, 0.0347570
2385.71, 0.0348700
2386.81, 0.0345870
2387.91, 0.0346430
2389.01, 0.0348130
2390.11, 0.0347000
2391.22, 0.0342470
2392.32, 0.0342470
2393.42, 0.0341900
2394.53, 0.0341340
2395.64, 0.0343600
2396.74, 0.0343600
2397.85, 0.0342470
2398.96, 0.0340770
2400.07, 0.0337940
2401.18, 0.0336810
2402.3, 0.0336240
2403.41, 0.0334550
2404.52, 0.0335110
2405.64, 0.0335110
2406.76, 0.0333410
2407.88, 0.0332280
2408.99, 0.0331720
2410.11, 0.0332850
2411.23, 0.0332850
2412.36, 0.0331720
2413.48, 0.0328890
2414.6, 0.0324920
2415.73, 0.0324920
2416.85, 0.0326060
2417.98, 0.0326060
2419.11, 0.0326060
2420.24, 0.0323220
2421.37, 0.0319830
2422.5, 0.0316430
2423.64, 0.0318130
2424.77, 0.0321530
2425.9, 0.0320960
2427.04, 0.0318700
2428.18, 0.0319260
2429.31, 0.0320390
2430.45, 0.0318130
2431.59, 0.0317560
2432.73, 0.0317000
2433.88, 0.0316430
2435.02, 0.0315300
2436.16, 0.0313600
2437.31, 0.0312470
2438.45, 0.0310210
2439.6, 0.0310210
2440.75, 0.0312470
2441.9, 0.0312470
2443.05, 0.0310770
2444.2, 0.0309640
2445.35, 0.0310210
2446.51, 0.0310770
2447.67, 0.0310770
2448.82, 0.0309640
2449.98, 0.0308510
2451.14, 0.0309070
2452.3, 0.0309070
2453.46, 0.0307370
2454.62, 0.0307370
2455.78, 0.0308510
2456.94, 0.0307940
2458.11, 0.0305680
2459.28, 0.0306240
2460.44, 0.0305680
2461.61, 0.0306810
2462.78, 0.0306810
2463.95, 0.0305680
2465.12, 0.0306240
2466.3, 0.0306810
2467.47, 0.0307370
2468.65, 0.0307370
2469.82, 0.0306240
2471.0, 0.0306810
2472.18, 0.0307370
2473.36, 0.0305680
2474.54, 0.0304540
2475.72, 0.0305680
2476.9, 0.0307370
2478.08, 0.0309640
2479.27, 0.0307940
2480.46, 0.0307370
2481.64, 0.0305680
2482.83, 0.0303980
2484.02, 0.0304540
2485.21, 0.0307370
2486.4, 0.0306810
2487.6, 0.0303980
2488.79, 0.0302850
2489.99, 0.0305110
2491.18, 0.0306240
2492.38, 0.0305110
2493.58, 0.0305680
2494.78, 0.0305110
2495.98, 0.0304540
2497.18, 0.0304540
2498.39, 0.0302280
2499.59, 0.0301710
2500.8, 0.0300580
2502.01, 0.0302280
2503.21, 0.0303980
2504.42, 0.0303410
2505.63, 0.0302280
2506.84, 0.0301710
2508.06, 0.0300020
2509.27, 0.0300020
2510.49, 0.0300020
2511.7, 0.0301150
2512.92, 0.0301710
2514.14, 0.0300020
2515.36, 0.0299450
2516.58, 0.0298880
2517.8, 0.0299450
2519.03, 0.0298880
2520.25, 0.0298320
2521.48, 0.0297190
2522.7, 0.0299450
2523.93, 0.0300020
2525.16, 0.0299450
2526.39, 0.0298880
2527.62, 0.0299450
2528.86, 0.0301150
2530.09, 0.0300020
2531.33, 0.0297190
2532.56, 0.0295490
2533.8, 0.0295490
2535.04, 0.0293790
2536.28, 0.0293790
2537.52, 0.0295490
2538.76, 0.0296050
2540.01, 0.0294920
2541.25, 0.0293790
2542.5, 0.0292090
2543.75, 0.0292090
2544.99, 0.0294360
2546.24, 0.0294360
2547.49, 0.0292090
2548.75, 0.0293220
2550.0, 0.0293220
2551.26, 0.0292090
2552.51, 0.0291520
2553.77, 0.0293220
2555.03, 0.0293790
2556.29, 0.0293790
2557.55, 0.0294920
2558.81, 0.0293220
2560.08, 0.0290960
2561.34, 0.0288130
2562.61, 0.0287560
2563.88, 0.0287000
2565.14, 0.0288690
2566.41, 0.0290960
2567.68, 0.0289830
2568.96, 0.0287560
2570.23, 0.0288690
2571.51, 0.0292090
2572.78, 0.0288130
2574.06, 0.0287000
2575.34, 0.0290390
2576.62, 0.0288690
2577.9, 0.0290960
2579.18, 0.0292660
2580.47, 0.0289830
2581.75, 0.0290960
2583.04, 0.0287000
2584.32, 0.0287000
2585.61, 0.0292090
2586.9, 0.0288130
2588.2, 0.0287560
2589.49, 0.0290390
2590.78, 0.0291520
2592.08, 0.0290390
2593.37, 0.0280770
2594.67, 0.0270010
2595.97, 0.0278510
2597.27, 0.0287560
2598.57, 0.0291520
2599.88, 0.0291520
2601.18, 0.0290390
2602.49, 0.0289260
2603.79, 0.0286430
2605.1, 0.0280770
2606.41, 0.0280200
2607.72, 0.0284170
2609.03, 0.0284170
2610.35, 0.0285300
2611.66, 0.0287000
2612.98, 0.0285860
2614.3, 0.0287560
2615.62, 0.0280770
2616.94, 0.0275110
2618.26, 0.0280770
2619.58, 0.0278510
2620.91, 0.0279070
2622.23, 0.0286430
2623.56, 0.0287000
2624.89, 0.0283600
2626.22, 0.0277940
2627.55, 0.0277940
2628.88, 0.0276240
2630.21, 0.0270580
2631.55, 0.0274540
2632.89, 0.0277940
2634.22, 0.0277940
2635.56, 0.0280770
2636.9, 0.0279640
2638.25, 0.0279640
2639.59, 0.0280200
2640.93, 0.0278510
2642.28, 0.0277370
2643.63, 0.0277940
2644.98, 0.0276810
2646.33, 0.0277940
2647.68, 0.0278510
2649.03, 0.0276810
2650.39, 0.0273980
2651.74, 0.0271150
2653.1, 0.0269450
2654.46, 0.0268880
2655.82, 0.0268880
2657.18, 0.0270580
2658.54, 0.0266620
2659.9, 0.0264920
2661.27, 0.0266620
2662.64, 0.0266050
2664.01, 0.0258690
2665.38, 0.0250770
2666.74, 0.0250200
2668.12, 0.0255860
2669.49, 0.0252470
2670.87, 0.0251330
2672.24, 0.0260390
2673.62, 0.0260390
2675.0, 0.0255860
2676.38, 0.0250770
2677.76, 0.0251900
2679.15, 0.0252470
2680.54, 0.0255300
2681.92, 0.0255860
2683.31, 0.0253600
2684.7, 0.0252470
2686.09, 0.0250770
2687.48, 0.0250770
2688.88, 0.0250770
2690.27, 0.0250770
2691.67, 0.0248500
2693.07, 0.0242280
2694.47, 0.0240580
2695.87, 0.0242840
2697.27, 0.0246240
2698.67, 0.0245670
2700.08, 0.0242280
2701.49, 0.0241140
2702.9, 0.0243980
2704.31, 0.0243410
2705.72, 0.0240010
2707.13, 0.0237180
2708.54, 0.0232090
2709.96, 0.0226430
2711.38, 0.0224730
2712.8, 0.0228690
2714.22, 0.0228130
2715.64, 0.0228130
2717.06, 0.0226990
2718.49, 0.0223030
2719.91, 0.0216240
2721.34, 0.0217370
2722.77, 0.0220200
2724.2, 0.0217370
2725.63, 0.0217940
2727.07, 0.0219630
2728.5, 0.0220200
2729.94, 0.0220200
2731.38, 0.0219630
2732.82, 0.0218500
2734.26, 0.0211710
2735.7, 0.0210010
2737.15, 0.0210580
2738.59, 0.0203220
2740.04, 0.0197560
2741.49, 0.0199260
2742.94, 0.0203220
2744.39, 0.0203780
2745.84, 0.0203780
2747.3, 0.0201520
2748.76, 0.0199260
2750.21, 0.0197560
2751.67, 0.0194730
2753.14, 0.0193030
2754.6, 0.0186240
2756.06, 0.0182270
2757.53, 0.0186240
2759.0, 0.0187370
2760.46, 0.0184540
2761.94, 0.0178310
2763.41, 0.0177180
2764.88, 0.0179440
2766.36, 0.0175480
2767.83, 0.0172080
2769.31, 0.0173220
2770.79, 0.0171520
2772.27, 0.0170950
2773.76, 0.0171520
2775.24, 0.0170390
2776.73, 0.0166990
2778.22, 0.0164730
2779.71, 0.0163030
2781.2, 0.0160200
2782.69, 0.0160760
2784.18, 0.0159070
2785.68, 0.0155670
2787.18, 0.0153400
2788.68, 0.0152840
2790.18, 0.0153400
2791.68, 0.0151710
2793.19, 0.0148310
2794.69, 0.0146050
2796.2, 0.0145480
2797.71, 0.0144350
2799.22, 0.0143780
2800.73, 0.0142080
2802.24, 0.0138120
2803.76, 0.0136420
2805.28, 0.0136420
2806.8, 0.0135860
2808.32, 0.0135290
2809.84, 0.0133590
2811.36, 0.0132460
2812.89, 0.0131330
2814.42, 0.0129630
2815.94, 0.0129060
2817.48, 0.0130200
2819.01, 0.0127370
2820.54, 0.0124530
2822.08, 0.0124530
2823.61, 0.0124530
2825.15, 0.0122840
2826.69, 0.0121700
2828.23, 0.0120570
2829.78, 0.0120010
2831.32, 0.0119440
2832.87, 0.0118870
2834.42, 0.0118310
2835.97, 0.0117740
2837.52, 0.0118310
2839.08, 0.0118310
2840.63, 0.0117180
2842.19, 0.0114910
2843.75, 0.0114910
2845.31, 0.0115480
2846.87, 0.0113780
2848.44, 0.0110950
2850.0, 0.0109820
2851.57, 0.0109250
2853.14, 0.0108690
2854.71, 0.0109250
2856.28, 0.0108690
2857.86, 0.0109820
2859.43, 0.0110380
2861.01, 0.0108690
2862.59, 0.0106990
2864.17, 0.0106420
2865.76, 0.0108120
2867.34, 0.0108120
2868.93, 0.0107550
2870.52, 0.0105850
2872.11, 0.0104720
2873.7, 0.0104720
2875.29, 0.0105850
2876.89, 0.0105290
2878.49, 0.0105290
2880.08, 0.0105290
2881.69, 0.0104720
2883.29, 0.0103590
2884.89, 0.0104160
2886.5, 0.0104720
2888.11, 0.0104720
2889.72, 0.0104160
2891.33, 0.0104160
2892.94, 0.0104720
2894.56, 0.0104160
2896.17, 0.0104160
2897.79, 0.0103590
2899.42, 0.0101890
2901.04, 0.0101890
2902.66, 0.0101890
2904.29, 0.0101330
2905.92, 0.0101890
2907.55, 0.0103020
2909.18, 0.0103590
2910.81, 0.0104160
2912.45, 0.0104160
2914.08, 0.0102460
2915.72, 0.0102460
2917.36, 0.0101890
2919.01, 0.0101330
2920.65, 0.0101890
2922.3, 0.0100190
2923.94, 0.0100760
2925.59, 0.0101890
2927.25, 0.0103020
2928.9, 0.0103590
2930.56, 0.0101890
2932.21, 0.0100190
2933.87, 0.00996300
2935.53, 0.0100760
2937.2, 0.0103020
2938.86, 0.0103590
2940.53, 0.0102460
2942.2, 0.0101890
2943.87, 0.0101890
2945.54, 0.0102460
2947.22, 0.0103020
2948.89, 0.0103590
2950.57, 0.0103020
2952.25, 0.0101890
2953.93, 0.0101890
2955.62, 0.0104160
2957.3, 0.0104720
2958.99, 0.0104160
2960.68, 0.0104720
2962.37, 0.0106420
2964.07, 0.0106420
2965.76, 0.0106420
2967.46, 0.0107550
2969.16, 0.0107550
2970.86, 0.0109250
2972.56, 0.0110950
2974.27, 0.0111520
2975.98, 0.0112080
2977.69, 0.0114350
2979.4, 0.0116040
2981.11, 0.0118310
2982.83, 0.0119440
2984.54, 0.0122840
2986.26, 0.0126230
2987.98, 0.0127370
2989.71, 0.0128500
2991.43, 0.0131890
2993.16, 0.0135860
2994.89, 0.0137550
2996.62, 0.0138690
2998.35, 0.0139820
3000.09, 0.0139250
3001.83, 0.0138690
3003.57, 0.0139820
3005.31, 0.0140950
3007.05, 0.0140950
3008.79, 0.0139820
3010.54, 0.0139250
3012.29, 0.0139250
3014.04, 0.0140380
3015.8, 0.0139250
3017.55, 0.0137550
3019.31, 0.0136990
3021.07, 0.0136420
3022.83, 0.0135290
3024.59, 0.0136990
3026.36, 0.0138120
3028.13, 0.0137550
3029.9, 0.0136420
3031.67, 0.0136420
3033.44, 0.0137550
3035.22, 0.0136420
3037.0, 0.0135290
3038.78, 0.0134720
3040.56, 0.0136420
3042.34, 0.0138120
3044.13, 0.0138120
3045.92, 0.0138120
3047.71, 0.0138120
3049.5, 0.0138120
3051.3, 0.0138690
3053.09, 0.0138120
3054.89, 0.0139250
3056.69, 0.0140380
3058.5, 0.0140950
3060.3, 0.0140380
3062.11, 0.0140380
3063.92, 0.0142080
3065.73, 0.0143220
3067.55, 0.0144350
3069.36, 0.0144350
3071.18, 0.0144910
3073.0, 0.0145480
3074.82, 0.0146050
3076.65, 0.0146050
3078.48, 0.0144910
3080.31, 0.0144350
3082.14, 0.0144350
3083.97, 0.0145480
3085.8, 0.0146610
3087.64, 0.0147180
3089.48, 0.0147180
3091.33, 0.0146050
3093.17, 0.0146050
3095.02, 0.0147180
3096.87, 0.0146610
3098.72, 0.0146610
3100.57, 0.0147740
3102.43, 0.0147740
3104.28, 0.0147740
3106.14, 0.0148310
3108.01, 0.0148880
3109.87, 0.0148880
3111.74, 0.0149440
3113.61, 0.0150010
3115.48, 0.0149440
3117.35, 0.0150570
3119.23, 0.0151710
3121.1, 0.0152270
3122.98, 0.0151140
3124.87, 0.0149440
3126.75, 0.0149440
3128.64, 0.0150010
3130.53, 0.0149440
3132.42, 0.0149440
3134.31, 0.0149440
3136.21, 0.0150570
3138.11, 0.0151140
3140.01, 0.0151140
3141.91, 0.0151140
3143.82, 0.0150570
3145.73, 0.0149440
3147.64, 0.0150570
3149.55, 0.0152840
3151.46, 0.0152270
3153.38, 0.0151710
3155.3, 0.0151710
3157.22, 0.0151140
3159.14, 0.0150570
3161.07, 0.0151710
3163.0, 0.0152270
3164.93, 0.0152270
3166.86, 0.0151140
3168.8, 0.0150570
3170.74, 0.0151140
3172.68, 0.0153400
3174.62, 0.0152840
3176.56, 0.0152840
3178.51, 0.0151710
3180.46, 0.0151710
3182.42, 0.0152270
3184.37, 0.0153400
3186.33, 0.0153970
3188.29, 0.0153970
3190.25, 0.0152840
3192.21, 0.0153400
3194.18, 0.0153970
3196.15, 0.0153970
3198.12, 0.0153400
3200.09, 0.0153400
3202.07, 0.0155100
3204.05, 0.0155100
3206.03, 0.0155100
3208.02, 0.0155670
3210.0, 0.0156800
3211.99, 0.0156800
3213.98, 0.0156230
3215.98, 0.0155670
3217.97, 0.0156230
3219.97, 0.0156230
3221.97, 0.0156230
3223.98, 0.0156230
3225.98, 0.0156800
3227.99, 0.0157370
3230.0, 0.0157370
3232.02, 0.0159070
3234.03, 0.0159630
3236.05, 0.0160760
3238.07, 0.0161330
3240.1, 0.0160760
3242.12, 0.0161330
3244.15, 0.0161900
3246.18, 0.0161330
3248.22, 0.0163030
3250.25, 0.0164730
3252.29, 0.0165860
3254.33, 0.0165860
3256.38, 0.0166420
3258.43, 0.0167560
3260.47, 0.0168120
3262.53, 0.0168120
3264.58, 0.0168690
3266.64, 0.0170390
3268.7, 0.0170390
3270.76, 0.0171520
3272.82, 0.0173220
3274.89, 0.0174910
3276.96, 0.0175480
3279.04, 0.0176050
3281.11, 0.0177180
3283.19, 0.0178880
3285.27, 0.0179440
3287.35, 0.0180010
3289.44, 0.0178880
3291.53, 0.0179440
3293.62, 0.0181710
3295.71, 0.0184540
3297.81, 0.0185100
3299.91, 0.0184540
3302.01, 0.0185670
3304.11, 0.0188500
3306.22, 0.0189630
3308.33, 0.0190760
3310.44, 0.0193030
3312.56, 0.0194730
3314.68, 0.0196430
3316.8, 0.0196990
3318.92, 0.0199260
3321.05, 0.0200950
3323.18, 0.0203220
3325.31, 0.0204350
3327.44, 0.0205480
3329.58, 0.0207750
3331.72, 0.0210010
3333.86, 0.0212280
3336.01, 0.0212840
3338.16, 0.0214540
3340.31, 0.0215670
3342.46, 0.0216800
3344.61, 0.0220200
3346.77, 0.0223030
3348.94, 0.0224730
3351.1, 0.0226430
3353.27, 0.0229260
3355.44, 0.0232090
3357.61, 0.0233790
3359.79, 0.0235480
3361.97, 0.0236620
3364.15, 0.0237750
3366.33, 0.0240010
3368.52, 0.0242840
3370.71, 0.0244540
3372.9, 0.0245670
3375.1, 0.0248500
3377.3, 0.0251330
3379.5, 0.0253030
3381.71, 0.0254160
3383.91, 0.0254160
3386.12, 0.0255860
3388.34, 0.0257560
3390.55, 0.0259260
3392.77, 0.0260390
3394.99, 0.0261520
3397.22, 0.0262090
3399.45, 0.0263220
3401.68, 0.0264350
3403.91, 0.0264920
3406.15, 0.0264920
3408.39, 0.0264920
3410.63, 0.0265490
3412.87, 0.0267180
3415.12, 0.0268320
3417.37, 0.0267750
3419.63, 0.0268320
3421.88, 0.0268880
3424.14, 0.0268880
3426.41, 0.0269450
3428.67, 0.0270010
3430.94, 0.0268880
3433.21, 0.0269450
3435.49, 0.0268880
3437.77, 0.0268320
3440.05, 0.0269450
3442.33, 0.0268880
3444.62, 0.0267180
3446.91, 0.0266050
3449.2, 0.0267180
3451.5, 0.0268320
3453.8, 0.0268880
3456.1, 0.0267750
3458.41, 0.0267180
3460.72, 0.0268320
3463.03, 0.0267750
3465.34, 0.0267180
3467.66, 0.0267180
3469.98, 0.0266050
3472.31, 0.0264350
3474.63, 0.0263790
3476.96, 0.0264350
3479.3, 0.0264350
3481.64, 0.0264350
3483.97, 0.0264350
3486.32, 0.0263790
3488.66, 0.0264350
3491.01, 0.0263790
3493.36, 0.0262090
3495.72, 0.0262090
3498.08, 0.0262090
3500.44, 0.0262090
3502.81, 0.0262660
3505.18, 0.0262660
3507.55, 0.0262660
3509.92, 0.0262090
3512.3, 0.0261520
3514.68, 0.0260960
3517.06, 0.0260960
3519.45, 0.0260960
3521.84, 0.0260960
3524.24, 0.0260960
3526.64, 0.0260960
3529.04, 0.0260390
3531.44, 0.0259830
3533.85, 0.0259260
3536.26, 0.0258690
3538.67, 0.0259260
3541.09, 0.0259830
3543.51, 0.0259830
3545.93, 0.0259830
3548.36, 0.0258690
3550.79, 0.0258690
3553.22, 0.0259260
3555.66, 0.0258690
3558.1, 0.0256430
3560.54, 0.0257560
3562.99, 0.0258130
3565.44, 0.0256990
3567.9, 0.0255860
3570.35, 0.0256430
3572.81, 0.0258690
3575.28, 0.0257560
3577.75, 0.0255860
3580.22, 0.0256430
3582.69, 0.0257560
3585.17, 0.0257560
3587.65, 0.0256430
3590.14, 0.0255860
3592.62, 0.0255860
3595.11, 0.0256990
3597.61, 0.0258130
3600.11, 0.0256990
3602.61, 0.0256430
3605.11, 0.0256430
3607.62, 0.0256430
3610.14, 0.0255860
3612.65, 0.0255300
3615.17, 0.0256430
3617.69, 0.0257560
3620.22, 0.0256430
3622.75, 0.0255860
3625.28, 0.0255300
3627.82, 0.0255860
3630.36, 0.0255300
3632.9, 0.0254730
3635.45, 0.0255860
3638.0, 0.0254730
3640.56, 0.0253600
3643.12, 0.0252470
3645.68, 0.0252470
3648.24, 0.0254160
3650.81, 0.0254730
3653.39, 0.0254160
3655.96, 0.0253030
3658.54, 0.0252470
3661.13, 0.0252470
3663.71, 0.0252470
3666.3, 0.0252470
3668.9, 0.0253030
3671.5, 0.0253600
3674.1, 0.0253030
3676.7, 0.0253030
3679.31, 0.0252470
3681.93, 0.0251900
3684.54, 0.0253030
3687.17, 0.0254730
3689.79, 0.0254730
3692.42, 0.0253030
3695.05, 0.0252470
3697.69, 0.0252470
3700.32, 0.0252470
3702.97, 0.0252470
3705.61, 0.0252470
3708.27, 0.0252470
3710.92, 0.0252470
3713.58, 0.0253030
3716.24, 0.0253600
3718.91, 0.0254160
3721.58, 0.0253600
3724.25, 0.0253030
3726.93, 0.0253030
3729.61, 0.0252470
3732.29, 0.0251330
3734.98, 0.0250770
3737.67, 0.0251900
3740.37, 0.0253030
3743.07, 0.0253030
3745.78, 0.0253030
3748.49, 0.0253030
3751.2, 0.0253030
3753.91, 0.0253030
3756.63, 0.0253030
3759.36, 0.0253600
3762.09, 0.0254160
3764.82, 0.0253030
3767.55, 0.0253030
3770.29, 0.0252470
3773.04, 0.0253030
3775.78, 0.0252470
3778.54, 0.0251900
3781.29, 0.0251900
3784.05, 0.0253600
3786.82, 0.0253600
3789.59, 0.0251900
3792.36, 0.0250770
3795.13, 0.0251330
3797.92, 0.0252470
3800.7, 0.0253030
3803.49, 0.0251900
3806.28, 0.0251330
3809.08, 0.0251330
3811.88, 0.0251330
3814.68, 0.0251330
3817.49, 0.0250770
3820.31, 0.0250770
3823.12, 0.0251330
3825.94, 0.0251330
3828.77, 0.0250770
3831.6, 0.0250200
3834.43, 0.0249640
3837.27, 0.0250200
3840.11, 0.0251330
3842.96, 0.0250770
3845.81, 0.0250200
3848.67, 0.0249640
3851.53, 0.0249070
3854.39, 0.0249070
3857.26, 0.0249070
3860.13, 0.0249070
3863.01, 0.0249640
3865.89, 0.0249640
3868.77, 0.0249070
3871.66, 0.0248500
3874.55, 0.0249640
3877.45, 0.0249640
3880.35, 0.0249640
3883.26, 0.0249640
3886.17, 0.0249070
3889.09, 0.0248500
3892.01, 0.0247370
3894.93, 0.0247940
3897.86, 0.0249070
3900.79, 0.0248500
3903.73, 0.0247940
3906.67, 0.0247370
3909.62, 0.0247370
3912.57, 0.0245670
3915.52, 0.0245110
3918.48, 0.0245670
3921.45, 0.0246240
3924.42, 0.0245110
3927.39, 0.0244540
3930.37, 0.0244540
3933.35, 0.0244540
3936.34, 0.0243980
3939.33, 0.0243980
3942.32, 0.0243410
3945.32, 0.0242840
3948.33, 0.0242280
3951.34, 0.0242280
3954.35, 0.0242280
3957.37, 0.0241710
3960.39, 0.0241710
3963.42, 0.0241710
3966.45, 0.0240580
3969.49, 0.0240010
3972.53, 0.0241140
3975.58, 0.0240010
3978.63, 0.0238880
3981.68, 0.0239450
3984.75, 0.0239450
3987.81, 0.0238310
3990.88, 0.0238310
3993.95, 0.0237750
3997.03, 0.0237180
4000.12, 0.0237750
4003.21, 0.0238310
4006.3, 0.0237750
4009.4, 0.0237180
4012.5, 0.0238880
4015.61, 0.0239450
4018.72, 0.0239450
4021.84, 0.0240010
4024.96, 0.0240010
4028.09, 0.0238880
4031.22, 0.0239450
4034.36, 0.0240010
4037.5, 0.0239450
4040.65, 0.0239450
4043.8, 0.0239450
4046.96, 0.0238310
4050.12, 0.0237180
4053.29, 0.0237180
4056.46, 0.0237750
4059.64, 0.0237180
4062.82, 0.0237750
4066.0, 0.0238880
4069.19, 0.0240010
4072.39, 0.0241710
4075.59, 0.0243980
4078.8, 0.0243980
4082.01, 0.0243410
4085.23, 0.0243980
4088.45, 0.0245110
4091.68, 0.0245110
4094.91, 0.0245110
4098.15, 0.0245110
4101.39, 0.0245110
4104.63, 0.0244540
4107.89, 0.0245110
4111.14, 0.0245670
4114.41, 0.0245670
4117.67, 0.0244540
4120.95, 0.0243410
4124.23, 0.0243980
4127.51, 0.0243980
4130.8, 0.0243980
4134.09, 0.0245110
4137.39, 0.0245670
4140.7, 0.0245670
4144.01, 0.0245670
4147.32, 0.0244540
4150.64, 0.0244540
4153.97, 0.0243410
4157.3, 0.0243410
4160.64, 0.0243980
4163.98, 0.0244540
4167.33, 0.0244540
4170.68, 0.0244540
4174.04, 0.0245670
4177.4, 0.0245670
4180.77, 0.0244540
4184.14, 0.0243980
4187.52, 0.0244540
4190.91, 0.0245110
4194.3, 0.0245110
4197.69, 0.0245110
4201.1, 0.0245670
4204.5, 0.0245110
4207.92, 0.0244540
4211.34, 0.0244540
4214.76, 0.0242840
4218.19, 0.0242280
4221.62, 0.0242280
4225.06, 0.0241140
4228.51, 0.0240580
4231.96, 0.0241140
4235.42, 0.0241140
4238.88, 0.0242280
4242.35, 0.0243410
4245.83, 0.0244540
4249.31, 0.0245670
4252.79, 0.0246810
4256.28, 0.0247940
4259.78, 0.0247940
4263.29, 0.0246240
4266.79, 0.0245110
4270.31, 0.0245110
4273.83, 0.0245110
4277.35, 0.0245110
4280.89, 0.0244540
4284.42, 0.0244540
4287.97, 0.0245110
4291.52, 0.0246240
4295.07, 0.0246810
4298.63, 0.0247940
4302.2, 0.0248500
4305.78, 0.0247940
4309.35, 0.0248500
4312.94, 0.0249070
4316.53, 0.0249640
4320.13, 0.0250770
4323.73, 0.0250770
4327.34, 0.0251330
4330.96, 0.0250770
4334.58, 0.0250770
4338.21, 0.0251330
4341.84, 0.0251330
4345.48, 0.0251330
4349.12, 0.0251900
4352.77, 0.0252470
4356.43, 0.0252470
4360.1, 0.0251900
4363.76, 0.0251330
4367.44, 0.0251330
4371.12, 0.0250770
4374.81, 0.0250200
4378.51, 0.0249640
4382.21, 0.0250200
4385.92, 0.0250200
4389.63, 0.0250200
4393.35, 0.0250200
4397.08, 0.0250200
4400.81, 0.0250200
4404.55, 0.0250770
4408.29, 0.0250770
4412.04, 0.0251330
4415.8, 0.0251900
4419.57, 0.0250770
4423.34, 0.0249640
4427.12, 0.0250200
4430.9, 0.0250200
4434.69, 0.0250770
4438.49, 0.0250770
4442.29, 0.0250200
4446.1, 0.0250200
4449.92, 0.0249070
4453.74, 0.0249070
4457.57, 0.0249640
4461.41, 0.0249070
4465.25, 0.0249640
4469.1, 0.0250200
4472.95, 0.0250770
4476.82, 0.0250200
4480.69, 0.0249640
4484.56, 0.0250770
4488.44, 0.0251330
4492.33, 0.0250200
4496.23, 0.0249070
4500.13, 0.0249640
4504.04, 0.0250200
4507.96, 0.0250200
4511.88, 0.0249070
4515.81, 0.0248500
4519.75, 0.0249070
4523.69, 0.0250200
4527.65, 0.0250770
4531.6, 0.0250200
4535.57, 0.0250200
4539.54, 0.0249640
4543.52, 0.0250770
4547.5, 0.0250770
4551.5, 0.0250770
4555.5, 0.0250770
4559.5, 0.0251330
4563.52, 0.0252470
4567.54, 0.0253030
4571.56, 0.0252470
4575.6, 0.0253030
4579.64, 0.0253030
4583.69, 0.0253030
4587.75, 0.0254730
4591.81, 0.0254730
4595.88, 0.0254730
4599.96, 0.0254730
4604.04, 0.0254730
4608.14, 0.0255300
4612.24, 0.0255300
4616.34, 0.0255300
4620.46, 0.0255860
4624.58, 0.0254730
4628.71, 0.0255300
4632.84, 0.0255860
4636.99, 0.0255860
4641.14, 0.0255300
4645.3, 0.0255860
4649.47, 0.0255860
4653.64, 0.0255300
4657.82, 0.0255300
4662.01, 0.0255300
4666.21, 0.0254730
4670.41, 0.0254730
4674.62, 0.0255300
4678.84, 0.0254730
4683.07, 0.0255300
4687.3, 0.0254730
4691.54, 0.0254730
4695.79, 0.0256430
4700.05, 0.0255860
4704.31, 0.0255300
4708.59, 0.0254160
4712.87, 0.0254160
4717.15, 0.0254730
4721.45, 0.0254730
4725.76, 0.0253600
4730.07, 0.0253030
4734.39, 0.0253600
4738.72, 0.0253600
4743.05, 0.0254160
4747.39, 0.0254160
4751.75, 0.0254160
4756.1, 0.0253600
4760.47, 0.0253600
4764.85, 0.0253030
4769.23, 0.0253030
4773.62, 0.0252470
4778.02, 0.0252470
4782.43, 0.0251900
4786.85, 0.0252470
4791.27, 0.0252470
4795.7, 0.0251900
4800.14, 0.0250770
4804.59, 0.0250770
4809.05, 0.0249640
4813.51, 0.0249640
4817.99, 0.0250770
4822.47, 0.0251330
4826.96, 0.0251330
4831.46, 0.0250770
4835.96, 0.0250770
4840.48, 0.0249640
4845.0, 0.0249070
4849.54, 0.0249070
4854.08, 0.0247940
4858.63, 0.0247370
4863.18, 0.0246810
4867.75, 0.0246810
4872.33, 0.0246810
4876.91, 0.0246810
4881.5, 0.0246240
4886.1, 0.0245670
4890.71, 0.0245670
4895.33, 0.0245670
4899.96, 0.0245110
4904.59, 0.0245110
4909.24, 0.0245110
4913.89, 0.0245110
4918.55, 0.0245670
4923.22, 0.0245110
4927.9, 0.0243410
4932.59, 0.0242280
4937.29, 0.0241710
4942.0, 0.0242280
4946.71, 0.0241710
4951.44, 0.0241140
4956.17, 0.0240010
4960.91, 0.0238310
4965.67, 0.0237750
4970.43, 0.0237180
4975.2, 0.0237180
4979.98, 0.0237180
4984.76, 0.0236620
4989.56, 0.0236620
4994.37, 0.0236620
4999.18, 0.0234920
5004.01, 0.0234350
5008.84, 0.0234350
5013.69, 0.0233220
5018.54, 0.0232650
5023.4, 0.0232090
5028.28, 0.0231520
5033.16, 0.0230390
5038.05, 0.0229260
5042.95, 0.0229260
5047.86, 0.0229260
5052.78, 0.0229260
5057.71, 0.0228130
5062.65, 0.0227560
5067.6, 0.0226990
5072.56, 0.0226990
5077.53, 0.0226430
5082.5, 0.0225860
5087.49, 0.0225860
5092.49, 0.0224730
5097.5, 0.0224160
5102.51, 0.0223030
5107.54, 0.0221900
5112.58, 0.0221900
5117.62, 0.0221330
5122.68, 0.0220770
5127.75, 0.0219630
5132.82, 0.0219070
5137.91, 0.0218500
5143.01, 0.0217370
5148.12, 0.0215670
5153.23, 0.0215670
5158.36, 0.0216240
5163.5, 0.0216240
5168.65, 0.0215110
5173.81, 0.0214540
5178.98, 0.0213970
5184.15, 0.0212840
5189.34, 0.0212280
5194.54, 0.0211710
5199.75, 0.0210580
5204.98, 0.0211140
5210.21, 0.0209450
5215.45, 0.0207180
5220.7, 0.0206610
5225.96, 0.0206610
5231.23, 0.0206610
5236.52, 0.0205480
5241.81, 0.0204350
5247.12, 0.0203220
5252.44, 0.0202650
5257.76, 0.0203220
5263.1, 0.0202650
5268.45, 0.0201520
5273.81, 0.0200390
5279.18, 0.0198690
5284.56, 0.0197560
5289.95, 0.0195860
5295.36, 0.0195290
5300.77, 0.0195290
5306.2, 0.0194730
5311.63, 0.0194160
5317.08, 0.0192460
5322.54, 0.0191330
5328.01, 0.0190200
5333.49, 0.0189630
5338.98, 0.0189070
5344.49, 0.0187370
5350.0, 0.0183970
5355.53, 0.0183410
5361.07, 0.0184540
5366.62, 0.0184540
5372.18, 0.0183410
5377.75, 0.0181140
5383.34, 0.0180010
5388.93, 0.0178880
5394.54, 0.0177180
5400.16, 0.0176050
5405.79, 0.0174910
5411.44, 0.0173780
5417.09, 0.0170390
5422.76, 0.0166990
5428.43, 0.0168690
5434.12, 0.0169250
5439.83, 0.0168120
5445.54, 0.0166420
5451.26, 0.0166420
5457.0, 0.0164730
5462.75, 0.0161900
5468.52, 0.0161330
5474.29, 0.0160760
5480.08, 0.0160200
5485.88, 0.0160200
5491.69, 0.0159070
5497.51, 0.0157370
5503.35, 0.0155670
5509.2, 0.0154540
5515.06, 0.0153970
5520.93, 0.0152840
5526.82, 0.0152270
5532.71, 0.0151140
5538.63, 0.0149440
5544.55, 0.0147740
5550.49, 0.0144910
5556.44, 0.0143220
5562.4, 0.0142650
5568.37, 0.0142080
5574.36, 0.0139250
5580.36, 0.0136420
5586.37, 0.0138690
5592.4, 0.0140380
5598.44, 0.0139820
5604.49, 0.0139250
5610.56, 0.0138120
5616.63, 0.0136990
5622.73, 0.0136420
5628.83, 0.0135860
5634.95, 0.0132460
5641.08, 0.0127930
5647.23, 0.0127930
5653.39, 0.0127930
5659.56, 0.0127930
5665.74, 0.0127930
5671.94, 0.0125670
5678.15, 0.0123970
5684.38, 0.0123970
5690.62, 0.0122840
5696.87, 0.0123400
5703.14, 0.0122840
5709.42, 0.0119440
5715.72, 0.0119440
5722.03, 0.0119440
5728.35, 0.0120010
5734.69, 0.0120010
5741.03, 0.0118310
5747.4, 0.0116040
5753.78, 0.0116040
5760.17, 0.0112650
5766.58, 0.0106990
5773.0, 0.0109250
5779.44, 0.0110950
5785.88, 0.0110380
5792.35, 0.0109250
5798.83, 0.0108120
5805.32, 0.0107550
5811.83, 0.0105850
5818.35, 0.0101330
5824.89, 0.00996300
5831.45, 0.0101330
5838.01, 0.0102460
5844.59, 0.0103020
5851.19, 0.0102460
5857.8, 0.0101330
5864.43, 0.00990600
5871.07, 0.00990600
5877.73, 0.00951000
5884.4, 0.00945300
5891.09, 0.00968000
5897.79, 0.00956700
5904.5, 0.00985000
5911.23, 0.0100190
5917.98, 0.0100190
5924.75, 0.00990600
5931.53, 0.00962300
5938.32, 0.00956700
5945.13, 0.0101330
5951.96, 0.0105290
5958.8, 0.0106420
5965.65, 0.0105850
5972.53, 0.0109250
5979.42, 0.0113210
5986.32, 0.0114350
5993.24, 0.0118310
6000.18, 0.0122840
6007.13, 0.0124530
6014.1, 0.0124530
6021.08, 0.0127930
6028.09, 0.0129630
6035.1, 0.0128500
6042.14, 0.0121140
6049.19, 0.0115480
6056.25, 0.0120570
6063.34, 0.0122270
6070.44, 0.0118870
6077.55, 0.0119440
6084.69, 0.0121140
6091.84, 0.0120570
6099.0, 0.0118870
6106.19, 0.0114910
6113.39, 0.0111520
6120.61, 0.0114350
6127.84, 0.0116040
6135.09, 0.0115480
6142.36, 0.0114910
6149.65, 0.0114910
6156.95, 0.0113210
6164.27, 0.0114350
6171.61, 0.0116040
6178.97, 0.0113780
6186.34, 0.0112080
6193.73, 0.0114910
6201.14, 0.0116040
6208.57, 0.0116040
6216.01, 0.0115480
6223.47, 0.0116040
6230.95, 0.0115480
6238.45, 0.0113780
6245.97, 0.0112650
6253.5, 0.0112080
6261.06, 0.0110380
6268.63, 0.0108690
6276.21, 0.0106990
6283.82, 0.0105290
6291.45, 0.0104160
6299.1, 0.0103020
6306.76, 0.0101890
6314.44, 0.0100760
6322.14, 0.00990600
6329.86, 0.00973600
6337.6, 0.00922700
6345.35, 0.00894400
6353.13, 0.00911400
6360.92, 0.00900000
6368.74, 0.00866100
6376.57, 0.00860400
6384.43, 0.00849100
6392.3, 0.00832100
6400.19, 0.00809500
6408.1, 0.00764200
6416.03, 0.00730200
6423.98, 0.00752900
6431.95, 0.00752900
6439.94, 0.00752900
6447.95, 0.00747200
6455.98, 0.00741500
6464.03, 0.00730200
6472.1, 0.00713200
6480.19, 0.00696300
6488.31, 0.00673600
6496.44, 0.00673600
6504.59, 0.00713200
6512.76, 0.00713200
6520.95, 0.00713200
6529.16, 0.00741500
6537.4, 0.00758500
6545.65, 0.00769900
6553.92, 0.00798200
6562.22, 0.00820800
6570.54, 0.00849100
6578.88, 0.00922700
6587.23, 0.0101330
6595.61, 0.0111520
6604.02, 0.0125670
6612.44, 0.0139250
6620.89, 0.0155670
6629.35, 0.0168690
6637.84, 0.0187930
6646.35, 0.0225860
6654.88, 0.0267180
6663.44, 0.0302850
6672.01, 0.0339070
6680.61, 0.0380960
6689.23, 0.0439270
6697.88, 0.0496440
6706.54, 0.0543990
6715.23, 0.0597770
6723.94, 0.0663430
6732.67, 0.0729660
6741.42, 0.0794760
6750.2, 0.0855330
6759.0, 0.0921560
6767.82, 0.0978170
6776.67, 0.103307
6785.54, 0.107779
6794.44, 0.114346
6803.35, 0.123573
6812.29, 0.129913
6821.26, 0.132743
6830.24, 0.136422
6839.25, 0.141517
6848.29, 0.142819
6857.35, 0.139592
6866.43, 0.140158
6875.54, 0.147970
6884.67, 0.152046
6893.82, 0.153687
6903.0, 0.154084
6912.2, 0.155782
6921.43, 0.157990
6930.69, 0.158895
6939.96, 0.159065
6949.27, 0.157027
6958.59, 0.152668
6967.95, 0.153687
6977.33, 0.155272
6986.73, 0.153178
6996.16, 0.151027
7005.61, 0.149895
7015.09, 0.147744
7024.6, 0.145253
7034.13, 0.142479
7043.69, 0.137271
7053.27, 0.136139
7062.88, 0.136705
7072.52, 0.135064
7082.18, 0.132573
7091.87, 0.129969
7101.58, 0.127252
7111.32, 0.123686
7121.09, 0.119950
7130.88, 0.116667
7140.71, 0.111572
7150.56, 0.106024
7160.43, 0.101043
7170.33, 0.0957790
7180.27, 0.0921560
7190.23, 0.0884200
7200.21, 0.0838910
7210.23, 0.0800420
7220.27, 0.0778340
7230.34, 0.0753440
7240.44, 0.0727960
7250.56, 0.0704190
7260.72, 0.0682680
7270.9, 0.0658900
7281.12, 0.0641350
7291.36, 0.0631170
7301.63, 0.0620410
7311.93, 0.0610220
7322.25, 0.0601160
7332.61, 0.0587010
7343.0, 0.0575690
7353.41, 0.0570030
7363.86, 0.0563800
7374.33, 0.0554750
7384.83, 0.0547950
7395.37, 0.0542290
7405.93, 0.0536070
7416.53, 0.0528140
7427.15, 0.0522480
7437.81, 0.0517950
7448.5, 0.0512290
7459.22, 0.0504370
7469.96, 0.0499840
7480.74, 0.0496440
7491.55, 0.0492480
7502.39, 0.0488520
7513.27, 0.0485690
7524.17, 0.0482290
7535.11, 0.0478330
7546.08, 0.0474360
7557.08, 0.0472100
7568.11, 0.0468140
7579.17, 0.0464180
7590.27, 0.0462480
7601.4, 0.0461910
7612.56, 0.0459080
7623.76, 0.0457380
7634.98, 0.0455680
7646.24, 0.0453990
7657.54, 0.0452290
7668.87, 0.0450590
7680.23, 0.0448890
7691.62, 0.0447760
7703.05, 0.0447190
7714.51, 0.0445500
7726.01, 0.0442660
7737.54, 0.0439270
7749.11, 0.0438140
7760.71, 0.0437000
7772.35, 0.0435870
7784.02, 0.0435310
7795.72, 0.0433040
7807.46, 0.0431340
7819.23, 0.0430210
7831.04, 0.0428510
7842.89, 0.0426250
7854.77, 0.0423980
7866.69, 0.0422290
7878.65, 0.0421720
7890.64, 0.0419460
7902.67, 0.0417760
7914.74, 0.0416630
7926.84, 0.0414930
7938.98, 0.0413230
7951.16, 0.0411530
7963.37, 0.0409270
7975.62, 0.0408700
7987.91, 0.0407000
8000.24, 0.0404740
8012.6, 0.0401340
8025.01, 0.0398510
8037.45, 0.0397380
8049.93, 0.0396250
8062.45, 0.0393420
8075.01, 0.0391150
8087.61, 0.0389450
8100.24, 0.0388890
8112.91, 0.0388890
8125.63, 0.0388320
8138.39, 0.0387190
8151.18, 0.0386060
8164.02, 0.0383790
8176.9, 0.0381530
8189.81, 0.0379270
8202.77, 0.0377570
8215.77, 0.0376440
8228.82, 0.0374740
8241.9, 0.0373040
8255.02, 0.0370770
8268.19, 0.0369640
8281.39, 0.0368510
8294.65, 0.0367380
8307.94, 0.0366250
8321.28, 0.0364550
8334.66, 0.0363420
8348.08, 0.0362280
8361.54, 0.0360590
8375.05, 0.0358890
8388.6, 0.0356620
8402.2, 0.0354360
8415.84, 0.0353230
8429.52, 0.0352660
8443.25, 0.0352090
8457.02, 0.0350960
8470.84, 0.0349260
8484.7, 0.0346430
8498.61, 0.0344740
8512.57, 0.0344740
8526.57, 0.0343040
8540.62, 0.0341340
8554.71, 0.0339640
8568.85, 0.0337380
8583.04, 0.0336240
8597.27, 0.0335680
8611.55, 0.0333980
8625.88, 0.0332280
8640.26, 0.0331150
8654.68, 0.0329450
8669.16, 0.0328320
8683.68, 0.0328320
8698.25, 0.0327750
8712.87, 0.0326620
8727.53, 0.0324920
8742.25, 0.0322660
8757.02, 0.0320960
8771.83, 0.0319260
8786.7, 0.0319260
8801.62, 0.0318130
8816.59, 0.0317000
8831.61, 0.0315300
8846.68, 0.0315870
8861.8, 0.0315870
8876.97, 0.0313600
8892.2, 0.0310770
8907.48, 0.0309640
8922.81, 0.0308510
8938.2, 0.0307940
8953.63, 0.0305680
8969.13, 0.0303980
8984.67, 0.0302850
9000.27, 0.0301710
9015.92, 0.0300020
9031.63, 0.0298320
9047.39, 0.0296620
9063.21, 0.0296620
9079.08, 0.0295490
9095.01, 0.0294360
9111.0, 0.0292660
9127.04, 0.0292090
9143.13, 0.0289830
9159.28, 0.0288690
9175.49, 0.0287560
9191.76, 0.0287000
9208.09, 0.0285300
9224.47, 0.0282470
9240.92, 0.0280770
9257.42, 0.0279070
9273.98, 0.0276810
9290.6, 0.0274540
9307.28, 0.0272840
9324.02, 0.0268320
9340.82, 0.0262660
9357.68, 0.0264350
9374.6, 0.0267750
9391.58, 0.0268880
9408.62, 0.0269450
9425.73, 0.0269450
9442.9, 0.0267180
9460.13, 0.0265490
9477.42, 0.0263220
9494.78, 0.0262090
9512.2, 0.0259830
9529.69, 0.0258130
9547.24, 0.0259260
9564.86, 0.0258690
9582.54, 0.0256430
9600.28, 0.0253600
9618.1, 0.0252470
9635.97, 0.0253600
9653.92, 0.0252470
9671.93, 0.0251330
9690.01, 0.0250200
9708.16, 0.0247940
9726.37, 0.0245110
9744.65, 0.0242840
9763.0, 0.0241140
9781.43, 0.0240010
9799.92, 0.0237750
9818.48, 0.0236620
9837.1, 0.0237180
9855.8, 0.0236050
9874.58, 0.0233790
9893.42, 0.0231520
9912.34, 0.0229260
9931.33, 0.0225860
9950.39, 0.0223030
9969.52, 0.0221900
9988.74, 0.0221900
10008.0, 0.0220200
10027.4, 0.0217940
10046.8, 0.0216240
10066.3, 0.0214540
10085.9, 0.0211140
10105.6, 0.0208310
10125.3, 0.0206610
10145.1, 0.0205480
10165.0, 0.0204920
10185.0, 0.0203780
10205.0, 0.0201520
10225.2, 0.0197560
10245.4, 0.0195290
10265.7, 0.0194730
10286.0, 0.0191900
10306.5, 0.0190760
10327.0, 0.0187370
10347.6, 0.0185670
10368.3, 0.0183410
10389.1, 0.0180580
10409.9, 0.0178880
10430.9, 0.0174910
10451.9, 0.0172650
10473.0, 0.0169820
10494.2, 0.0168120
10515.5, 0.0166420
10536.9, 0.0165860
10558.4, 0.0163030
10579.9, 0.0160200
10601.5, 0.0158500
10623.3, 0.0156800
10645.1, 0.0155100
10667.0, 0.0152270
10689.0, 0.0151710
10711.1, 0.0152840
10733.2, 0.0153400
10755.5, 0.0153970
10777.9, 0.0154540
10800.3, 0.0155100
10822.9, 0.0155670
10845.5, 0.0156800
10868.2, 0.0160760
10891.1, 0.0167560
10914.0, 0.0170950
10937.0, 0.0176050
10960.2, 0.0182840
10983.4, 0.0190760
11006.7, 0.0197560
11030.1, 0.0204350
11053.6, 0.0209450
11077.3, 0.0213970
11101.0, 0.0217940
11124.8, 0.0221900
11148.7, 0.0224160
11172.7, 0.0226990
11196.9, 0.0230960
11221.1, 0.0237180
11245.4, 0.0258130
11269.9, 0.0314730
11294.4, 0.0417190
11319.1, 0.0525880
11343.9, 0.0573990
11368.8, 0.0559270
11393.7, 0.0516820
11418.8, 0.0470970
11444.0, 0.0431910
11469.4, 0.0401910
11494.8, 0.0377000
11520.3, 0.0357190
11546.0, 0.0341900
11571.8, 0.0331150
11597.7, 0.0321530
11623.7, 0.0312470
11649.8, 0.0304540
11676.0, 0.0297750
11702.4, 0.0292090
11728.9, 0.0287000
11755.5, 0.0281900
11782.2, 0.0276810
11809.0, 0.0272840
11836.0, 0.0267180
11863.0, 0.0261520
11890.3, 0.0256430
11917.6, 0.0250770
11945.0, 0.0244540
11972.6, 0.0237750
12000.4, 0.0233220
12028.2, 0.0228690
12056.2, 0.0223600
12084.3, 0.0220770
12112.5, 0.0217940
12140.9, 0.0213410
12169.4, 0.0208880
12198.0, 0.0204920
12226.8, 0.0204350
12255.7, 0.0204350
12284.7, 0.0202090
12313.9, 0.0202650
12343.2, 0.0204350
12372.7, 0.0206050
12402.3, 0.0207750
12432.0, 0.0209450
12461.9, 0.0212280
12491.9, 0.0213410
12522.1, 0.0212280
12552.4, 0.0212280
12582.9, 0.0212840
12613.5, 0.0211710
12644.3, 0.0211140
12675.2, 0.0210010
12706.3, 0.0209450
12737.5, 0.0208880
12768.9, 0.0208880
12800.4, 0.0206610
12832.1, 0.0205480
12863.9, 0.0203780
12895.9, 0.0200950
12928.1, 0.0198690
12960.4, 0.0198690
12992.9, 0.0199260
13025.5, 0.0199820
13058.3, 0.0196990
13091.3, 0.0193030
13124.4, 0.0191330
13157.8, 0.0190760
13191.2, 0.0190200
13224.9, 0.0189630
13258.7, 0.0188500
13292.7, 0.0187930
13326.9, 0.0187370
13361.2, 0.0187370
13395.7, 0.0189070
13430.4, 0.0189630
13465.3, 0.0188500
13500.4, 0.0188500
13535.7, 0.0189630
13571.1, 0.0191900
13606.7, 0.0192460
13642.5, 0.0193600
13678.5, 0.0198690
13714.7, 0.0204920
13751.1, 0.0213410
13787.6, 0.0225860
13824.4, 0.0242840
13861.4, 0.0263790
13898.5, 0.0281340
13935.9, 0.0288690
13973.5, 0.0290960
14011.2, 0.0294920
14049.2, 0.0303410
14087.4, 0.0313040
14125.8, 0.0323790
14164.3, 0.0333410
14203.2, 0.0348130
14242.2, 0.0363980
14281.4, 0.0378700
14320.9, 0.0397950
14360.5, 0.0413800
14400.4, 0.0426250
14440.5, 0.0427380
14480.9, 0.0408130
14521.4, 0.0372470
14562.2, 0.0333410
14603.3, 0.0300580
14644.5, 0.0280200
14686.0, 0.0272840
14727.7, 0.0275680
14769.7, 0.0279640
14811.9, 0.0287560
14854.3, 0.0299450
14897.0, 0.0308510
14939.9, 0.0313040
14983.1, 0.0321530
15026.5, 0.0333980
15070.2, 0.0344170
15114.2, 0.0348700
15158.3, 0.0350960
15202.8, 0.0356620
15247.5, 0.0362850
15292.5, 0.0367940
15337.7, 0.0369640
15383.2, 0.0370770
15429.0, 0.0369080
15475.1, 0.0367380
15521.4, 0.0366250
15568.0, 0.0363980
15614.9, 0.0362280
15662.1, 0.0360590
15709.6, 0.0356620
15757.3, 0.0354920
15805.4, 0.0350960
15853.7, 0.0345870
15902.3, 0.0341900
15951.2, 0.0337940
16000.5, 0.0335680
16050.0, 0.0332280
16099.8, 0.0330020
16150.0, 0.0324360
16200.5, 0.0319260
16251.3, 0.0315870
16302.4, 0.0312470
16353.8, 0.0311900
16405.5, 0.0310770
16457.6, 0.0305110
16510.0, 0.0300020
16562.8, 0.0297190
16615.9, 0.0294920
16669.3, 0.0290960
16723.1, 0.0287000
16777.2, 0.0284730
16831.7, 0.0282470
16886.5, 0.0279640
16941.7, 0.0277940
16997.2, 0.0277370
17053.1, 0.0275680
17109.4, 0.0272280
17166.1, 0.0272840
17223.1, 0.0273410
17280.5, 0.0272840
17338.3, 0.0270010
17396.5, 0.0263790
17455.1, 0.0263220
17514.0, 0.0263790
17573.4, 0.0263220
17633.2, 0.0264920
17693.4, 0.0263790
17754.0, 0.0264920
17815.0, 0.0268320
17876.4, 0.0265490
17938.3, 0.0260960
18000.5, 0.0264350
18063.3, 0.0267180
18126.4, 0.0271710
18190.0, 0.0271150
18254.1, 0.0268880
18318.6, 0.0266050
18383.5, 0.0268320
18449.0, 0.0266050
18514.9, 0.0256990
18581.2, 0.0254160
18648.0, 0.0256430
18715.4, 0.0259260
18783.2, 0.0264350
18851.5, 0.0266620
18920.3, 0.0275680
18989.6, 0.0290960
19059.4, 0.0302280
19129.7, 0.0320390
19200.6, 0.0333410
19272.0, 0.0337940
19343.9, 0.0339070
19416.3, 0.0339070
19489.3, 0.0345300
19562.8, 0.0352660
19637.0, 0.0353230
19711.6, 0.0345300
19786.8, 0.0340770
19862.6, 0.0340210
19939.0, 0.0337380
20016.0, 0.0340770
20093.6, 0.0340770
20171.8, 0.0333980
20250.6, 0.0328890
20330.0, 0.0329450
20410.0, 0.0327750
20490.7, 0.0327750
20572.0, 0.0323790
20654.0, 0.0313600
20736.6, 0.0305680
20819.9, 0.0301710
20903.8, 0.0295820
20988.5, 0.0293970
21073.8, 0.0295820
21159.8, 0.0295030
21246.5, 0.0292130
21334.0, 0.0282660
21422.1, 0.0276870
21511.0, 0.0276340
21600.7, 0.0275810
21691.0, 0.0272130
21782.1, 0.0271080
21874.0, 0.0260550
21966.7, 0.0252130
22060.2, 0.0248440
22154.5, 0.0246340
22249.6, 0.0241340
22345.5, 0.0235280
22442.2, 0.0228970
22539.8, 0.0222120
22638.2, 0.0215810
22737.5, 0.0212390
22837.7, 0.0209760
22938.7, 0.0209230
23040.7, 0.0208700
23143.5, 0.0202910
23247.3, 0.0196330
23352.1, 0.0193700
23457.7, 0.0192650
23564.4, 0.0190540
23672.0, 0.0188440
23780.5, 0.0187910
23890.1, 0.0183700
24000.7, 0.0176860
24112.3, 0.0174490
24225.0, 0.0173440
24338.7, 0.0170280
24453.5, 0.0163960
24569.4, 0.0161860
24686.4, 0.0160800
24804.5, 0.0153700
24923.8, 0.0146070
25044.2, 0.0138960
25165.8, 0.0135270
25288.6, 0.0135800
25412.5, 0.0130800
25537.7, 0.0126330
25664.1, 0.0122380
25791.8, 0.0120800
25920.8, 0.0117380
26051.1, 0.0110270
26182.6, 0.0106850
26315.5, 0.0109750
26449.8, 0.0105540
26585.4, 0.00963200
26722.5, 0.00939600
26860.9, 0.00942200
27000.8, 0.00934300
27142.1, 0.00860600
27285.0, 0.00808000
27429.4, 0.00771100
27575.3, 0.00713200
27722.7, 0.00660600
27871.8, 0.00647400
28022.4, 0.00597400
28174.7, 0.00536900
28328.7, 0.00534300
28484.4, 0.00518500
28641.7, 0.00497400
28800.9, 0.00502700
28961.8, 0.00518500
29124.5, 0.00544800
29289.0, 0.00563200
29455.4, 0.00573700
29623.8, 0.00584300
29794.0, 0.00563200
29966.3, 0.00557900
30140.5, 0.00576400
30316.7, 0.00573700
30495.1, 0.00607900
30675.5, 0.00647400
30858.1, 0.00710600
31042.8, 0.00871100
31229.8, 0.0111850
31419.1, 0.0147910
31610.7, 0.0196330
31804.6, 0.0251860
32000.9, 0.0316080
32199.7, 0.0388980
32400.9, 0.0467670
32604.8, 0.0548470
32811.1, 0.0626630
33020.1, 0.0718480
33231.8, 0.0816910
33446.2, 0.0909290
33663.4, 0.100088
33883.4, 0.108062
34106.3, 0.114352
34332.1, 0.118984
34561.0, 0.121853
34792.9, 0.122116
35028.0, 0.120510
35266.3, 0.118300
35507.8, 0.116247
35752.7, 0.114799
36001.0, 0.114036
36252.8, 0.113957
36508.1, 0.115168
36767.0, 0.117273
37029.7, 0.120458
37296.1, 0.123827
37566.3, 0.126169
37840.5, 0.127222
38118.8, 0.126327
38401.2, 0.123169
38687.8, 0.117615
38978.6, 0.110246
39273.9, 0.101904
39573.7, 0.0933500
39878.1, 0.0861920
40187.3, 0.0803490
40501.2, 0.0779280
40820.0, 0.0789020
41144.0, 0.0809540
41473.2, 0.0833230
41807.6, 0.0838230
42147.5, 0.0810330
42493.0, 0.0761380
42844.2, 0.0709270
43201.2, 0.0659000
43564.3, 0.0621630
43933.5, 0.0595580
44309.0, 0.0585310
44691.0, 0.0585840
45079.6, 0.0600580
45475.0, 0.0637690
45877.5, 0.0684270
46287.1, 0.0712960
46704.2, 0.0707430
47128.7, 0.0674530
47561.1, 0.0632420
48001.5, 0.0589790
48450.1, 0.0551360
48907.2, 0.0518990
49373.0, 0.0500310
49847.7, 0.0485830
50331.5, 0.0465830
50825.0, 0.0464250
51328.2, 0.0488460
51841.5, 0.0531630
52365.1, 0.0592680
52899.4, 0.0672950
53444.8, 0.0765860
54001.5, 0.0855340
54570.1, 0.0929550
55150.6, 0.0985350
55743.6, 0.101719
56349.5, 0.104641
56968.7, 0.108378
57601.7, 0.111562
58248.9, 0.113405
58910.9, 0.112510
59588.1, 0.109957
60281.0, 0.107878
60990.2, 0.106141
61716.3, 0.104062
62459.8, 0.101193
63221.6, 0.0963240
64002.1, 0.0892180
64802.1, 0.0835340
65622.1, 0.0815330
66463.4, 0.0888500
67326.6, 0.103114
68212.4, 0.112457
69121.9, 0.114457
70056.0, 0.111115
71015.7, 0.108852
72002.0, 0.111194
73016.3, 0.110062
74059.4, 0.103509
75132.7, 0.0965350
76237.6, 0.0907180
77375.5, 0.0889550
78547.9, 0.0957980
79756.3, 0.112483
81002.5, 0.127906
82288.5, 0.134406
83615.7, 0.132696
84986.5, 0.126853
86402.9, 0.123379
87867.4, 0.122169
89382.4, 0.118194
90950.5, 0.110141
92574.6, 0.108509
94257.2, 0.108062
96002.7, 0.105272
97814.1, 0.103825
99695.1, 0.103167
101650.0, 0.103535
103683.0, 0.101904
105799.0, 0.100772
108003.0, 0.100009
110301.0, 0.102983
112699.0, 0.109667
115204.0, 0.114326
117822.0, 0.115589
120562.0, 0.116484
123433.0, 0.116379
126443.0, 0.114773
129604.0, 0.113010
132926.0, 0.111168
136424.0, 0.109141
140111.0, 0.108667
144003.0, 0.105930
148118.0, 0.102825
152474.0, 0.0966930
157095.0, 0.0945350
162004.0, 0.0959290
167231.0, 0.0947980
172805.0, 0.0974300
178764.0, 0.0981930
185148.0, 0.0955080
192005.0, 0.0945870
199390.0, 0.0983770
207366.0, 0.0992980
216006.0, 0.113115
