Database of Origin, USGS Spectral Database
Sample Description, See USGS database for additional info
Date Added,2016-08-10 05:26:33.088449

Data ID,USGS_pro03          
Sample ID, prochlorite_smr14.18292
Mineral Name, prochlorite
Material Class,Phyllosilicate

Wavelength
1369.66, 0.141162
1370.02, 0.141342
1370.38, 0.140982
1370.74, 0.141162
1371.11, 0.141432
1371.47, 0.141522
1371.83, 0.142062
1372.19, 0.141702
1372.56, 0.141702
1372.92, 0.141882
1373.29, 0.141882
1373.65, 0.141432
1374.01, 0.141252
1374.38, 0.140802
1374.74, 0.140802
1375.11, 0.141522
1375.47, 0.142243
1375.84, 0.142152
1376.2, 0.141522
1376.57, 0.141522
1376.93, 0.141882
1377.3, 0.142243
1377.67, 0.142062
1378.03, 0.141792
1378.4, 0.141792
1378.76, 0.141972
1379.13, 0.141882
1379.5, 0.141342
1379.87, 0.141162
1380.23, 0.141252
1380.6, 0.140802
1380.97, 0.141072
1381.34, 0.141702
1381.7, 0.141522
1382.07, 0.141612
1382.44, 0.141882
1382.81, 0.141162
1383.18, 0.140802
1383.55, 0.141072
1383.92, 0.141612
1384.29, 0.141882
1384.66, 0.142152
1385.03, 0.141342
1385.4, 0.140622
1385.77, 0.140892
1386.14, 0.140622
1386.51, 0.140712
1386.88, 0.140622
1387.25, 0.139812
1387.62, 0.139092
1387.99, 0.139002
1388.36, 0.138821
1388.74, 0.138281
1389.11, 0.138191
1389.48, 0.138011
1389.85, 0.137471
1390.23, 0.136751
1390.6, 0.136211
1390.97, 0.135851
1391.35, 0.136211
1391.72, 0.136391
1392.09, 0.135761
1392.47, 0.135310
1392.84, 0.135851
1393.21, 0.136301
1393.59, 0.136121
1393.96, 0.135130
1394.34, 0.135130
1394.71, 0.135941
1395.09, 0.135310
1395.46, 0.133960
1395.84, 0.133870
1396.22, 0.134140
1396.59, 0.134410
1396.97, 0.134590
1397.35, 0.134860
1397.72, 0.135040
1398.1, 0.134950
1398.48, 0.134770
1398.85, 0.134950
1399.23, 0.135761
1399.61, 0.135851
1399.99, 0.135220
1400.37, 0.134500
1400.74, 0.134680
1401.12, 0.134590
1401.5, 0.134410
1401.88, 0.134680
1402.26, 0.134680
1402.64, 0.134320
1403.02, 0.134500
1403.4, 0.134590
1403.78, 0.134500
1404.16, 0.134770
1404.54, 0.134590
1404.92, 0.134770
1405.3, 0.135040
1405.68, 0.134950
1406.06, 0.134770
1406.44, 0.134410
1406.83, 0.135310
1407.21, 0.135490
1407.59, 0.135040
1407.97, 0.135400
1408.35, 0.135581
1408.74, 0.135310
1409.12, 0.135490
1409.5, 0.135490
1409.89, 0.136031
1410.27, 0.135851
1410.65, 0.135310
1411.04, 0.135490
1411.42, 0.135671
1411.81, 0.135490
1412.19, 0.135581
1412.58, 0.135581
1412.96, 0.135671
1413.35, 0.135400
1413.73, 0.135761
1414.12, 0.135851
1414.5, 0.135761
1414.89, 0.135941
1415.28, 0.136211
1415.66, 0.136571
1416.05, 0.137111
1416.44, 0.137651
1416.82, 0.137471
1417.21, 0.137291
1417.6, 0.137291
1417.98, 0.137381
1418.37, 0.137741
1418.76, 0.137831
1419.15, 0.137291
1419.54, 0.137291
1419.93, 0.137651
1420.32, 0.138101
1420.71, 0.138371
1421.09, 0.138191
1421.48, 0.138011
1421.88, 0.138101
1422.27, 0.138281
1422.66, 0.138371
1423.05, 0.138281
1423.44, 0.138371
1423.83, 0.138551
1424.22, 0.138912
1424.61, 0.139182
1425.0, 0.139002
1425.39, 0.139182
1425.78, 0.138731
1426.18, 0.138281
1426.57, 0.138461
1426.96, 0.138371
1427.36, 0.138461
1427.75, 0.138821
1428.14, 0.139182
1428.54, 0.138731
1428.93, 0.138191
1429.32, 0.138191
1429.72, 0.138281
1430.11, 0.138641
1430.51, 0.138912
1430.9, 0.138731
1431.3, 0.138821
1431.69, 0.138912
1432.09, 0.139092
1432.48, 0.138912
1432.88, 0.138641
1433.28, 0.139092
1433.67, 0.138912
1434.07, 0.138641
1434.46, 0.138461
1434.86, 0.138281
1435.26, 0.138371
1435.66, 0.138371
1436.05, 0.138101
1436.45, 0.138281
1436.85, 0.138641
1437.25, 0.138912
1437.65, 0.138821
1438.05, 0.138551
1438.44, 0.138281
1438.84, 0.138371
1439.24, 0.138731
1439.64, 0.138731
1440.04, 0.139092
1440.44, 0.139092
1440.84, 0.138551
1441.24, 0.138281
1441.65, 0.138191
1442.05, 0.138281
1442.45, 0.138641
1442.85, 0.138821
1443.25, 0.138821
1443.65, 0.139002
1444.05, 0.139272
1444.46, 0.139092
1444.86, 0.139182
1445.26, 0.139182
1445.67, 0.139362
1446.07, 0.138821
1446.47, 0.138821
1446.88, 0.139272
1447.28, 0.139182
1447.68, 0.138641
1448.09, 0.138731
1448.49, 0.138912
1448.9, 0.138641
1449.3, 0.138731
1449.71, 0.139182
1450.11, 0.139002
1450.52, 0.139092
1450.93, 0.139092
1451.33, 0.139092
1451.74, 0.139272
1452.14, 0.139092
1452.55, 0.139092
1452.96, 0.139182
1453.36, 0.139632
1453.77, 0.140532
1454.18, 0.140262
1454.59, 0.139722
1455.0, 0.139722
1455.41, 0.139452
1455.81, 0.139452
1456.22, 0.139542
1456.63, 0.139362
1457.04, 0.139362
1457.45, 0.139722
1457.86, 0.140442
1458.27, 0.140802
1458.68, 0.141072
1459.09, 0.141072
1459.5, 0.140532
1459.91, 0.140442
1460.32, 0.140532
1460.74, 0.140622
1461.15, 0.141162
1461.56, 0.141702
1461.97, 0.141432
1462.39, 0.141162
1462.8, 0.141252
1463.21, 0.140802
1463.62, 0.140622
1464.04, 0.140892
1464.45, 0.141342
1464.86, 0.141522
1465.28, 0.141612
1465.69, 0.141882
1466.11, 0.141522
1466.52, 0.141162
1466.94, 0.140982
1467.35, 0.141432
1467.77, 0.141702
1468.18, 0.141522
1468.6, 0.141702
1469.02, 0.141792
1469.43, 0.141432
1469.85, 0.141522
1470.27, 0.142243
1470.68, 0.142693
1471.1, 0.142423
1471.52, 0.142423
1471.94, 0.142603
1472.35, 0.142513
1472.77, 0.142243
1473.19, 0.142243
1473.61, 0.142603
1474.03, 0.142783
1474.45, 0.142873
1474.87, 0.142873
1475.29, 0.142513
1475.71, 0.142513
1476.13, 0.143053
1476.55, 0.143233
1476.97, 0.142873
1477.39, 0.142783
1477.81, 0.142783
1478.23, 0.143053
1478.65, 0.143503
1479.07, 0.143593
1479.5, 0.143503
1479.92, 0.143413
1480.34, 0.143413
1480.76, 0.143323
1481.19, 0.144043
1481.61, 0.144223
1482.03, 0.143863
1482.46, 0.144313
1482.88, 0.144943
1483.31, 0.145123
1483.73, 0.144853
1484.16, 0.144133
1484.58, 0.144133
1485.01, 0.144763
1485.43, 0.144673
1485.86, 0.144313
1486.28, 0.144403
1486.71, 0.144763
1487.14, 0.145033
1487.56, 0.144853
1487.99, 0.144943
1488.42, 0.144943
1488.84, 0.145033
1489.27, 0.145123
1489.7, 0.145213
1490.13, 0.145393
1490.56, 0.145213
1490.98, 0.145033
1491.41, 0.145483
1491.84, 0.146204
1492.27, 0.146564
1492.7, 0.145664
1493.13, 0.145844
1493.56, 0.146204
1493.99, 0.145844
1494.42, 0.145844
1494.85, 0.146384
1495.29, 0.146474
1495.72, 0.146204
1496.15, 0.146384
1496.58, 0.147104
1497.01, 0.147194
1497.44, 0.147014
1497.88, 0.147194
1498.31, 0.147644
1498.74, 0.147824
1499.18, 0.147554
1499.61, 0.147194
1500.04, 0.147374
1500.48, 0.147194
1500.91, 0.147194
1501.35, 0.147464
1501.78, 0.147374
1502.22, 0.147104
1502.65, 0.147734
1503.09, 0.148184
1503.53, 0.147914
1503.96, 0.147554
1504.4, 0.147554
1504.83, 0.147284
1505.27, 0.147374
1505.71, 0.147914
1506.15, 0.148544
1506.58, 0.148454
1507.02, 0.148544
1507.46, 0.148995
1507.9, 0.148634
1508.34, 0.148454
1508.78, 0.148814
1509.21, 0.149085
1509.66, 0.148814
1510.09, 0.148094
1510.53, 0.147914
1510.97, 0.148724
1511.42, 0.149355
1511.86, 0.149355
1512.3, 0.149175
1512.74, 0.149175
1513.18, 0.149445
1513.62, 0.149445
1514.06, 0.149535
1514.51, 0.149625
1514.95, 0.149715
1515.39, 0.149625
1515.83, 0.149985
1516.28, 0.149895
1516.72, 0.149535
1517.16, 0.149265
1517.61, 0.149895
1518.05, 0.150075
1518.5, 0.150165
1518.94, 0.150345
1519.39, 0.150435
1519.83, 0.150435
1520.28, 0.150165
1520.73, 0.150435
1521.17, 0.150885
1521.62, 0.150705
1522.07, 0.150345
1522.51, 0.150435
1522.96, 0.150705
1523.41, 0.151155
1523.85, 0.151425
1524.3, 0.151065
1524.75, 0.150795
1525.2, 0.151065
1525.65, 0.151335
1526.1, 0.151245
1526.55, 0.150975
1527.0, 0.150705
1527.45, 0.151065
1527.9, 0.151605
1528.35, 0.151605
1528.8, 0.151875
1529.25, 0.152055
1529.7, 0.151965
1530.15, 0.151875
1530.6, 0.151605
1531.05, 0.151875
1531.51, 0.152235
1531.96, 0.152055
1532.41, 0.152235
1532.87, 0.152506
1533.32, 0.152416
1533.77, 0.152416
1534.23, 0.152596
1534.68, 0.152686
1535.14, 0.152956
1535.59, 0.153226
1536.05, 0.153136
1536.5, 0.153046
1536.96, 0.153136
1537.41, 0.153046
1537.87, 0.153316
1538.32, 0.153226
1538.78, 0.153406
1539.24, 0.153586
1539.7, 0.153766
1540.15, 0.153766
1540.61, 0.154216
1541.07, 0.154576
1541.53, 0.154666
1541.98, 0.154756
1542.44, 0.154486
1542.9, 0.154396
1543.36, 0.154576
1543.82, 0.154936
1544.28, 0.155116
1544.74, 0.154756
1545.2, 0.155206
1545.66, 0.155927
1546.12, 0.155837
1546.59, 0.155296
1547.05, 0.155657
1547.51, 0.155837
1547.97, 0.155747
1548.43, 0.155747
1548.9, 0.155747
1549.36, 0.156017
1549.82, 0.156287
1550.29, 0.156467
1550.75, 0.156557
1551.21, 0.156827
1551.68, 0.157007
1552.14, 0.156827
1552.61, 0.156737
1553.07, 0.156827
1553.54, 0.156917
1554.0, 0.157277
1554.47, 0.157547
1554.93, 0.157997
1555.4, 0.158267
1555.87, 0.158087
1556.34, 0.157997
1556.8, 0.158267
1557.27, 0.158537
1557.74, 0.158357
1558.21, 0.158447
1558.68, 0.158537
1559.14, 0.158357
1559.61, 0.158537
1560.08, 0.158807
1560.55, 0.158717
1561.02, 0.158627
1561.49, 0.158807
1561.96, 0.159078
1562.43, 0.159258
1562.9, 0.159708
1563.38, 0.159888
1563.85, 0.159798
1564.32, 0.159798
1564.79, 0.160068
1565.26, 0.160158
1565.74, 0.160068
1566.21, 0.160068
1566.68, 0.160248
1567.16, 0.159888
1567.63, 0.160158
1568.1, 0.160878
1568.58, 0.161058
1569.05, 0.161238
1569.53, 0.161508
1570.0, 0.161328
1570.48, 0.160698
1570.96, 0.160878
1571.43, 0.161148
1571.91, 0.161328
1572.39, 0.161598
1572.86, 0.161868
1573.34, 0.161778
1573.82, 0.162138
1574.3, 0.162589
1574.77, 0.162499
1575.25, 0.162228
1575.73, 0.162228
1576.21, 0.162048
1576.69, 0.162228
1577.17, 0.162409
1577.65, 0.162409
1578.13, 0.162679
1578.61, 0.162859
1579.09, 0.163039
1579.57, 0.163129
1580.05, 0.163489
1580.54, 0.164029
1581.02, 0.163759
1581.5, 0.163309
1581.98, 0.163579
1582.47, 0.163849
1582.95, 0.164029
1583.43, 0.164029
1583.92, 0.164299
1584.4, 0.164479
1584.88, 0.164479
1585.37, 0.164479
1585.85, 0.164389
1586.34, 0.164479
1586.82, 0.165199
1587.31, 0.165469
1587.8, 0.165199
1588.28, 0.165019
1588.77, 0.165469
1589.26, 0.165740
1589.74, 0.165650
1590.23, 0.165650
1590.72, 0.165830
1591.21, 0.166010
1591.7, 0.166370
1592.19, 0.166460
1592.67, 0.166370
1593.16, 0.166280
1593.65, 0.166010
1594.14, 0.166280
1594.63, 0.166730
1595.12, 0.167000
1595.61, 0.167270
1596.11, 0.167180
1596.6, 0.167090
1597.09, 0.167360
1597.58, 0.167540
1598.08, 0.167270
1598.57, 0.167000
1599.06, 0.167090
1599.55, 0.167360
1600.05, 0.167810
1600.54, 0.168080
1601.04, 0.168080
1601.53, 0.168350
1602.03, 0.168620
1602.52, 0.168710
1603.02, 0.169251
1603.51, 0.169341
1604.01, 0.169161
1604.5, 0.169161
1605.0, 0.169701
1605.5, 0.170241
1606.0, 0.170241
1606.49, 0.170331
1606.99, 0.170241
1607.49, 0.169971
1607.99, 0.170151
1608.49, 0.170241
1608.99, 0.170061
1609.49, 0.169881
1609.99, 0.170151
1610.49, 0.170601
1610.99, 0.170691
1611.49, 0.171141
1611.99, 0.171501
1612.49, 0.171321
1612.99, 0.171411
1613.49, 0.171411
1614.0, 0.171501
1614.5, 0.172041
1615.0, 0.172311
1615.51, 0.172402
1616.01, 0.172582
1616.51, 0.172582
1617.02, 0.172582
1617.52, 0.172582
1618.03, 0.173032
1618.53, 0.173032
1619.04, 0.172942
1619.54, 0.173302
1620.05, 0.173662
1620.55, 0.173482
1621.06, 0.173572
1621.57, 0.173662
1622.08, 0.173842
1622.58, 0.174202
1623.09, 0.174202
1623.6, 0.174202
1624.11, 0.174382
1624.62, 0.174922
1625.13, 0.175192
1625.64, 0.175192
1626.15, 0.175102
1626.66, 0.175462
1627.17, 0.175462
1627.68, 0.175192
1628.19, 0.175462
1628.7, 0.176183
1629.21, 0.176363
1629.72, 0.176273
1630.24, 0.176273
1630.75, 0.176453
1631.26, 0.176633
1631.78, 0.176453
1632.29, 0.176453
1632.8, 0.176813
1633.32, 0.177263
1633.83, 0.177263
1634.35, 0.176993
1634.86, 0.177173
1635.38, 0.177263
1635.9, 0.177443
1636.41, 0.177713
1636.93, 0.177983
1637.45, 0.177893
1637.96, 0.177983
1638.48, 0.178253
1639.0, 0.178343
1639.52, 0.178433
1640.04, 0.178343
1640.56, 0.178433
1641.08, 0.178613
1641.59, 0.178613
1642.11, 0.178703
1642.63, 0.179154
1643.16, 0.179514
1643.68, 0.179424
1644.2, 0.179334
1644.72, 0.179063
1645.24, 0.179244
1645.76, 0.179244
1646.29, 0.179424
1646.81, 0.179874
1647.33, 0.179964
1647.86, 0.179874
1648.38, 0.180144
1648.9, 0.180504
1649.43, 0.180504
1649.95, 0.180414
1650.48, 0.180594
1651.0, 0.180504
1651.53, 0.180864
1652.06, 0.181314
1652.58, 0.180954
1653.11, 0.180504
1653.64, 0.180954
1654.17, 0.181674
1654.69, 0.181674
1655.22, 0.181044
1655.75, 0.180954
1656.28, 0.181584
1656.81, 0.182034
1657.34, 0.182034
1657.87, 0.182124
1658.4, 0.182124
1658.93, 0.181854
1659.46, 0.181674
1659.99, 0.181944
1660.52, 0.182485
1661.05, 0.182935
1661.59, 0.183115
1662.12, 0.183205
1662.65, 0.183295
1663.19, 0.183565
1663.72, 0.183385
1664.26, 0.183115
1664.79, 0.183295
1665.32, 0.183205
1665.86, 0.183295
1666.39, 0.183565
1666.93, 0.183565
1667.47, 0.183475
1668.0, 0.183925
1668.54, 0.184465
1669.08, 0.184195
1669.61, 0.184015
1670.15, 0.184195
1670.69, 0.184465
1671.23, 0.184735
1671.77, 0.184915
1672.31, 0.185005
1672.85, 0.185365
1673.39, 0.185635
1673.93, 0.185545
1674.47, 0.185545
1675.01, 0.185726
1675.55, 0.185996
1676.09, 0.185906
1676.64, 0.185906
1677.18, 0.186176
1677.72, 0.186176
1678.26, 0.186356
1678.81, 0.186806
1679.35, 0.186806
1679.89, 0.186626
1680.44, 0.186986
1680.98, 0.187346
1681.53, 0.187346
1682.07, 0.187436
1682.62, 0.187706
1683.17, 0.188156
1683.71, 0.188246
1684.26, 0.188066
1684.81, 0.188066
1685.36, 0.188516
1685.9, 0.188696
1686.45, 0.188606
1687.0, 0.188606
1687.55, 0.189057
1688.1, 0.189147
1688.65, 0.189417
1689.2, 0.189507
1689.75, 0.189327
1690.3, 0.189417
1690.85, 0.189237
1691.41, 0.189147
1691.96, 0.189687
1692.51, 0.189687
1693.06, 0.189237
1693.61, 0.189507
1694.17, 0.189777
1694.72, 0.190137
1695.28, 0.190317
1695.83, 0.190407
1696.39, 0.190677
1696.94, 0.190677
1697.5, 0.190677
1698.05, 0.191217
1698.61, 0.191397
1699.17, 0.191307
1699.72, 0.190947
1700.28, 0.190857
1700.84, 0.191487
1701.4, 0.191667
1701.95, 0.191757
1702.51, 0.191937
1703.07, 0.191847
1703.63, 0.191757
1704.19, 0.191937
1704.75, 0.192117
1705.31, 0.192478
1705.88, 0.192568
1706.44, 0.192748
1707.0, 0.192838
1707.56, 0.192748
1708.12, 0.192838
1708.69, 0.192928
1709.25, 0.193108
1709.81, 0.193288
1710.38, 0.193288
1710.94, 0.193288
1711.51, 0.193468
1712.07, 0.193648
1712.64, 0.193468
1713.2, 0.193378
1713.77, 0.193558
1714.34, 0.193828
1714.9, 0.194098
1715.47, 0.194008
1716.04, 0.193918
1716.61, 0.194368
1717.18, 0.194548
1717.74, 0.194458
1718.31, 0.194638
1718.88, 0.194908
1719.45, 0.194998
1720.02, 0.195268
1720.59, 0.195268
1721.17, 0.194998
1721.74, 0.195268
1722.31, 0.195448
1722.88, 0.195448
1723.45, 0.195448
1724.03, 0.195448
1724.6, 0.195448
1725.18, 0.195538
1725.75, 0.195809
1726.33, 0.195718
1726.9, 0.195809
1727.48, 0.196169
1728.05, 0.196349
1728.63, 0.196259
1729.2, 0.196079
1729.78, 0.196079
1730.36, 0.196079
1730.94, 0.196169
1731.51, 0.196529
1732.09, 0.196889
1732.67, 0.197429
1733.25, 0.197429
1733.83, 0.197069
1734.41, 0.196799
1734.99, 0.197069
1735.57, 0.197429
1736.15, 0.197429
1736.73, 0.197699
1737.32, 0.198059
1737.9, 0.197969
1738.48, 0.197969
1739.07, 0.198059
1739.65, 0.198329
1740.23, 0.198509
1740.82, 0.198419
1741.4, 0.198599
1741.99, 0.198959
1742.57, 0.198959
1743.16, 0.198869
1743.74, 0.198959
1744.33, 0.198959
1744.92, 0.198959
1745.51, 0.199500
1746.09, 0.199770
1746.68, 0.199770
1747.27, 0.199590
1747.86, 0.199410
1748.45, 0.199950
1749.04, 0.200400
1749.63, 0.200310
1750.22, 0.200310
1750.81, 0.200310
1751.4, 0.200130
1751.99, 0.200130
1752.59, 0.200310
1753.18, 0.200580
1753.77, 0.200850
1754.37, 0.200850
1754.96, 0.201030
1755.56, 0.201210
1756.15, 0.201120
1756.74, 0.201390
1757.34, 0.201750
1757.94, 0.201570
1758.53, 0.201390
1759.13, 0.201390
1759.73, 0.201390
1760.32, 0.201570
1760.92, 0.201930
1761.52, 0.202200
1762.12, 0.202380
1762.72, 0.202380
1763.32, 0.202380
1763.92, 0.202741
1764.52, 0.203011
1765.12, 0.202741
1765.72, 0.202741
1766.32, 0.203011
1766.92, 0.203101
1767.53, 0.203191
1768.13, 0.203371
1768.73, 0.203461
1769.34, 0.203461
1769.94, 0.203731
1770.55, 0.203731
1771.15, 0.203551
1771.76, 0.203461
1772.36, 0.203461
1772.97, 0.203551
1773.57, 0.203641
1774.18, 0.204001
1774.79, 0.204001
1775.4, 0.203911
1776.0, 0.204541
1776.61, 0.204721
1777.22, 0.204721
1777.83, 0.204901
1778.44, 0.205081
1779.05, 0.204811
1779.66, 0.204631
1780.27, 0.204901
1780.88, 0.205261
1781.5, 0.205351
1782.11, 0.205351
1782.72, 0.205351
1783.33, 0.205621
1783.95, 0.205711
1784.56, 0.205802
1785.18, 0.205892
1785.79, 0.205892
1786.41, 0.205802
1787.02, 0.205892
1787.64, 0.205711
1788.26, 0.205711
1788.87, 0.206162
1789.49, 0.206342
1790.11, 0.206342
1790.73, 0.206432
1791.35, 0.206792
1791.96, 0.206702
1792.58, 0.206522
1793.21, 0.206612
1793.83, 0.206702
1794.45, 0.206702
1795.07, 0.206882
1795.69, 0.206882
1796.31, 0.206882
1796.93, 0.207242
1797.56, 0.207242
1798.18, 0.207062
1798.8, 0.207242
1799.43, 0.207332
1800.05, 0.207332
1800.68, 0.207332
1801.3, 0.207332
1801.93, 0.207512
1802.56, 0.207422
1803.18, 0.207692
1803.81, 0.207872
1804.44, 0.207872
1805.07, 0.207872
1805.7, 0.207962
1806.33, 0.207872
1806.95, 0.207782
1807.58, 0.208052
1808.22, 0.208232
1808.85, 0.208232
1809.48, 0.208322
1810.11, 0.208322
1810.74, 0.208772
1811.38, 0.209042
1812.01, 0.208952
1812.64, 0.208952
1813.28, 0.208862
1813.91, 0.208772
1814.55, 0.209042
1815.18, 0.208952
1815.82, 0.209042
1816.45, 0.208862
1817.09, 0.209042
1817.73, 0.209132
1818.36, 0.209313
1819.0, 0.209673
1819.64, 0.209763
1820.28, 0.209673
1820.92, 0.209763
1821.56, 0.209763
1822.2, 0.209493
1822.84, 0.209673
1823.48, 0.209853
1824.12, 0.210123
1824.76, 0.210123
1825.41, 0.210213
1826.05, 0.210483
1826.69, 0.210663
1827.34, 0.210573
1827.98, 0.210663
1828.63, 0.210843
1829.27, 0.210843
1829.92, 0.210933
1830.56, 0.211023
1831.21, 0.211023
1831.86, 0.210843
1832.5, 0.210933
1833.15, 0.210843
1833.8, 0.210843
1834.45, 0.211113
1835.1, 0.211293
1835.75, 0.211383
1836.4, 0.211653
1837.05, 0.211833
1837.7, 0.211833
1838.35, 0.211563
1839.01, 0.211743
1839.66, 0.211833
1840.31, 0.211653
1840.96, 0.211923
1841.62, 0.212463
1842.27, 0.212283
1842.93, 0.211923
1843.58, 0.212103
1844.24, 0.212463
1844.9, 0.212283
1845.55, 0.212373
1846.21, 0.212463
1846.87, 0.212824
1847.53, 0.212824
1848.18, 0.212734
1848.84, 0.212644
1849.5, 0.212824
1850.16, 0.212914
1850.82, 0.212914
1851.48, 0.212644
1852.14, 0.212644
1852.81, 0.212914
1853.47, 0.213094
1854.13, 0.213094
1854.8, 0.213004
1855.46, 0.213004
1856.12, 0.213274
1856.79, 0.213364
1857.45, 0.213094
1858.12, 0.213004
1858.79, 0.213004
1859.45, 0.213184
1860.12, 0.213544
1860.79, 0.213454
1861.46, 0.213184
1862.12, 0.213094
1862.79, 0.213274
1863.46, 0.213274
1864.13, 0.213544
1864.8, 0.213544
1865.48, 0.213634
1866.15, 0.213724
1866.82, 0.214084
1867.49, 0.214174
1868.16, 0.213904
1868.84, 0.213904
1869.51, 0.213454
1870.19, 0.213544
1870.86, 0.213904
1871.54, 0.213814
1872.21, 0.213994
1872.89, 0.214174
1873.56, 0.214084
1874.24, 0.213904
1874.92, 0.214084
1875.6, 0.213994
1876.28, 0.214084
1876.96, 0.214264
1877.64, 0.214264
1878.32, 0.214354
1879.0, 0.214264
1879.68, 0.214084
1880.36, 0.214084
1881.04, 0.213904
1881.73, 0.213994
1882.41, 0.214174
1883.09, 0.214354
1883.78, 0.214624
1884.46, 0.214534
1885.15, 0.214624
1885.83, 0.214714
1886.52, 0.214984
1887.21, 0.215074
1887.89, 0.214984
1888.58, 0.214984
1889.27, 0.214984
1889.96, 0.215344
1890.65, 0.215524
1891.34, 0.215704
1892.03, 0.215524
1892.72, 0.215434
1893.41, 0.215614
1894.1, 0.215614
1894.79, 0.216155
1895.49, 0.216515
1896.18, 0.216335
1896.87, 0.216335
1897.57, 0.216335
1898.26, 0.216155
1898.96, 0.216605
1899.65, 0.216785
1900.35, 0.216605
1901.05, 0.216605
1901.74, 0.216875
1902.44, 0.217145
1903.14, 0.217055
1903.84, 0.216785
1904.54, 0.217325
1905.24, 0.217775
1905.94, 0.217775
1906.64, 0.217955
1907.34, 0.217955
1908.04, 0.217775
1908.75, 0.217595
1909.45, 0.217595
1910.15, 0.217865
1910.86, 0.218135
1911.56, 0.218135
1912.27, 0.218135
1912.97, 0.218315
1913.68, 0.218495
1914.39, 0.218585
1915.09, 0.218495
1915.8, 0.218315
1916.51, 0.218495
1917.22, 0.218765
1917.93, 0.219035
1918.64, 0.218945
1919.35, 0.219215
1920.06, 0.219486
1920.77, 0.219306
1921.48, 0.219125
1922.19, 0.219215
1922.91, 0.219215
1923.62, 0.219215
1924.33, 0.219215
1925.05, 0.219215
1925.76, 0.219486
1926.48, 0.219846
1927.19, 0.219666
1927.91, 0.219576
1928.63, 0.219576
1929.35, 0.219756
1930.07, 0.220026
1930.78, 0.219936
1931.5, 0.219846
1932.22, 0.219936
1932.94, 0.220026
1933.66, 0.219936
1934.39, 0.219936
1935.11, 0.219936
1935.83, 0.220026
1936.55, 0.219846
1937.28, 0.219666
1938.0, 0.219756
1938.73, 0.220026
1939.45, 0.220116
1940.18, 0.219846
1940.9, 0.219846
1941.63, 0.220116
1942.36, 0.220116
1943.09, 0.220026
1943.81, 0.219936
1944.54, 0.220026
1945.27, 0.219936
1946.0, 0.219756
1946.73, 0.219846
1947.47, 0.219756
1948.2, 0.219666
1948.93, 0.220026
1949.66, 0.220386
1950.4, 0.220206
1951.13, 0.219846
1951.86, 0.219846
1952.6, 0.219936
1953.34, 0.220116
1954.07, 0.220206
1954.81, 0.220296
1955.55, 0.220206
1956.29, 0.220026
1957.02, 0.219756
1957.76, 0.219756
1958.5, 0.220026
1959.24, 0.220206
1959.98, 0.219756
1960.72, 0.219666
1961.47, 0.219666
1962.21, 0.219756
1962.95, 0.220026
1963.7, 0.219936
1964.44, 0.220296
1965.18, 0.220476
1965.93, 0.220116
1966.67, 0.220116
1967.42, 0.220206
1968.17, 0.220296
1968.92, 0.220206
1969.66, 0.220116
1970.41, 0.220026
1971.16, 0.220206
1971.91, 0.220026
1972.66, 0.220026
1973.41, 0.219936
1974.16, 0.219756
1974.92, 0.219576
1975.67, 0.219396
1976.42, 0.219215
1977.18, 0.219576
1977.93, 0.219576
1978.69, 0.219396
1979.44, 0.219486
1980.2, 0.219215
1980.95, 0.219306
1981.71, 0.219125
1982.47, 0.218675
1983.23, 0.218675
1983.99, 0.218765
1984.74, 0.218945
1985.51, 0.218765
1986.27, 0.218675
1987.03, 0.218765
1987.79, 0.218675
1988.55, 0.218585
1989.32, 0.218765
1990.08, 0.218675
1990.84, 0.218135
1991.61, 0.217955
1992.37, 0.218225
1993.14, 0.218675
1993.9, 0.218675
1994.67, 0.218765
1995.44, 0.218675
1996.21, 0.218495
1996.98, 0.218495
1997.75, 0.218675
1998.52, 0.218765
1999.29, 0.218855
2000.06, 0.218765
2000.83, 0.218945
2001.6, 0.218855
2002.38, 0.218855
2003.15, 0.219125
2003.93, 0.218945
2004.7, 0.218945
2005.48, 0.219215
2006.25, 0.219306
2007.03, 0.219666
2007.81, 0.219756
2008.58, 0.219576
2009.36, 0.219846
2010.14, 0.220206
2010.92, 0.220296
2011.7, 0.220476
2012.48, 0.220566
2013.26, 0.220656
2014.05, 0.220836
2014.83, 0.221016
2015.61, 0.221196
2016.4, 0.221376
2017.18, 0.221556
2017.97, 0.221916
2018.75, 0.221916
2019.54, 0.221916
2020.32, 0.222186
2021.11, 0.222637
2021.9, 0.222907
2022.69, 0.222997
2023.48, 0.222817
2024.27, 0.222997
2025.06, 0.223177
2025.85, 0.223537
2026.64, 0.223987
2027.44, 0.224257
2028.23, 0.224347
2029.02, 0.224797
2029.82, 0.225247
2030.61, 0.225427
2031.41, 0.225427
2032.2, 0.225157
2033.0, 0.225247
2033.8, 0.225877
2034.6, 0.226328
2035.4, 0.226418
2036.2, 0.226598
2037.0, 0.226778
2037.8, 0.226958
2038.6, 0.226958
2039.4, 0.227048
2040.2, 0.227318
2041.01, 0.227678
2041.81, 0.227588
2042.61, 0.227678
2043.42, 0.227948
2044.22, 0.228128
2045.03, 0.228398
2045.84, 0.228668
2046.65, 0.229028
2047.46, 0.228848
2048.26, 0.228668
2049.07, 0.229118
2049.88, 0.229749
2050.69, 0.229659
2051.51, 0.229479
2052.32, 0.229659
2053.13, 0.229929
2053.94, 0.230019
2054.76, 0.230019
2055.57, 0.230199
2056.39, 0.230559
2057.2, 0.230739
2058.02, 0.230919
2058.84, 0.231189
2059.66, 0.231279
2060.48, 0.231099
2061.29, 0.231009
2062.11, 0.231279
2062.94, 0.231279
2063.76, 0.231279
2064.58, 0.231189
2065.4, 0.231189
2066.22, 0.231549
2067.05, 0.231819
2067.87, 0.231729
2068.7, 0.231549
2069.52, 0.231819
2070.35, 0.231909
2071.18, 0.231729
2072.0, 0.231549
2072.83, 0.231729
2073.66, 0.232179
2074.49, 0.232359
2075.32, 0.232089
2076.15, 0.232089
2076.98, 0.232269
2077.82, 0.232539
2078.65, 0.232359
2079.48, 0.232269
2080.32, 0.232359
2081.15, 0.232359
2081.99, 0.232359
2082.83, 0.232359
2083.66, 0.232269
2084.5, 0.232269
2085.34, 0.232449
2086.18, 0.232539
2087.02, 0.232810
2087.86, 0.232720
2088.7, 0.232810
2089.54, 0.232900
2090.39, 0.232630
2091.23, 0.232720
2092.07, 0.232990
2092.92, 0.233080
2093.76, 0.232990
2094.61, 0.232720
2095.45, 0.232630
2096.3, 0.232810
2097.15, 0.232900
2098.0, 0.232630
2098.85, 0.232539
2099.7, 0.232449
2100.55, 0.232449
2101.4, 0.232359
2102.25, 0.232449
2103.1, 0.232630
2103.96, 0.232630
2104.81, 0.232720
2105.67, 0.232630
2106.52, 0.232539
2107.38, 0.232449
2108.24, 0.232089
2109.09, 0.231999
2109.95, 0.232269
2110.81, 0.232269
2111.67, 0.232269
2112.53, 0.232449
2113.39, 0.232630
2114.25, 0.232720
2115.12, 0.232630
2115.98, 0.232359
2116.84, 0.231999
2117.71, 0.232179
2118.58, 0.232449
2119.44, 0.232179
2120.31, 0.231999
2121.18, 0.231999
2122.04, 0.232179
2122.91, 0.232269
2123.78, 0.232359
2124.65, 0.232630
2125.52, 0.232900
2126.4, 0.232720
2127.27, 0.232720
2128.14, 0.232720
2129.02, 0.232449
2129.89, 0.232539
2130.77, 0.232990
2131.64, 0.232990
2132.52, 0.232990
2133.4, 0.233260
2134.27, 0.233620
2135.15, 0.233620
2136.03, 0.233530
2136.91, 0.233350
2137.79, 0.233260
2138.68, 0.233530
2139.56, 0.233710
2140.44, 0.233620
2141.33, 0.233530
2142.21, 0.233710
2143.1, 0.233890
2143.99, 0.233890
2144.87, 0.233710
2145.76, 0.234070
2146.65, 0.234160
2147.54, 0.233890
2148.43, 0.234070
2149.32, 0.234160
2150.21, 0.234250
2151.1, 0.234340
2151.99, 0.234160
2152.89, 0.234070
2153.78, 0.234070
2154.68, 0.234070
2155.57, 0.234070
2156.47, 0.234250
2157.37, 0.234340
2158.27, 0.234430
2159.16, 0.234340
2160.06, 0.234430
2160.96, 0.234610
2161.86, 0.234520
2162.77, 0.234430
2163.67, 0.234340
2164.57, 0.234430
2165.48, 0.234430
2166.38, 0.234340
2167.29, 0.234160
2168.2, 0.234241
2169.1, 0.234805
2170.01, 0.234644
2170.92, 0.234805
2171.83, 0.234886
2172.74, 0.234886
2173.65, 0.234563
2174.56, 0.234886
2175.47, 0.234886
2176.39, 0.235370
2177.3, 0.235370
2178.22, 0.234725
2179.13, 0.234805
2180.05, 0.234805
2180.96, 0.234321
2181.88, 0.234079
2182.8, 0.233434
2183.72, 0.233111
2184.64, 0.233676
2185.56, 0.233757
2186.48, 0.233192
2187.41, 0.233434
2188.33, 0.233918
2189.25, 0.233515
2190.18, 0.232869
2191.1, 0.232789
2192.03, 0.232063
2192.96, 0.232305
2193.89, 0.232547
2194.82, 0.232385
2195.74, 0.232789
2196.68, 0.232708
2197.61, 0.232305
2198.54, 0.232143
2199.47, 0.231901
2200.4, 0.231901
2201.34, 0.231579
2202.28, 0.231256
2203.21, 0.231175
2204.15, 0.231175
2205.08, 0.231256
2206.02, 0.230934
2206.96, 0.230530
2207.9, 0.229804
2208.84, 0.229966
2209.78, 0.229885
2210.73, 0.229078
2211.67, 0.228756
2212.61, 0.229159
2213.56, 0.229159
2214.5, 0.228917
2215.45, 0.228191
2216.4, 0.227949
2217.35, 0.228110
2218.3, 0.227868
2219.24, 0.227062
2220.2, 0.226820
2221.15, 0.226497
2222.1, 0.225771
2223.05, 0.225045
2224.0, 0.224561
2224.96, 0.224158
2225.91, 0.223755
2226.87, 0.222867
2227.83, 0.222222
2228.79, 0.221657
2229.74, 0.220851
2230.7, 0.219802
2231.66, 0.218673
2232.63, 0.217544
2233.59, 0.216253
2234.55, 0.215205
2235.51, 0.214479
2236.48, 0.213107
2237.44, 0.211655
2238.41, 0.210284
2239.38, 0.208671
2240.34, 0.207058
2241.31, 0.204961
2242.28, 0.203105
2243.25, 0.201895
2244.22, 0.200685
2245.19, 0.198427
2246.17, 0.196491
2247.14, 0.195281
2248.12, 0.194152
2249.09, 0.193265
2250.07, 0.192861
2251.04, 0.192377
2252.02, 0.191813
2253.0, 0.191893
2253.98, 0.191813
2254.96, 0.191893
2255.94, 0.192539
2256.92, 0.193910
2257.91, 0.194475
2258.89, 0.194959
2259.88, 0.195604
2260.86, 0.196088
2261.85, 0.196572
2262.83, 0.196733
2263.82, 0.196894
2264.81, 0.197782
2265.8, 0.198427
2266.79, 0.198427
2267.78, 0.198911
2268.78, 0.199153
2269.77, 0.199798
2270.76, 0.199718
2271.76, 0.199395
2272.75, 0.199476
2273.75, 0.200121
2274.75, 0.201008
2275.75, 0.200847
2276.75, 0.200524
2277.75, 0.200444
2278.75, 0.200444
2279.75, 0.199798
2280.75, 0.198911
2281.76, 0.198346
2282.76, 0.198104
2283.77, 0.198024
2284.77, 0.197782
2285.78, 0.196975
2286.79, 0.195926
2287.8, 0.195120
2288.81, 0.194797
2289.82, 0.194152
2290.83, 0.193345
2291.84, 0.192619
2292.86, 0.191732
2293.87, 0.191167
2294.89, 0.190925
2295.91, 0.190603
2296.92, 0.190038
2297.94, 0.189635
2298.96, 0.189151
2299.98, 0.188828
2301.0, 0.188425
2302.02, 0.188264
2303.04, 0.188102
2304.07, 0.188102
2305.09, 0.187618
2306.12, 0.186489
2307.15, 0.185924
2308.17, 0.186570
2309.2, 0.186650
2310.23, 0.186247
2311.26, 0.186489
2312.29, 0.186086
2313.32, 0.185440
2314.35, 0.185118
2315.39, 0.184473
2316.42, 0.184069
2317.46, 0.183827
2318.5, 0.183101
2319.53, 0.182940
2320.57, 0.182456
2321.61, 0.182053
2322.65, 0.182375
2323.69, 0.181649
2324.73, 0.180197
2325.78, 0.179714
2326.82, 0.179472
2327.86, 0.178907
2328.91, 0.178826
2329.96, 0.178584
2331.01, 0.178020
2332.05, 0.177536
2333.1, 0.176729
2334.15, 0.175842
2335.21, 0.175519
2336.26, 0.175035
2337.31, 0.174793
2338.36, 0.174551
2339.42, 0.174309
2340.48, 0.174390
2341.53, 0.174471
2342.59, 0.174551
2343.65, 0.174551
2344.71, 0.174874
2345.77, 0.175116
2346.83, 0.175116
2347.9, 0.175277
2348.96, 0.175600
2350.02, 0.175842
2351.09, 0.176164
2352.16, 0.176890
2353.23, 0.177294
2354.29, 0.178100
2355.36, 0.178665
2356.43, 0.178988
2357.51, 0.179391
2358.58, 0.180036
2359.65, 0.180762
2360.73, 0.181488
2361.8, 0.182617
2362.88, 0.183585
2363.96, 0.183989
2365.03, 0.184553
2366.11, 0.185763
2367.19, 0.186812
2368.27, 0.187780
2369.36, 0.188748
2370.44, 0.189877
2371.53, 0.190603
2372.61, 0.191167
2373.7, 0.191813
2374.78, 0.192700
2375.87, 0.193668
2376.96, 0.194233
2378.05, 0.194959
2379.14, 0.195765
2380.24, 0.196088
2381.33, 0.196330
2382.42, 0.196733
2383.52, 0.197056
2384.61, 0.197136
2385.71, 0.196975
2386.81, 0.197620
2387.91, 0.198104
2389.01, 0.198266
2390.11, 0.198266
2391.22, 0.198669
2392.32, 0.198750
2393.42, 0.198588
2394.53, 0.198750
2395.64, 0.199072
2396.74, 0.199395
2397.85, 0.199879
2398.96, 0.200444
2400.07, 0.200444
2401.18, 0.200282
2402.3, 0.200282
2403.41, 0.200847
2404.52, 0.201250
2405.64, 0.201734
2406.76, 0.201976
2407.88, 0.201895
2408.99, 0.202299
2410.11, 0.203025
2411.23, 0.203347
2412.36, 0.202863
2413.48, 0.202702
2414.6, 0.203428
2415.73, 0.204154
2416.85, 0.204073
2417.98, 0.203831
2419.11, 0.204073
2420.24, 0.204315
2421.37, 0.204154
2422.5, 0.203912
2423.64, 0.204073
2424.77, 0.204235
2425.9, 0.204154
2427.04, 0.203751
2428.18, 0.203589
2429.31, 0.203347
2430.45, 0.203105
2431.59, 0.202783
2432.73, 0.202863
2433.88, 0.202702
2435.02, 0.202379
2436.16, 0.202621
2437.31, 0.202299
2438.45, 0.201976
2439.6, 0.201815
2440.75, 0.201976
2441.9, 0.202218
2443.05, 0.202057
2444.2, 0.201815
2445.35, 0.201653
2446.51, 0.201008
2447.67, 0.200282
2448.82, 0.199718
2449.98, 0.199476
2451.14, 0.199476
2452.3, 0.199395
2453.46, 0.199395
2454.62, 0.198750
2455.78, 0.198185
2456.94, 0.197943
2458.11, 0.197943
2459.28, 0.197136
2460.44, 0.196249
2461.61, 0.196249
2462.78, 0.196330
2463.95, 0.196007
2465.12, 0.194959
2466.3, 0.194233
2467.47, 0.194071
2468.65, 0.193910
2469.82, 0.193668
2471.0, 0.193265
2472.18, 0.192539
2473.36, 0.192297
2474.54, 0.192297
2475.72, 0.191893
2476.9, 0.191490
2478.08, 0.191329
2479.27, 0.190845
2480.46, 0.190200
2481.64, 0.190200
2482.83, 0.190522
2484.02, 0.190603
2485.21, 0.190361
2486.4, 0.189877
2487.6, 0.189474
2488.79, 0.189554
2489.99, 0.189635
2491.18, 0.189312
2492.38, 0.189151
2493.58, 0.189151
2494.78, 0.189070
2495.98, 0.188990
2497.18, 0.188990
2498.39, 0.188990
2499.59, 0.188909
2500.8, 0.188586
2502.01, 0.188425
2503.21, 0.188344
2504.42, 0.188022
2505.63, 0.187941
2506.84, 0.188183
2508.06, 0.188425
2509.27, 0.188425
2510.49, 0.188344
2511.7, 0.188102
2512.92, 0.187941
2514.14, 0.187941
2515.36, 0.187941
2516.58, 0.187860
2517.8, 0.187780
2519.03, 0.187538
2520.25, 0.187780
2521.48, 0.187860
2522.7, 0.187538
2523.93, 0.187215
2525.16, 0.187134
2526.39, 0.186892
2527.62, 0.186489
2528.86, 0.186005
2530.09, 0.186166
2531.33, 0.186570
2532.56, 0.186650
2533.8, 0.186570
2535.04, 0.186812
2536.28, 0.186892
2537.52, 0.186086
2538.76, 0.185924
2540.01, 0.185763
2541.25, 0.185440
2542.5, 0.185924
2543.75, 0.185924
2544.99, 0.185440
2546.24, 0.185118
2547.49, 0.185279
2548.75, 0.184715
2550.0, 0.184634
2551.26, 0.185118
2552.51, 0.185360
2553.77, 0.184473
2555.03, 0.183343
2556.29, 0.182940
2557.55, 0.182859
2558.81, 0.183101
2560.08, 0.184634
2561.34, 0.186328
2562.61, 0.186408
2563.88, 0.186086
2565.14, 0.184311
2566.41, 0.182375
2567.68, 0.182698
2568.96, 0.184150
2570.23, 0.183908
2571.51, 0.183182
2572.78, 0.184957
2574.06, 0.184311
2575.34, 0.183182
2576.62, 0.183989
2577.9, 0.182940
2579.18, 0.181891
2580.47, 0.182617
2581.75, 0.182537
2583.04, 0.184150
2584.32, 0.184876
2585.61, 0.183182
2586.9, 0.183747
2588.2, 0.183101
2589.49, 0.182214
2590.78, 0.181730
2592.08, 0.182214
2593.37, 0.186892
2594.67, 0.191813
2595.97, 0.187618
2597.27, 0.182779
2598.57, 0.181407
2599.88, 0.181891
2601.18, 0.182859
2602.49, 0.183666
2603.79, 0.185118
2605.1, 0.187134
2606.41, 0.185763
2607.72, 0.183908
2609.03, 0.183505
2610.35, 0.182779
2611.66, 0.182133
2612.98, 0.182940
2614.3, 0.182940
2615.62, 0.185279
2616.94, 0.186731
2618.26, 0.184795
2619.58, 0.186086
2620.91, 0.185602
2622.23, 0.182779
2623.56, 0.182053
2624.89, 0.182940
2626.22, 0.185279
2627.55, 0.184069
2628.88, 0.184473
2630.21, 0.186973
2631.55, 0.184715
2632.89, 0.183424
2634.22, 0.183505
2635.56, 0.181972
2636.9, 0.181569
2638.25, 0.181165
2639.59, 0.180762
2640.93, 0.180762
2642.28, 0.180843
2643.63, 0.180601
2644.98, 0.181327
2646.33, 0.181004
2647.68, 0.179794
2649.03, 0.179310
2650.39, 0.179714
2651.74, 0.180843
2653.1, 0.180762
2654.46, 0.179794
2655.82, 0.179391
2657.18, 0.178020
2658.54, 0.178907
2659.9, 0.179310
2661.27, 0.178665
2662.64, 0.178100
2664.01, 0.180762
2665.38, 0.183666
2666.74, 0.183263
2668.12, 0.180601
2669.49, 0.183182
2670.87, 0.182940
2672.24, 0.177213
2673.62, 0.175680
2675.0, 0.176810
2676.38, 0.178181
2677.76, 0.177294
2679.15, 0.175680
2680.54, 0.172454
2681.92, 0.171163
2683.31, 0.171244
2684.7, 0.170195
2686.09, 0.169228
2687.48, 0.167695
2688.88, 0.165678
2690.27, 0.163339
2691.67, 0.162291
2693.07, 0.162371
2694.47, 0.160274
2695.87, 0.155757
2697.27, 0.151321
2698.67, 0.147368
2700.08, 0.144545
2701.49, 0.142125
2702.9, 0.139544
2704.31, 0.137608
2705.72, 0.135672
2707.13, 0.133091
2708.54, 0.129461
2709.96, 0.124944
2711.38, 0.118169
2712.8, 0.110103
2714.22, 0.104053
2715.64, 0.0993750
2717.06, 0.0959870
2718.49, 0.0933250
2719.91, 0.0925990
2721.34, 0.0904210
2722.77, 0.0884050
2724.2, 0.0884050
2725.63, 0.0867110
2727.07, 0.0848560
2728.5, 0.0844520
2729.94, 0.0846140
2731.38, 0.0849360
2732.82, 0.0854200
2734.26, 0.0865500
2735.7, 0.0863080
2737.15, 0.0859040
2738.59, 0.0873560
2740.04, 0.0884050
2741.49, 0.0874370
2742.94, 0.0857430
2744.39, 0.0851780
2745.84, 0.0849360
2747.3, 0.0843720
2748.76, 0.0840490
2750.21, 0.0838880
2751.67, 0.0836460
2753.14, 0.0838070
2754.6, 0.0848560
2756.06, 0.0841300
2757.53, 0.0818710
2759.0, 0.0809030
2760.46, 0.0810650
2761.94, 0.0818710
2763.41, 0.0823550
2764.88, 0.0821940
2766.36, 0.0821130
2767.83, 0.0815490
2769.31, 0.0807420
2770.79, 0.0799350
2772.27, 0.0783220
2773.76, 0.0765480
2775.24, 0.0749340
2776.73, 0.0734830
2778.22, 0.0717890
2779.71, 0.0702560
2781.2, 0.0688850
2782.69, 0.0676750
2784.18, 0.0665460
2785.68, 0.0658200
2787.18, 0.0649320
2788.68, 0.0638030
2790.18, 0.0626740
2791.68, 0.0617060
2793.19, 0.0608190
2794.69, 0.0602540
2796.2, 0.0597700
2797.71, 0.0592050
2799.22, 0.0587210
2800.73, 0.0586410
2802.24, 0.0587210
2803.76, 0.0583990
2805.28, 0.0576730
2806.8, 0.0571080
2808.32, 0.0570280
2809.84, 0.0566240
2811.36, 0.0563820
2812.89, 0.0564630
2814.42, 0.0563820
2815.94, 0.0562210
2817.48, 0.0562210
2819.01, 0.0561400
2820.54, 0.0563820
2822.08, 0.0565440
2823.61, 0.0566240
2825.15, 0.0567050
2826.69, 0.0566240
2828.23, 0.0567050
2829.78, 0.0570280
2831.32, 0.0569470
2832.87, 0.0569470
2834.42, 0.0570280
2835.97, 0.0572700
2837.52, 0.0575920
2839.08, 0.0575120
2840.63, 0.0577540
2842.19, 0.0580760
2843.75, 0.0584790
2845.31, 0.0586410
2846.87, 0.0586410
2848.44, 0.0588020
2850.0, 0.0589630
2851.57, 0.0591250
2853.14, 0.0594470
2854.71, 0.0595280
2856.28, 0.0595280
2857.86, 0.0596890
2859.43, 0.0598510
2861.01, 0.0598510
2862.59, 0.0597700
2864.17, 0.0600930
2865.76, 0.0601730
2867.34, 0.0600120
2868.93, 0.0599310
2870.52, 0.0600930
2872.11, 0.0600930
2873.7, 0.0598510
2875.29, 0.0596090
2876.89, 0.0589630
2878.49, 0.0588020
2880.08, 0.0588830
2881.69, 0.0584790
2883.29, 0.0581570
2884.89, 0.0577540
2886.5, 0.0572700
2888.11, 0.0569470
2889.72, 0.0567050
2891.33, 0.0565440
2892.94, 0.0563020
2894.56, 0.0558980
2896.17, 0.0554950
2897.79, 0.0554950
2899.42, 0.0554950
2901.04, 0.0552530
2902.66, 0.0548500
2904.29, 0.0545270
2905.92, 0.0544460
2907.55, 0.0542850
2909.18, 0.0543660
2910.81, 0.0543660
2912.45, 0.0542850
2914.08, 0.0539620
2915.72, 0.0538010
2917.36, 0.0539620
2919.01, 0.0538820
2920.65, 0.0538010
2922.3, 0.0538820
2923.94, 0.0539620
2925.59, 0.0538820
2927.25, 0.0537200
2928.9, 0.0536400
2930.56, 0.0536400
2932.21, 0.0536400
2933.87, 0.0537200
2935.53, 0.0536400
2937.2, 0.0536400
2938.86, 0.0538820
2940.53, 0.0540430
2942.2, 0.0542040
2943.87, 0.0541240
2945.54, 0.0542040
2947.22, 0.0544460
2948.89, 0.0546080
2950.57, 0.0544460
2952.25, 0.0543660
2953.93, 0.0542850
2955.62, 0.0542850
2957.3, 0.0543660
2958.99, 0.0547690
2960.68, 0.0552530
2962.37, 0.0551720
2964.07, 0.0550920
2965.76, 0.0554140
2967.46, 0.0556560
2969.16, 0.0558980
2970.86, 0.0559790
2972.56, 0.0558980
2974.27, 0.0561400
2975.98, 0.0561400
2977.69, 0.0562210
2979.4, 0.0565440
2981.11, 0.0568660
2982.83, 0.0571080
2984.54, 0.0571080
2986.26, 0.0573500
2987.98, 0.0578340
2989.71, 0.0579960
2991.43, 0.0579960
2993.16, 0.0580760
2994.89, 0.0584790
2996.62, 0.0589630
2998.35, 0.0591250
3000.09, 0.0591250
3001.83, 0.0594470
3003.57, 0.0596890
3005.31, 0.0596090
3007.05, 0.0599310
3008.79, 0.0604960
3010.54, 0.0607380
3012.29, 0.0611410
3014.04, 0.0617060
3015.8, 0.0619480
3017.55, 0.0620290
3019.31, 0.0624320
3021.07, 0.0627550
3022.83, 0.0632390
3024.59, 0.0635610
3026.36, 0.0638840
3028.13, 0.0642870
3029.9, 0.0646100
3031.67, 0.0647710
3033.44, 0.0651740
3035.22, 0.0656580
3037.0, 0.0659810
3038.78, 0.0661420
3040.56, 0.0666260
3042.34, 0.0671100
3044.13, 0.0675140
3045.92, 0.0678360
3047.71, 0.0681590
3049.5, 0.0686430
3051.3, 0.0690460
3053.09, 0.0695300
3054.89, 0.0701750
3056.69, 0.0705790
3058.5, 0.0709820
3060.3, 0.0715470
3062.11, 0.0719500
3063.92, 0.0724340
3065.73, 0.0729180
3067.55, 0.0732410
3069.36, 0.0737240
3071.18, 0.0743700
3073.0, 0.0748540
3074.82, 0.0752570
3076.65, 0.0758220
3078.48, 0.0761440
3080.31, 0.0766280
3082.14, 0.0771930
3083.97, 0.0778380
3085.8, 0.0784840
3087.64, 0.0788060
3089.48, 0.0791290
3091.33, 0.0796130
3093.17, 0.0801770
3095.02, 0.0808230
3096.87, 0.0813070
3098.72, 0.0817100
3100.57, 0.0821940
3102.43, 0.0828390
3104.28, 0.0834850
3106.14, 0.0842910
3108.01, 0.0845330
3109.87, 0.0848560
3111.74, 0.0851780
3113.61, 0.0855820
3115.48, 0.0863080
3117.35, 0.0869530
3119.23, 0.0876790
3121.1, 0.0881630
3122.98, 0.0885660
3124.87, 0.0890500
3126.75, 0.0893730
3128.64, 0.0898570
3130.53, 0.0904210
3132.42, 0.0907440
3134.31, 0.0912280
3136.21, 0.0918730
3138.11, 0.0924380
3140.01, 0.0930030
3141.91, 0.0934870
3143.82, 0.0939700
3145.73, 0.0942930
3147.64, 0.0947770
3149.55, 0.0952610
3151.46, 0.0955030
3153.38, 0.0959870
3155.3, 0.0965520
3157.22, 0.0968740
3159.14, 0.0972780
3161.07, 0.0977620
3163.0, 0.0983260
3164.93, 0.0990520
3166.86, 0.0996170
3168.8, 0.0998590
3170.74, 0.100181
3172.68, 0.100585
3174.62, 0.101069
3176.56, 0.101553
3178.51, 0.101956
3180.46, 0.102601
3182.42, 0.103247
3184.37, 0.103731
3186.33, 0.104053
3188.29, 0.104456
3190.25, 0.105102
3192.21, 0.105747
3194.18, 0.106231
3196.15, 0.106554
3198.12, 0.106876
3200.09, 0.107522
3202.07, 0.108086
3204.05, 0.108651
3206.03, 0.109054
3208.02, 0.109377
3210.0, 0.109699
3211.99, 0.110022
3213.98, 0.110667
3215.98, 0.111232
3217.97, 0.111635
3219.97, 0.111958
3221.97, 0.112442
3223.98, 0.112765
3225.98, 0.112926
3227.99, 0.113410
3230.0, 0.114217
3232.02, 0.114700
3234.03, 0.114942
3236.05, 0.115104
3238.07, 0.115426
3240.1, 0.115830
3242.12, 0.116233
3244.15, 0.116717
3246.18, 0.117201
3248.22, 0.117524
3250.25, 0.117685
3252.29, 0.117927
3254.33, 0.118169
3256.38, 0.118169
3258.43, 0.118492
3260.47, 0.118976
3262.53, 0.119218
3264.58, 0.119459
3266.64, 0.119621
3268.7, 0.119621
3270.76, 0.120024
3272.82, 0.120669
3274.89, 0.120831
3276.96, 0.120992
3279.04, 0.121153
3281.11, 0.121476
3283.19, 0.121557
3285.27, 0.121476
3287.35, 0.121879
3289.44, 0.122202
3291.53, 0.122444
3293.62, 0.122847
3295.71, 0.123089
3297.81, 0.123412
3299.91, 0.123815
3302.01, 0.123815
3304.11, 0.123896
3306.22, 0.124299
3308.33, 0.124622
3310.44, 0.124783
3312.56, 0.125025
3314.68, 0.125428
3316.8, 0.125832
3318.92, 0.126154
3321.05, 0.126235
3323.18, 0.126316
3325.31, 0.126638
3327.44, 0.126961
3329.58, 0.127042
3331.72, 0.127364
3333.86, 0.127445
3336.01, 0.127606
3338.16, 0.127929
3340.31, 0.128171
3342.46, 0.128090
3344.61, 0.128252
3346.77, 0.128736
3348.94, 0.129058
3351.1, 0.129461
3353.27, 0.129784
3355.44, 0.129865
3357.61, 0.130026
3359.79, 0.130107
3361.97, 0.130268
3364.15, 0.130591
3366.33, 0.130833
3368.52, 0.131075
3370.71, 0.131317
3372.9, 0.131559
3375.1, 0.131962
3377.3, 0.132204
3379.5, 0.132365
3381.71, 0.132688
3383.91, 0.132769
3386.12, 0.133091
3388.34, 0.133575
3390.55, 0.133737
3392.77, 0.133898
3394.99, 0.134221
3397.22, 0.134543
3399.45, 0.134704
3401.68, 0.134785
3403.91, 0.134946
3406.15, 0.135108
3408.39, 0.135188
3410.63, 0.135592
3412.87, 0.135995
3415.12, 0.136156
3417.37, 0.136237
3419.63, 0.136721
3421.88, 0.137044
3424.14, 0.137366
3426.41, 0.137770
3428.67, 0.138092
3430.94, 0.138254
3433.21, 0.138415
3435.49, 0.138818
3437.77, 0.139222
3440.05, 0.139464
3442.33, 0.139705
3444.62, 0.139947
3446.91, 0.140109
3449.2, 0.140270
3451.5, 0.140351
3453.8, 0.140593
3456.1, 0.140835
3458.41, 0.141157
3460.72, 0.141561
3463.03, 0.141803
3465.34, 0.141803
3467.66, 0.142125
3469.98, 0.142448
3472.31, 0.142448
3474.63, 0.142448
3476.96, 0.142771
3479.3, 0.143013
3481.64, 0.143174
3483.97, 0.143416
3486.32, 0.143577
3488.66, 0.143577
3491.01, 0.143658
3493.36, 0.143900
3495.72, 0.144223
3498.08, 0.144384
3500.44, 0.144707
3502.81, 0.145029
3505.18, 0.145432
3507.55, 0.145836
3509.92, 0.146078
3512.3, 0.146239
3514.68, 0.146239
3517.06, 0.146481
3519.45, 0.146965
3521.84, 0.147288
3524.24, 0.147610
3526.64, 0.148014
3529.04, 0.148336
3531.44, 0.148578
3533.85, 0.148659
3536.26, 0.148820
3538.67, 0.149224
3541.09, 0.149546
3543.51, 0.149788
3545.93, 0.149949
3548.36, 0.150272
3550.79, 0.150514
3553.22, 0.150837
3555.66, 0.151240
3558.1, 0.151643
3560.54, 0.151966
3562.99, 0.152127
3565.44, 0.152450
3567.9, 0.152934
3570.35, 0.153257
3572.81, 0.153579
3575.28, 0.153821
3577.75, 0.154144
3580.22, 0.154467
3582.69, 0.154789
3585.17, 0.155192
3587.65, 0.155596
3590.14, 0.155918
3592.62, 0.156322
3595.11, 0.156644
3597.61, 0.156886
3600.11, 0.157048
3602.61, 0.157209
3605.11, 0.157532
3607.62, 0.158016
3610.14, 0.158338
3612.65, 0.158500
3615.17, 0.158742
3617.69, 0.159064
3620.22, 0.159387
3622.75, 0.159710
3625.28, 0.160032
3627.82, 0.160274
3630.36, 0.160435
3632.9, 0.160597
3635.45, 0.160758
3638.0, 0.161000
3640.56, 0.161323
3643.12, 0.161565
3645.68, 0.161726
3648.24, 0.161887
3650.81, 0.162049
3653.39, 0.162371
3655.96, 0.162613
3658.54, 0.162775
3661.13, 0.162936
3663.71, 0.163097
3666.3, 0.163178
3668.9, 0.163259
3671.5, 0.163420
3674.1, 0.163662
3676.7, 0.163985
3679.31, 0.164065
3681.93, 0.164146
3684.54, 0.164307
3687.17, 0.164388
3689.79, 0.164549
3692.42, 0.164630
3695.05, 0.164630
3697.69, 0.164953
3700.32, 0.165114
3702.97, 0.165114
3705.61, 0.165194
3708.27, 0.165275
3710.92, 0.165436
3713.58, 0.165678
3716.24, 0.165840
3718.91, 0.165920
3721.58, 0.166001
3724.25, 0.166082
3726.93, 0.166243
3729.61, 0.166485
3732.29, 0.166808
3734.98, 0.166888
3737.67, 0.166727
3740.37, 0.166888
3743.07, 0.167050
3745.78, 0.167050
3748.49, 0.167050
3751.2, 0.167211
3753.91, 0.167453
3756.63, 0.167776
3759.36, 0.167937
3762.09, 0.168098
3764.82, 0.168098
3767.55, 0.168098
3770.29, 0.168098
3773.04, 0.168260
3775.78, 0.168340
3778.54, 0.168502
3781.29, 0.168663
3784.05, 0.168824
3786.82, 0.168986
3789.59, 0.169066
3792.36, 0.169147
3795.13, 0.169228
3797.92, 0.169147
3800.7, 0.169228
3803.49, 0.169389
3806.28, 0.169470
3809.08, 0.169470
3811.88, 0.169470
3814.68, 0.169631
3817.49, 0.169712
3820.31, 0.169792
3823.12, 0.170034
3825.94, 0.170115
3828.77, 0.170195
3831.6, 0.170357
3834.43, 0.170518
3837.27, 0.170679
3840.11, 0.170679
3842.96, 0.171002
3845.81, 0.171163
3848.67, 0.171163
3851.53, 0.171244
3854.39, 0.171486
3857.26, 0.171809
3860.13, 0.171809
3863.01, 0.171889
3865.89, 0.171889
3868.77, 0.171970
3871.66, 0.172212
3874.55, 0.172454
3877.45, 0.172535
3880.35, 0.172535
3883.26, 0.172454
3886.17, 0.172535
3889.09, 0.172777
3892.01, 0.172777
3894.93, 0.172857
3897.86, 0.172938
3900.79, 0.173099
3903.73, 0.173261
3906.67, 0.173341
3909.62, 0.173261
3912.57, 0.173261
3915.52, 0.173341
3918.48, 0.173422
3921.45, 0.173503
3924.42, 0.173503
3927.39, 0.173422
3930.37, 0.173422
3933.35, 0.173422
3936.34, 0.173341
3939.33, 0.173261
3942.32, 0.173261
3945.32, 0.173341
3948.33, 0.173422
3951.34, 0.173664
3954.35, 0.173745
3957.37, 0.173664
3960.39, 0.173583
3963.42, 0.173503
3966.45, 0.173503
3969.49, 0.173664
3972.53, 0.173825
3975.58, 0.173825
3978.63, 0.173825
3981.68, 0.173825
3984.75, 0.173906
3987.81, 0.173906
3990.88, 0.173825
3993.95, 0.173745
3997.03, 0.173745
4000.12, 0.173825
4003.21, 0.173825
4006.3, 0.173906
4009.4, 0.173987
4012.5, 0.174148
4015.61, 0.174148
4018.72, 0.173987
4021.84, 0.173906
4024.96, 0.174067
4028.09, 0.174067
4031.22, 0.174067
4034.36, 0.174148
4037.5, 0.174067
4040.65, 0.173987
4043.8, 0.173987
4046.96, 0.173987
4050.12, 0.173987
4053.29, 0.173987
4056.46, 0.174067
4059.64, 0.174067
4062.82, 0.173825
4066.0, 0.173745
4069.19, 0.173825
4072.39, 0.173906
4075.59, 0.173906
4078.8, 0.173745
4082.01, 0.173583
4085.23, 0.173745
4088.45, 0.173745
4091.68, 0.173583
4094.91, 0.173422
4098.15, 0.173341
4101.39, 0.173422
4104.63, 0.173583
4107.89, 0.173583
4111.14, 0.173341
4114.41, 0.173180
4117.67, 0.173099
4120.95, 0.173019
4124.23, 0.172938
4127.51, 0.172938
4130.8, 0.172857
4134.09, 0.172696
4137.39, 0.172615
4140.7, 0.172535
4144.01, 0.172454
4147.32, 0.172454
4150.64, 0.172535
4153.97, 0.172535
4157.3, 0.172373
4160.64, 0.172131
4163.98, 0.171970
4167.33, 0.171809
4170.68, 0.171728
4174.04, 0.171809
4177.4, 0.171647
4180.77, 0.171567
4184.14, 0.171486
4187.52, 0.171325
4190.91, 0.171325
4194.3, 0.171405
4197.69, 0.171567
4201.1, 0.171970
4204.5, 0.172373
4207.92, 0.173099
4211.34, 0.174148
4214.76, 0.175358
4218.19, 0.176568
4221.62, 0.177697
4225.06, 0.178584
4228.51, 0.179149
4231.96, 0.179472
4235.42, 0.179310
4238.88, 0.178746
4242.35, 0.178100
4245.83, 0.176729
4249.31, 0.174874
4252.79, 0.172696
4256.28, 0.171325
4259.78, 0.171889
4263.29, 0.173180
4266.79, 0.174309
4270.31, 0.175035
4273.83, 0.175277
4277.35, 0.175196
4280.89, 0.174793
4284.42, 0.174471
4287.97, 0.174148
4291.52, 0.173664
4295.07, 0.172938
4298.63, 0.172293
4302.2, 0.171567
4305.78, 0.171002
4309.35, 0.170357
4312.94, 0.169631
4316.53, 0.168905
4320.13, 0.168179
4323.73, 0.167614
4327.34, 0.167211
4330.96, 0.166727
4334.58, 0.166243
4338.21, 0.165759
4341.84, 0.165598
4345.48, 0.165436
4349.12, 0.165114
4352.77, 0.164791
4356.43, 0.164388
4360.1, 0.164227
4363.76, 0.164065
4367.44, 0.163904
4371.12, 0.163581
4374.81, 0.163339
4378.51, 0.163097
4382.21, 0.162855
4385.92, 0.162694
4389.63, 0.162613
4393.35, 0.162452
4397.08, 0.162129
4400.81, 0.161968
4404.55, 0.161726
4408.29, 0.161565
4412.04, 0.161242
4415.8, 0.160919
4419.57, 0.160677
4423.34, 0.160435
4427.12, 0.160032
4430.9, 0.159871
4434.69, 0.159629
4438.49, 0.159226
4442.29, 0.158984
4446.1, 0.158742
4449.92, 0.158258
4453.74, 0.157774
4457.57, 0.157451
4461.41, 0.157290
4465.25, 0.157048
4469.1, 0.156564
4472.95, 0.156160
4476.82, 0.155757
4480.69, 0.155354
4484.56, 0.155112
4488.44, 0.154628
4492.33, 0.154225
4496.23, 0.153821
4500.13, 0.153499
4504.04, 0.153257
4507.96, 0.152934
4511.88, 0.152692
4515.81, 0.152369
4519.75, 0.151885
4523.69, 0.151401
4527.65, 0.151079
4531.6, 0.150675
4535.57, 0.150353
4539.54, 0.149949
4543.52, 0.149546
4547.5, 0.149224
4551.5, 0.148740
4555.5, 0.148175
4559.5, 0.147691
4563.52, 0.147207
4567.54, 0.146481
4571.56, 0.145836
4575.6, 0.145110
4579.64, 0.144384
4583.69, 0.143658
4587.75, 0.142932
4591.81, 0.142125
4595.88, 0.141399
4599.96, 0.140593
4604.04, 0.140109
4608.14, 0.139544
4612.24, 0.138980
4616.34, 0.138415
4620.46, 0.137931
4624.58, 0.137608
4628.71, 0.137205
4632.84, 0.136640
4636.99, 0.136237
4641.14, 0.135834
4645.3, 0.135430
4649.47, 0.134946
4653.64, 0.134463
4657.82, 0.133979
4662.01, 0.133333
4666.21, 0.132527
4670.41, 0.131881
4674.62, 0.131317
4678.84, 0.130752
4683.07, 0.130107
4687.3, 0.129542
4691.54, 0.128816
4695.79, 0.128010
4700.05, 0.127284
4704.31, 0.126558
4708.59, 0.125751
4712.87, 0.125106
4717.15, 0.124299
4721.45, 0.123573
4725.76, 0.122767
4730.07, 0.121960
4734.39, 0.121315
4738.72, 0.120508
4743.05, 0.119863
4747.39, 0.119218
4751.75, 0.118492
4756.1, 0.117766
4760.47, 0.117120
4764.85, 0.116475
4769.23, 0.115910
4773.62, 0.115346
4778.02, 0.114862
4782.43, 0.114378
4786.85, 0.113894
4791.27, 0.113410
4795.7, 0.113087
4800.14, 0.112684
4804.59, 0.112200
4809.05, 0.111555
4813.51, 0.110909
4817.99, 0.110587
4822.47, 0.110183
4826.96, 0.109619
4831.46, 0.108974
4835.96, 0.108570
4840.48, 0.108167
4845.0, 0.107602
4849.54, 0.107038
4854.08, 0.106554
4858.63, 0.106070
4863.18, 0.105586
4867.75, 0.105102
4872.33, 0.104698
4876.91, 0.104295
4881.5, 0.103811
4886.1, 0.103247
4890.71, 0.102843
4895.33, 0.102440
4899.96, 0.101956
4904.59, 0.101391
4909.24, 0.101069
4913.89, 0.100665
4918.55, 0.100181
4923.22, 0.0998590
4927.9, 0.0995360
4932.59, 0.0990520
4937.29, 0.0987300
4942.0, 0.0984070
4946.71, 0.0980840
4951.44, 0.0977620
4956.17, 0.0976000
4960.91, 0.0973580
4965.67, 0.0971970
4970.43, 0.0971970
4975.2, 0.0969550
4979.98, 0.0967130
4984.76, 0.0965520
4989.56, 0.0963900
4994.37, 0.0963100
4999.18, 0.0962290
5004.01, 0.0962290
5008.84, 0.0961480
5013.69, 0.0961480
5018.54, 0.0963900
5023.4, 0.0963100
5028.28, 0.0962290
5033.16, 0.0962290
5038.05, 0.0962290
5042.95, 0.0962290
5047.86, 0.0962290
5052.78, 0.0960680
5057.71, 0.0959870
5062.65, 0.0959060
5067.6, 0.0960680
5072.56, 0.0959870
5077.53, 0.0958260
5082.5, 0.0959060
5087.49, 0.0957450
5092.49, 0.0955840
5097.5, 0.0956640
5102.51, 0.0957450
5107.54, 0.0957450
5112.58, 0.0956640
5117.62, 0.0955030
5122.68, 0.0955030
5127.75, 0.0955030
5132.82, 0.0953420
5137.91, 0.0953420
5143.01, 0.0955840
5148.12, 0.0957450
5153.23, 0.0954220
5158.36, 0.0951800
5163.5, 0.0950190
5168.65, 0.0950190
5173.81, 0.0950190
5178.98, 0.0948580
5184.15, 0.0946160
5189.34, 0.0943740
5194.54, 0.0943740
5199.75, 0.0943740
5204.98, 0.0940510
5210.21, 0.0941320
5215.45, 0.0941320
5220.7, 0.0935670
5225.96, 0.0933250
5231.23, 0.0932450
5236.52, 0.0931640
5241.81, 0.0930030
5247.12, 0.0928410
5252.44, 0.0927610
5257.76, 0.0925190
5263.1, 0.0922770
5268.45, 0.0921150
5273.81, 0.0920350
5279.18, 0.0917930
5284.56, 0.0917120
5289.95, 0.0918730
5295.36, 0.0916310
5300.77, 0.0913890
5306.2, 0.0913090
5311.63, 0.0911470
5317.08, 0.0910670
5322.54, 0.0909050
5328.01, 0.0909050
5333.49, 0.0908250
5338.98, 0.0907440
5344.49, 0.0911470
5350.0, 0.0917120
5355.53, 0.0912280
5361.07, 0.0905830
5366.62, 0.0903410
5372.18, 0.0901790
5377.75, 0.0900180
5383.34, 0.0900180
5388.93, 0.0899370
5394.54, 0.0897760
5400.16, 0.0895340
5405.79, 0.0894530
5411.44, 0.0895340
5417.09, 0.0899370
5422.76, 0.0902600
5428.43, 0.0891310
5434.12, 0.0884860
5439.83, 0.0882440
5445.54, 0.0880020
5451.26, 0.0875180
5457.0, 0.0874370
5462.75, 0.0878400
5468.52, 0.0873560
5474.29, 0.0869530
5480.08, 0.0867920
5485.88, 0.0859040
5491.69, 0.0851780
5497.51, 0.0847750
5503.35, 0.0845330
5509.2, 0.0842100
5515.06, 0.0841300
5520.93, 0.0839680
5526.82, 0.0836460
5532.71, 0.0832430
5538.63, 0.0830010
5544.55, 0.0828390
5550.49, 0.0829200
5556.44, 0.0826780
5562.4, 0.0822750
5568.37, 0.0821130
5574.36, 0.0826780
5580.36, 0.0829200
5586.37, 0.0818710
5592.4, 0.0812260
5598.44, 0.0813070
5604.49, 0.0810650
5610.56, 0.0808230
5616.63, 0.0809030
5622.73, 0.0806610
5628.83, 0.0805000
5634.95, 0.0811450
5641.08, 0.0821940
5647.23, 0.0815490
5653.39, 0.0809840
5659.56, 0.0805810
5665.74, 0.0800160
5671.94, 0.0803390
5678.15, 0.0804190
5684.38, 0.0798550
5690.62, 0.0797740
5696.87, 0.0792900
5703.14, 0.0792900
5709.42, 0.0800160
5715.72, 0.0796130
5722.03, 0.0788870
5728.35, 0.0782420
5734.69, 0.0778380
5741.03, 0.0776770
5747.4, 0.0777580
5753.78, 0.0768700
5760.17, 0.0775160
5766.58, 0.0787250
5773.0, 0.0768700
5779.44, 0.0753380
5785.88, 0.0745310
5792.35, 0.0739660
5798.83, 0.0738860
5805.32, 0.0735630
5811.83, 0.0737240
5818.35, 0.0750960
5824.89, 0.0752570
5831.45, 0.0739660
5838.01, 0.0727570
5844.59, 0.0721110
5851.19, 0.0721920
5857.8, 0.0725150
5864.43, 0.0727570
5871.07, 0.0726760
5877.73, 0.0748540
5884.4, 0.0746120
5891.09, 0.0735630
5897.79, 0.0738050
5904.5, 0.0720310
5911.23, 0.0713850
5917.98, 0.0713850
5924.75, 0.0715470
5931.53, 0.0733210
5938.32, 0.0742080
5945.13, 0.0721110
5951.96, 0.0710630
5958.8, 0.0709010
5965.65, 0.0720310
5972.53, 0.0719500
5979.42, 0.0712240
5986.32, 0.0719500
5993.24, 0.0717080
6000.18, 0.0706590
6007.13, 0.0707400
6014.1, 0.0710630
6021.08, 0.0704980
6028.09, 0.0699330
6035.1, 0.0701750
6042.14, 0.0726760
6049.19, 0.0749340
6056.25, 0.0717890
6063.34, 0.0704170
6070.44, 0.0714660
6077.55, 0.0708210
6084.69, 0.0692880
6091.84, 0.0688850
6099.0, 0.0689650
6106.19, 0.0697720
6113.39, 0.0707400
6120.61, 0.0691270
6127.84, 0.0677560
6135.09, 0.0676750
6142.36, 0.0677560
6149.65, 0.0675940
6156.95, 0.0679170
6164.27, 0.0674330
6171.61, 0.0665460
6178.97, 0.0673520
6186.34, 0.0679980
6193.73, 0.0663840
6201.14, 0.0654970
6208.57, 0.0655780
6216.01, 0.0655780
6223.47, 0.0654160
6230.95, 0.0652550
6238.45, 0.0652550
6245.97, 0.0651740
6253.5, 0.0650940
6261.06, 0.0650940
6268.63, 0.0650130
6276.21, 0.0650130
6283.82, 0.0649320
6291.45, 0.0650130
6299.1, 0.0650940
6306.76, 0.0651740
6314.44, 0.0652550
6322.14, 0.0653360
6329.86, 0.0654970
6337.6, 0.0667880
6345.35, 0.0677560
6353.13, 0.0664650
6360.92, 0.0663840
6368.74, 0.0674330
6376.57, 0.0671910
6384.43, 0.0670300
6392.3, 0.0671100
6400.19, 0.0678360
6408.1, 0.0709010
6416.03, 0.0722730
6423.98, 0.0699330
6431.95, 0.0692880
6439.94, 0.0689650
6447.95, 0.0688040
6455.98, 0.0689650
6464.03, 0.0692880
6472.1, 0.0703370
6480.19, 0.0715470
6488.31, 0.0734020
6496.44, 0.0735630
6504.59, 0.0713050
6512.76, 0.0708210
6520.95, 0.0717080
6529.16, 0.0710630
6537.4, 0.0709820
6545.65, 0.0716270
6553.92, 0.0722730
6562.22, 0.0726760
6570.54, 0.0740470
6578.88, 0.0735630
6587.23, 0.0728370
6595.61, 0.0725950
6604.02, 0.0720310
6612.44, 0.0721920
6620.89, 0.0725950
6629.35, 0.0744500
6637.84, 0.0757410
6646.35, 0.0734020
6654.88, 0.0717080
6663.44, 0.0720310
6672.01, 0.0729180
6680.61, 0.0733210
6689.23, 0.0724340
6697.88, 0.0718690
6706.54, 0.0725950
6715.23, 0.0729180
6723.94, 0.0724340
6732.67, 0.0715470
6741.42, 0.0713050
6750.2, 0.0715470
6759.0, 0.0714660
6767.82, 0.0718690
6776.67, 0.0723530
6785.54, 0.0731600
6794.44, 0.0728370
6803.35, 0.0713850
6812.29, 0.0710630
6821.26, 0.0717080
6830.24, 0.0715470
6839.25, 0.0709820
6848.29, 0.0716270
6857.35, 0.0735630
6866.43, 0.0735630
6875.54, 0.0712240
6884.67, 0.0704980
6893.82, 0.0703370
6903.0, 0.0704980
6912.2, 0.0702560
6921.43, 0.0698530
6930.69, 0.0695300
6939.96, 0.0693690
6949.27, 0.0698530
6958.59, 0.0709820
6967.95, 0.0699330
6977.33, 0.0688040
6986.73, 0.0688040
6996.16, 0.0687230
7005.61, 0.0682400
7015.09, 0.0682400
7024.6, 0.0681590
7034.13, 0.0682400
7043.69, 0.0690460
7053.27, 0.0683200
7062.88, 0.0672720
7072.52, 0.0667880
7082.18, 0.0667070
7091.87, 0.0665460
7101.58, 0.0663040
7111.32, 0.0663840
7121.09, 0.0662230
7130.88, 0.0656580
7140.71, 0.0658200
7150.56, 0.0658200
7160.43, 0.0656580
7170.33, 0.0656580
7180.27, 0.0648520
7190.23, 0.0644480
7200.21, 0.0646900
7210.23, 0.0646100
7220.27, 0.0639640
7230.34, 0.0636420
7240.44, 0.0634800
7250.56, 0.0632390
7260.72, 0.0630770
7270.9, 0.0631580
7281.12, 0.0629970
7291.36, 0.0625930
7301.63, 0.0623510
7311.93, 0.0620290
7322.25, 0.0617870
7332.61, 0.0620290
7343.0, 0.0618670
7353.41, 0.0612220
7363.86, 0.0608190
7374.33, 0.0606570
7384.83, 0.0604960
7395.37, 0.0604150
7405.93, 0.0600930
7416.53, 0.0598510
7427.15, 0.0595280
7437.81, 0.0592860
7448.5, 0.0592050
7459.22, 0.0592860
7469.96, 0.0589630
7480.74, 0.0585600
7491.55, 0.0583180
7502.39, 0.0581570
7513.27, 0.0579960
7524.17, 0.0577540
7535.11, 0.0575920
7546.08, 0.0573500
7557.08, 0.0571080
7568.11, 0.0567860
7579.17, 0.0565440
7590.27, 0.0564630
7601.4, 0.0563020
7612.56, 0.0561400
7623.76, 0.0558180
7634.98, 0.0555760
7646.24, 0.0554140
7657.54, 0.0550920
7668.87, 0.0548500
7680.23, 0.0548500
7691.62, 0.0546880
7703.05, 0.0544460
7714.51, 0.0541240
7726.01, 0.0539620
7737.54, 0.0538820
7749.11, 0.0537200
7760.71, 0.0535590
7772.35, 0.0533980
7784.02, 0.0532370
7795.72, 0.0529140
7807.46, 0.0526720
7819.23, 0.0525910
7831.04, 0.0525110
7842.89, 0.0521880
7854.77, 0.0518650
7866.69, 0.0517040
7878.65, 0.0517040
7890.64, 0.0514620
7902.67, 0.0512200
7914.74, 0.0512200
7926.84, 0.0511390
7938.98, 0.0507360
7951.16, 0.0504940
7963.37, 0.0502520
7975.62, 0.0500910
7987.91, 0.0499290
8000.24, 0.0496070
8012.6, 0.0492840
8025.01, 0.0490420
8037.45, 0.0489610
8049.93, 0.0488000
8062.45, 0.0485580
8075.01, 0.0482350
8087.61, 0.0480740
8100.24, 0.0479940
8112.91, 0.0475100
8125.63, 0.0471060
8138.39, 0.0470260
8151.18, 0.0468640
8164.02, 0.0466220
8176.9, 0.0463000
8189.81, 0.0461380
8202.77, 0.0459770
8215.77, 0.0455740
8228.82, 0.0453320
8241.9, 0.0450900
8255.02, 0.0448480
8268.19, 0.0446860
8281.39, 0.0443640
8294.65, 0.0441220
8307.94, 0.0438800
8321.28, 0.0435570
8334.66, 0.0431540
8348.08, 0.0427510
8361.54, 0.0426700
8375.05, 0.0425890
8388.6, 0.0423470
8402.2, 0.0420250
8415.84, 0.0417020
8429.52, 0.0414600
8443.25, 0.0413790
8457.02, 0.0411370
8470.84, 0.0408950
8484.7, 0.0407340
8498.61, 0.0405730
8512.57, 0.0403310
8526.57, 0.0401690
8540.62, 0.0400080
8554.71, 0.0399270
8568.85, 0.0397660
8583.04, 0.0395240
8597.27, 0.0392820
8611.55, 0.0391210
8625.88, 0.0390400
8640.26, 0.0387170
8654.68, 0.0384750
8669.16, 0.0386370
8683.68, 0.0386370
8698.25, 0.0384750
8712.87, 0.0385560
8727.53, 0.0387170
8742.25, 0.0386370
8757.02, 0.0387980
8771.83, 0.0391210
8786.7, 0.0392010
8801.62, 0.0392010
8816.59, 0.0393630
8831.61, 0.0396850
8846.68, 0.0399270
8861.8, 0.0404110
8876.97, 0.0408150
8892.2, 0.0414600
8907.48, 0.0424280
8922.81, 0.0432340
8938.2, 0.0440410
8953.63, 0.0453320
8969.13, 0.0469450
8984.67, 0.0485580
9000.27, 0.0504940
9015.92, 0.0530750
9031.63, 0.0559790
9047.39, 0.0592050
9063.21, 0.0625130
9079.08, 0.0659810
9095.01, 0.0697720
9111.0, 0.0734830
9127.04, 0.0776770
9143.13, 0.0815490
9159.28, 0.0854200
9175.49, 0.0895340
9191.76, 0.0938900
9208.09, 0.0988910
9224.47, 0.104134
9240.92, 0.110264
9257.42, 0.116798
9273.98, 0.123089
9290.6, 0.130187
9307.28, 0.137447
9324.02, 0.143013
9340.82, 0.147852
9357.68, 0.151240
9374.6, 0.152934
9391.58, 0.152773
9408.62, 0.151643
9425.73, 0.150111
9442.9, 0.148256
9460.13, 0.146723
9477.42, 0.145997
9494.78, 0.145432
9512.2, 0.145513
9529.69, 0.146562
9547.24, 0.148498
9564.86, 0.151240
9582.54, 0.154305
9600.28, 0.157854
9618.1, 0.162129
9635.97, 0.166566
9653.92, 0.170841
9671.93, 0.175116
9690.01, 0.179552
9708.16, 0.183505
9726.37, 0.186408
9744.65, 0.187860
9763.0, 0.188586
9781.43, 0.189232
9799.92, 0.189151
9818.48, 0.188264
9837.1, 0.187296
9855.8, 0.185924
9874.58, 0.184231
9893.42, 0.182375
9912.34, 0.180278
9931.33, 0.178100
9950.39, 0.175922
9969.52, 0.173664
9988.74, 0.171244
10008.0, 0.168744
10027.4, 0.165920
10046.8, 0.163097
10066.3, 0.160435
10085.9, 0.157128
10105.6, 0.153015
10125.3, 0.148982
10145.1, 0.145029
10165.0, 0.140593
10185.0, 0.136076
10205.0, 0.132365
10225.2, 0.129220
10245.4, 0.126396
10265.7, 0.123977
10286.0, 0.121960
10306.5, 0.119863
10327.0, 0.117766
10347.6, 0.115991
10368.3, 0.114297
10389.1, 0.112684
10409.9, 0.111474
10430.9, 0.110425
10451.9, 0.108732
10473.0, 0.107360
10494.2, 0.105666
10515.5, 0.103650
10536.9, 0.101472
10558.4, 0.0993750
10579.9, 0.0971160
10601.5, 0.0942930
10623.3, 0.0910670
10645.1, 0.0881630
10667.0, 0.0852590
10689.0, 0.0822750
10711.1, 0.0797740
10733.2, 0.0772740
10755.5, 0.0749340
10777.9, 0.0729990
10800.3, 0.0709820
10822.9, 0.0692070
10845.5, 0.0675940
10868.2, 0.0657390
10891.1, 0.0641260
10914.0, 0.0628350
10937.0, 0.0618670
10960.2, 0.0606570
10983.4, 0.0596090
11006.7, 0.0588830
11030.1, 0.0579150
11053.6, 0.0567860
11077.3, 0.0560600
11101.0, 0.0554950
11124.8, 0.0545270
11148.7, 0.0536400
11172.7, 0.0529140
11196.9, 0.0521070
11221.1, 0.0513810
11245.4, 0.0507360
11269.9, 0.0500100
11294.4, 0.0496070
11319.1, 0.0491230
11343.9, 0.0483970
11368.8, 0.0474290
11393.7, 0.0467030
11418.8, 0.0459770
11444.0, 0.0454120
11469.4, 0.0447670
11494.8, 0.0444440
11520.3, 0.0440410
11546.0, 0.0433150
11571.8, 0.0425090
11597.7, 0.0418630
11623.7, 0.0416210
11649.8, 0.0412180
11676.0, 0.0406530
11702.4, 0.0400080
11728.9, 0.0395240
11755.5, 0.0388790
11782.2, 0.0379110
11809.0, 0.0368620
11836.0, 0.0358140
11863.0, 0.0349260
11890.3, 0.0339580
11917.6, 0.0337160
11945.0, 0.0334740
11972.6, 0.0330710
12000.4, 0.0331520
12028.2, 0.0331520
12056.2, 0.0331520
12084.3, 0.0333940
12112.5, 0.0335550
12140.9, 0.0333130
12169.4, 0.0333940
12198.0, 0.0337160
12226.8, 0.0338780
12255.7, 0.0337970
12284.7, 0.0335550
12313.9, 0.0336360
12343.2, 0.0340390
12372.7, 0.0343620
12402.3, 0.0345230
12432.0, 0.0348460
12461.9, 0.0353300
12491.9, 0.0354910
12522.1, 0.0355720
12552.4, 0.0362170
12582.9, 0.0368620
12613.5, 0.0373460
12644.3, 0.0378300
12675.2, 0.0390400
12706.3, 0.0404110
12737.5, 0.0417020
12768.9, 0.0429930
12800.4, 0.0440410
12832.1, 0.0454930
12863.9, 0.0467840
12895.9, 0.0474290
12928.1, 0.0482350
12960.4, 0.0497680
12992.9, 0.0508970
13025.5, 0.0519460
13058.3, 0.0534780
13091.3, 0.0549300
13124.4, 0.0553340
13157.8, 0.0554140
13191.2, 0.0561400
13224.9, 0.0563020
13258.7, 0.0558980
13292.7, 0.0558180
13326.9, 0.0552530
13361.2, 0.0539620
13395.7, 0.0530750
13430.4, 0.0525910
13465.3, 0.0523490
13500.4, 0.0521880
13535.7, 0.0521880
13571.1, 0.0524300
13606.7, 0.0523490
13642.5, 0.0524300
13678.5, 0.0529140
13714.7, 0.0531560
13751.1, 0.0533980
13787.6, 0.0539620
13824.4, 0.0544460
13861.4, 0.0549300
13898.5, 0.0549300
13935.9, 0.0550110
13973.5, 0.0554950
14011.2, 0.0556560
14049.2, 0.0558180
14087.4, 0.0558180
14125.8, 0.0562210
14164.3, 0.0566240
14203.2, 0.0570280
14242.2, 0.0574310
14281.4, 0.0580760
14320.9, 0.0588830
14360.5, 0.0599310
14400.4, 0.0614640
14440.5, 0.0627550
14480.9, 0.0639640
14521.4, 0.0655780
14562.2, 0.0676750
14603.3, 0.0691270
14644.5, 0.0700140
14686.0, 0.0713050
14727.7, 0.0724340
14769.7, 0.0730790
14811.9, 0.0734830
14854.3, 0.0742890
14897.0, 0.0757410
14939.9, 0.0780000
14983.1, 0.0791290
15026.5, 0.0788870
15070.2, 0.0800160
15114.2, 0.0818710
15158.3, 0.0838070
15202.8, 0.0859040
15247.5, 0.0877600
15292.5, 0.0884860
15337.7, 0.0887280
15383.2, 0.0891310
15429.0, 0.0897760
15475.1, 0.0900180
15521.4, 0.0904210
15568.0, 0.0910670
15614.9, 0.0909050
15662.1, 0.0901790
15709.6, 0.0899370
15757.3, 0.0900990
15805.4, 0.0893730
15853.7, 0.0888890
15902.3, 0.0880020
15951.2, 0.0874370
16000.5, 0.0871140
16050.0, 0.0867110
16099.8, 0.0864690
16150.0, 0.0863080
16200.5, 0.0862270
16251.3, 0.0860660
16302.4, 0.0859040
16353.8, 0.0860660
16405.5, 0.0860660
16457.6, 0.0858240
16510.0, 0.0851780
16562.8, 0.0850980
16615.9, 0.0857430
16669.3, 0.0855820
16723.1, 0.0847750
16777.2, 0.0843720
16831.7, 0.0851780
16886.5, 0.0868720
16941.7, 0.0871140
16997.2, 0.0870340
17053.1, 0.0885660
17109.4, 0.0903410
17166.1, 0.0916310
17223.1, 0.0936480
17280.5, 0.0951800
17338.3, 0.0965520
17396.5, 0.0993750
17455.1, 0.103408
17514.0, 0.108086
17573.4, 0.113087
17633.2, 0.119379
17693.4, 0.126638
17754.0, 0.132930
17815.0, 0.139786
17876.4, 0.146562
17938.3, 0.150433
18000.5, 0.152289
18063.3, 0.151805
18126.4, 0.149143
18190.0, 0.145674
18254.1, 0.142045
18318.6, 0.139947
18383.5, 0.138334
18449.0, 0.137528
18514.9, 0.138496
18581.2, 0.139705
18648.0, 0.140996
18715.4, 0.144545
18783.2, 0.148094
18851.5, 0.152369
18920.3, 0.159306
18989.6, 0.168905
19059.4, 0.177455
19129.7, 0.184957
19200.6, 0.193103
19272.0, 0.200444
19343.9, 0.205041
19416.3, 0.210284
19489.3, 0.216011
19562.8, 0.219802
19637.0, 0.222787
19711.6, 0.225529
19786.8, 0.228675
19862.6, 0.231659
19939.0, 0.233837
20016.0, 0.235289
20093.6, 0.236257
20171.8, 0.237790
20250.6, 0.239242
20330.0, 0.239887
20410.0, 0.242952
20490.7, 0.247469
20572.0, 0.250696
20654.0, 0.255535
20736.6, 0.258600
20819.9, 0.261262
20903.8, 0.264327
20988.5, 0.266183
21073.8, 0.268522
21159.8, 0.271103
21246.5, 0.272555
21334.0, 0.274087
21422.1, 0.272877
21511.0, 0.269409
21600.7, 0.264085
21691.0, 0.259326
21782.1, 0.257955
21874.0, 0.254971
21966.7, 0.246420
22060.2, 0.239242
22154.5, 0.236499
22249.6, 0.233837
22345.5, 0.230692
22442.2, 0.228514
22539.8, 0.228594
22638.2, 0.227788
22737.5, 0.226820
22837.7, 0.229159
22938.7, 0.227949
23040.7, 0.217463
23143.5, 0.205283
23247.3, 0.195604
23352.1, 0.187134
23457.7, 0.179956
23564.4, 0.173180
23672.0, 0.168340
23780.5, 0.167211
23890.1, 0.165114
24000.7, 0.158016
24112.3, 0.154789
24225.0, 0.151240
24338.7, 0.148094
24453.5, 0.145836
24569.4, 0.143658
24686.4, 0.143577
24804.5, 0.138012
24923.8, 0.138254
