Database of Origin,University of Winnipeg Spectrophotometer Facility,,
Sample Description,8. Sulfates - Jim Crowley (USGS) IR spectra /  Crowley IR spectra,,
Date Added,2016-07-15 22:04:24.161481,,
,,,
Data ID,CWL_SUL_18          ,,
Sample ID,Gypsum,,
Mineral Name,Gypsum,,
Locality,"Baja California, Mexico",,
Grain Size,~250,,
Viewing Geometry,unknown,,
Resolution,0.08-40,,
,,,
Wavelength,,,
2083.55,0.8331,0.8331,0.8331
2084.39,0.8334,0.8334,0.8334
2085.23,0.8346,0.8346,0.8346
2086.06,0.8383,0.8383,0.8383
2086.9,0.8368,0.8368,0.8368
2087.74,0.8325,0.8325,0.8325
2088.58,0.8333,0.8333,0.8333
2089.43,0.8367,0.8367,0.8367
2090.27,0.8359,0.8359,0.8359
2091.11,0.836,0.836,0.836
2091.95,0.8376,0.8376,0.8376
2092.8,0.8368,0.8368,0.8368
2093.64,0.8363,0.8363,0.8363
2094.49,0.8336,0.8336,0.8336
2095.33,0.8352,0.8352,0.8352
2096.18,0.838,0.838,0.838
2097.03,0.839,0.839,0.839
2097.88,0.8385,0.8385,0.8385
2098.73,0.837,0.837,0.837
2099.58,0.8366,0.8366,0.8366
2100.43,0.84,0.84,0.84
2101.28,0.8404,0.8404,0.8404
2102.13,0.8398,0.8398,0.8398
2102.98,0.8384,0.8384,0.8384
2103.83,0.839,0.839,0.839
2104.69,0.8403,0.8403,0.8403
2105.54,0.841,0.841,0.841
2106.4,0.8428,0.8428,0.8428
2107.25,0.8449,0.8449,0.8449
2108.11,0.8453,0.8453,0.8453
2108.97,0.8424,0.8424,0.8424
2109.83,0.8422,0.8422,0.8422
2110.68,0.8436,0.8436,0.8436
2111.54,0.8418,0.8418,0.8273
2112.4,0.8408,0.8408,0.8408
2113.27,0.8433,0.8433,0.8433
2114.13,0.844,0.844,0.844
2114.99,0.844,0.844,0.844
2115.85,0.8471,0.8471,0.8471
2116.72,0.8456,0.8456,0.8456
2117.58,0.8427,0.8427,0.8427
2118.44,0.8443,0.8443,0.8443
2119.31,0.8474,0.8474,0.8474
2120.18,0.8478,0.8478,0.8478
2121.04,0.8488,0.8488,0.8488
2121.91,0.8506,0.8506,0.8506
2122.78,0.8514,0.8514,0.8514
2123.65,0.8482,0.8482,0.8482
2124.52,0.8479,0.8479,0.8479
2125.39,0.8506,0.8444,0.8506
2126.26,0.8507,0.8507,0.8507
2127.13,0.8488,0.8488,0.8488
2128.01,0.8496,0.8496,0.8496
2128.88,0.8524,0.8524,0.8524
2129.75,0.8525,0.8525,0.8525
2130.63,0.851,0.851,0.851
2131.5,0.8509,0.8509,0.8509
2132.38,0.8501,0.8501,0.8501
2133.26,0.8501,0.8501,0.8501
2134.14,0.8515,0.8515,0.8515
2135.01,0.8523,0.8523,0.8523
2135.89,0.8504,0.8504,0.8504
2136.77,0.8497,0.8497,0.8497
2137.65,0.8486,0.8486,0.8486
2138.54,0.85,0.85,0.85
2139.42,0.8501,0.8501,0.8501
2140.3,0.8499,0.8499,0.8499
2141.18,0.8512,0.8512,0.8512
2142.07,0.8558,0.8558,0.8558
2142.95,0.8575,0.8575,0.8575
2143.84,0.8565,0.8565,0.8565
2144.73,0.8548,0.8548,0.8548
2145.61,0.8584,0.8584,0.8584
2146.5,0.8588,0.8588,0.8588
2147.39,0.8561,0.8561,0.8561
2148.28,0.8544,0.8544,0.8544
2149.17,0.8541,0.8541,0.8541
2150.06,0.858,0.858,0.858
2150.95,0.8614,0.8614,0.8614
2151.85,0.8589,0.8589,0.8589
2152.74,0.8574,0.8574,0.8574
2153.63,0.8599,0.8599,0.8599
2154.53,0.8615,0.8615,0.8615
2155.42,0.8617,0.8617,0.8617
2156.32,0.8639,0.8639,0.8639
2157.22,0.862,0.862,0.862
2158.11,0.86,0.86,0.86
2159.01,0.861,0.861,0.861
2159.91,0.8633,0.8633,0.8633
2160.81,0.8639,0.8639,0.8639
2161.71,0.8634,0.8634,0.8634
2162.61,0.8646,0.8646,0.8646
2163.52,0.8674,0.8674,0.8674
2164.42,0.8649,0.8649,0.8649
2165.32,0.8643,0.8643,0.8643
2166.23,0.8651,0.8651,0.8651
2167.13,0.8664,0.8664,0.8664
2168.04,0.8666,0.8666,0.8666
2168.94,0.8667,0.8667,0.8667
2169.85,0.8673,0.8673,0.8673
2170.76,0.8677,0.8677,0.8677
2171.67,0.8676,0.8676,0.8676
2172.58,0.8672,0.8672,0.8672
2173.49,0.8672,0.8672,0.8672
2174.4,0.8687,0.8687,0.8687
2175.31,0.8697,0.8697,0.8697
2176.23,0.8692,0.8692,0.8692
2177.14,0.869,0.869,0.869
2178.05,0.8698,0.8698,0.8698
2178.97,0.8704,0.8704,0.8704
2179.89,0.8701,0.8701,0.8701
2180.8,0.8676,0.8676,0.8676
2181.72,0.8682,0.8682,0.8682
2182.64,0.8706,0.8706,0.8706
2183.56,0.8719,0.8719,0.8719
2184.48,0.8715,0.8715,0.8715
2185.4,0.8716,0.8716,0.8716
2186.32,0.8712,0.8712,0.8712
2187.24,0.8709,0.8709,0.8709
2188.16,0.8702,0.8702,0.8702
2189.09,0.87,0.87,0.87
2190.01,0.8682,0.8682,0.8682
2190.94,0.8677,0.8677,0.8677
2191.86,0.8686,0.8686,0.8686
2192.79,0.8689,0.8689,0.8689
2193.72,0.8708,0.8708,0.8708
2194.64,0.8728,0.8728,0.8728
2195.57,0.8718,0.8718,0.8718
2196.5,0.8724,0.8724,0.8724
2197.43,0.8724,0.8724,0.8724
2198.37,0.8727,0.8727,0.8727
2199.3,0.8735,0.8735,0.8735
2200.23,0.8752,0.8752,0.8752
2201.16,0.8755,0.8755,0.8755
2202.1,0.8753,0.8753,0.8753
2203.03,0.8755,0.8755,0.8755
2203.97,0.8752,0.8752,0.8752
2204.91,0.8752,0.8752,0.8752
2205.85,0.8765,0.8765,0.8765
2206.78,0.8785,0.8785,0.8785
2207.72,0.8771,0.8771,0.8771
2208.66,0.8772,0.8772,0.8772
2209.61,0.8813,0.8813,0.8813
2210.55,0.8812,0.8812,0.8812
2211.49,0.8781,0.8781,0.8781
2212.43,0.8788,0.8788,0.8788
2213.38,0.8795,0.8795,0.8795
2214.32,0.8813,0.8813,0.8813
2215.27,0.8825,0.8825,0.8825
2216.21,0.8831,0.8831,0.8831
2217.16,0.8825,0.8825,0.8825
2218.11,0.882,0.882,0.882
2219.06,0.8826,0.8826,0.8826
2220.01,0.8834,0.8834,0.8834
2220.96,0.8829,0.8829,0.8829
2221.91,0.8819,0.8819,0.8819
2222.86,0.8809,0.8809,0.8809
2223.82,0.879,0.879,0.879
2224.77,0.8754,0.8754,0.8754
2225.73,0.8749,0.8749,0.8749
2226.68,0.8766,0.8766,0.8766
2227.64,0.8772,0.8772,0.8772
2228.6,0.8769,0.8769,0.8769
2229.55,0.8746,0.8746,0.8746
2230.51,0.8748,0.8748,0.8748
2231.47,0.8733,0.8733,0.8733
2232.43,0.8715,0.8715,0.8715
2233.39,0.8693,0.8693,0.8693
2234.36,0.8683,0.8683,0.8683
2235.32,0.8687,0.8687,0.8687
2236.28,0.8683,0.8683,0.8683
2237.25,0.8677,0.8677,0.8677
2238.21,0.8672,0.8672,0.8672
2239.18,0.8673,0.8673,0.8673
2240.15,0.8668,0.8668,0.8668
2241.12,0.8664,0.8664,0.8664
2242.08,0.8664,0.8664,0.8664
2243.05,0.8654,0.8654,0.8654
2244.02,0.8648,0.8648,0.8648
2245,0.8653,0.8653,0.8653
2245.97,0.8684,0.8684,0.8684
2246.94,0.8678,0.8678,0.8678
2247.91,0.8653,0.8653,0.8653
2248.89,0.8657,0.8657,0.8657
2249.87,0.8672,0.8672,0.8672
2250.84,0.868,0.868,0.868
2251.82,0.8686,0.8686,0.8686
2252.8,0.8681,0.8681,0.8681
2253.78,0.868,0.868,0.868
2254.76,0.8687,0.8687,0.8687
2255.74,0.8693,0.8693,0.8693
2256.72,0.8683,0.8683,0.8683
2257.7,0.8694,0.8694,0.8694
2258.68,0.8707,0.8707,0.8707
2259.67,0.8713,0.8713,0.8713
2260.65,0.8711,0.8711,0.8711
2261.64,0.8706,0.8706,0.8706
2262.63,0.8702,0.8702,0.8702
2263.61,0.8722,0.8722,0.8722
2264.6,0.8727,0.8727,0.8727
2265.59,0.8728,0.8728,0.8728
2266.58,0.873,0.873,0.873
2267.57,0.8732,0.8732,0.8732
2268.56,0.8724,0.8724,0.8724
2269.56,0.8728,0.8728,0.8728
2270.55,0.8747,0.8747,0.8747
2271.55,0.8747,0.8747,0.8747
2272.54,0.8724,0.8724,0.8724
2273.54,0.8705,0.8705,0.8705
2274.53,0.8692,0.8692,0.8692
2275.53,0.8693,0.8693,0.8693
2276.53,0.8678,0.8678,0.8678
2277.53,0.8683,0.8683,0.8683
2278.53,0.8698,0.8698,0.8698
2279.53,0.8681,0.8681,0.8681
2280.54,0.865,0.865,0.865
2281.54,0.8655,0.8655,0.8655
2282.54,0.8656,0.8656,0.8656
2283.55,0.8671,0.8671,0.8671
2284.55,0.8662,0.8662,0.8662
2285.56,0.8626,0.8626,0.8626
2286.57,0.8626,0.8626,0.8626
2287.58,0.864,0.864,0.864
2288.59,0.8648,0.8648,0.8648
2289.6,0.8645,0.8645,0.8645
2290.61,0.8636,0.8636,0.8636
2291.62,0.8629,0.8629,0.8629
2292.63,0.8629,0.8629,0.8629
2293.65,0.8625,0.8625,0.8625
2294.66,0.8624,0.8624,0.8624
2295.68,0.8652,0.8652,0.8652
2296.69,0.8651,0.8651,0.8651
2297.71,0.8629,0.8629,0.8629
2298.73,0.8625,0.8625,0.8625
2299.75,0.8613,0.8613,0.8613
2300.77,0.8611,0.8611,0.8611
2301.79,0.8624,0.8624,0.8624
2302.81,0.8629,0.8629,0.8629
2303.84,0.8622,0.8622,0.8622
2304.86,0.8614,0.8614,0.8614
2305.88,0.8629,0.8629,0.8629
2306.91,0.8639,0.8639,0.8639
2307.94,0.8642,0.8642,0.8642
2308.96,0.8633,0.8633,0.8633
2309.99,0.8617,0.8617,0.8617
2311.02,0.8625,0.8625,0.8625
2312.05,0.8641,0.8641,0.8641
2313.08,0.865,0.865,0.865
2314.12,0.866,0.866,0.866
2315.15,0.8656,0.8656,0.8656
2316.18,0.8653,0.8653,0.8653
2317.22,0.8644,0.8644,0.8644
2318.25,0.8632,0.8632,0.8632
2319.29,0.8623,0.8623,0.8623
2320.33,0.8621,0.8621,0.8621
2321.37,0.8627,0.8627,0.8627
2322.41,0.866,0.866,0.866
2323.45,0.866,0.866,0.866
2324.49,0.8643,0.8643,0.8643
2325.53,0.8641,0.8641,0.8641
2326.57,0.8677,0.8677,0.8677
2327.62,0.8673,0.8673,0.8673
2328.66,0.866,0.866,0.866
2329.71,0.8659,0.8659,0.8659
2330.76,0.8672,0.8672,0.8672
2331.8,0.8679,0.8679,0.8679
2332.85,0.8683,0.8683,0.8683
2333.9,0.8709,0.8709,0.8709
2334.95,0.8709,0.8709,0.8709
2336.01,0.8696,0.8696,0.8696
2337.06,0.8701,0.8701,0.8701
2338.11,0.8694,0.8694,0.8694
2339.17,0.871,0.871,0.871
2340.22,0.8724,0.8724,0.8724
2341.28,0.873,0.873,0.873
2342.34,0.873,0.873,0.873
2343.39,0.8744,0.8744,0.8744
2344.45,0.8748,0.8748,0.8748
2345.51,0.8755,0.8755,0.8755
2346.57,0.8763,0.8763,0.8763
2347.64,0.8767,0.8767,0.8767
2348.7,0.8762,0.8762,0.8762
2349.76,0.8779,0.8779,0.8779
2350.83,0.8792,0.8792,0.8792
2351.9,0.88,0.88,0.88
2352.96,0.8799,0.8799,0.8799
2354.03,0.8818,0.8818,0.8818
2355.1,0.8847,0.8847,0.8847
2356.17,0.8837,0.8837,0.8837
2357.24,0.8822,0.8822,0.8822
2358.31,0.8849,0.8849,0.8849
2359.39,0.8857,0.8857,0.8857
2360.46,0.8847,0.8847,0.8847
2361.53,0.8854,0.8854,0.8854
2362.61,0.8865,0.8865,0.8865
2363.69,0.8884,0.8884,0.8884
2364.76,0.8906,0.8906,0.8906
2365.84,0.8914,0.8914,0.8914
2366.92,0.893,0.893,0.893
2368,0.8943,0.8943,0.8943
2369.09,0.8931,0.8931,0.8931
2370.17,0.8925,0.8925,0.8925
2371.25,0.8952,0.8952,0.8952
2372.34,0.897,0.897,0.897
2373.42,0.8968,0.8968,0.8968
2374.51,0.8971,0.8971,0.8971
2375.6,0.8986,0.8986,0.8986
2376.69,0.9002,0.9002,0.9002
2377.78,0.9017,0.9017,0.9017
2378.87,0.903,0.903,0.903
2379.96,0.9052,0.9052,0.9052
2381.05,0.9056,0.9056,0.9056
2382.14,0.9068,0.9068,0.9068
2383.24,0.9089,0.9089,0.9089
2384.33,0.9113,0.9113,0.9113
2385.43,0.9113,0.9113,0.9113
2386.53,0.9104,0.9104,0.9104
2387.63,0.9122,0.9122,0.9122
2388.73,0.9142,0.9142,0.9142
2389.83,0.9141,0.9141,0.9141
2390.93,0.9166,0.9166,0.9166
2392.03,0.918,0.918,0.918
2393.14,0.9174,0.9174,0.9174
2394.24,0.9181,0.9181,0.9181
2395.35,0.9211,0.9211,0.9211
2396.45,0.921,0.921,0.921
2397.56,0.9208,0.9208,0.9208
2398.67,0.9237,0.9237,0.9237
2399.78,0.9263,0.9263,0.9263
2400.89,0.9259,0.9259,0.9259
2402,0.927,0.927,0.927
2403.12,0.9281,0.9281,0.9281
2404.23,0.928,0.928,0.928
2405.35,0.9276,0.9276,0.9276
2406.46,0.9286,0.9286,0.9286
2407.58,0.9291,0.9291,0.9291
2408.7,0.9286,0.9286,0.9286
2409.82,0.9294,0.9294,0.9294
2410.94,0.9326,0.9326,0.9326
2412.06,0.9351,0.9351,0.9351
2413.18,0.9342,0.9342,0.9342
2414.3,0.9324,0.9324,0.9324
2415.43,0.9332,0.9332,0.9332
2416.55,0.9338,0.9338,0.9338
2417.68,0.9335,0.9335,0.9335
2418.81,0.9336,0.9336,0.9336
2419.94,0.9356,0.9356,0.9356
2421.07,0.9351,0.9351,0.9351
2422.2,0.9357,0.9357,0.9357
2423.33,0.936,0.936,0.936
2424.46,0.9367,0.9367,0.9367
2425.6,0.9361,0.9361,0.9361
2426.73,0.9365,0.9365,0.9365
2427.87,0.9366,0.9366,0.9366
2429,0.9361,0.9361,0.9361
2430.14,0.9368,0.9368,0.9368
2431.28,0.9381,0.9381,0.9381
2432.42,0.9378,0.9378,0.9378
2433.56,0.9387,0.9387,0.9387
2434.71,0.9394,0.9394,0.9394
2435.85,0.9398,0.9398,0.9398
2436.99,0.9389,0.9389,0.9389
2438.14,0.9389,0.9389,0.9389
2439.29,0.9398,0.9398,0.9398
2440.43,0.9413,0.9413,0.9413
2441.58,0.9426,0.9426,0.9426
2442.73,0.9432,0.9432,0.9432
2443.88,0.9407,0.9407,0.9407
2445.04,0.9395,0.9395,0.9395
2446.19,0.9399,0.9399,0.9399
2447.34,0.941,0.941,0.941
2448.5,0.9415,0.9415,0.9415
2449.66,0.9412,0.9412,0.9412
2450.81,0.9407,0.9407,0.9407
2451.97,0.9396,0.9396,0.9396
2453.13,0.9404,0.9404,0.9404
2454.29,0.9413,0.9413,0.9413
2455.45,0.9411,0.9411,0.9411
2456.62,0.9419,0.9419,0.9419
2457.78,0.9425,0.9425,0.9425
2458.95,0.9421,0.9421,0.9421
2460.11,0.9414,0.9414,0.9414
2461.28,0.9429,0.9429,0.9429
2462.45,0.9442,0.9442,0.9442
2463.62,0.944,0.944,0.944
2464.79,0.9443,0.9443,0.9443
2465.96,0.9452,0.9452,0.9452
2467.14,0.9441,0.9441,0.9441
2468.31,0.943,0.943,0.943
2469.49,0.9439,0.9439,0.9439
2470.66,0.9453,0.9453,0.9453
2471.84,0.9444,0.9444,0.9444
2473.02,0.9451,0.9451,0.9451
2474.2,0.9453,0.9453,0.9453
2475.38,0.9444,0.9444,0.9444
2476.56,0.9444,0.9444,0.9444
2477.74,0.9457,0.9457,0.9457
2478.93,0.9445,0.9445,0.9445
2480.11,0.9444,0.9444,0.9444
2481.3,0.9456,0.9456,0.9456
2482.49,0.9462,0.9462,0.9462
2483.68,0.9462,0.9462,0.9462
2484.87,0.9459,0.9459,0.9459
2486.06,0.9452,0.9452,0.9452
2487.25,0.9453,0.9453,0.9453
2488.44,0.9459,0.9459,0.9459
2489.64,0.9467,0.9467,0.9467
2490.83,0.9461,0.9461,0.9461
2492.03,0.9452,0.9452,0.9452
2493.23,0.9453,0.9453,0.9453
2494.43,0.9451,0.9451,0.9451
2495.63,0.9435,0.9435,0.9435
2496.83,0.9439,0.9439,0.9439
2498.03,0.9448,0.9448,0.9448
2499.24,0.945,0.945,0.945
2500.44,0.9446,0.9446,0.9446
2501.65,0.9451,0.9451,0.9451
2502.86,0.9455,0.9455,0.9455
2504.06,0.9447,0.9447,0.9447
2505.27,0.9435,0.9435,0.9435
2506.48,0.9447,0.9447,0.9447
2507.7,0.9449,0.9449,0.9449
2508.91,0.9433,0.9433,0.9433
2510.12,0.9439,0.9439,0.9439
2511.34,0.9446,0.9446,0.9446
2512.56,0.9436,0.9436,0.9436
2513.77,0.9433,0.9433,0.9433
2514.99,0.9437,0.9437,0.9437
2516.21,0.9436,0.9436,0.9436
2517.43,0.9428,0.9428,0.9428
2518.66,0.943,0.943,0.943
2519.88,0.9436,0.9436,0.9436
2521.11,0.9446,0.9446,0.9446
2522.33,0.9432,0.9432,0.9432
2523.56,0.943,0.943,0.943
2524.79,0.9426,0.9426,0.9426
2526.02,0.9429,0.9429,0.9429
2527.25,0.9436,0.9436,0.9436
2528.48,0.9444,0.9444,0.9444
2529.71,0.9435,0.9435,0.9435
2530.95,0.9429,0.9429,0.9429
2532.18,0.9439,0.9439,0.9439
2533.42,0.9446,0.9446,0.9446
2534.66,0.9432,0.9432,0.9432
2535.9,0.9435,0.9435,0.9435
2537.14,0.9441,0.9441,0.9441
2538.38,0.9429,0.9429,0.9429
2539.62,0.9408,0.9408,0.9408
2540.87,0.9419,0.9419,0.9419
2542.11,0.9438,0.9438,0.9438
2543.36,0.9451,0.9451,0.9451
2544.61,0.9446,0.9446,0.9446
2545.86,0.9448,0.9448,0.9448
2547.11,0.9452,0.9452,0.9452
2548.36,0.9445,0.9445,0.9445
2549.61,0.9439,0.9439,0.9439
2550.87,0.943,0.943,0.943
2552.12,0.9428,0.9428,0.9428
2553.38,0.9439,0.9439,0.9439
2554.64,0.9445,0.9445,0.9445
2555.89,0.9449,0.9449,0.9449
2557.16,0.944,0.944,0.944
2558.42,0.9441,0.9441,0.9441
2559.68,0.9441,0.9441,0.9441
2560.94,0.9445,0.9445,0.9445
2562.21,0.9436,0.9436,0.9436
2563.48,0.9436,0.9436,0.9436
2564.74,0.9441,0.9441,0.9441
2566.01,0.9448,0.9448,0.9448
2567.28,0.9452,0.9452,0.9452
2568.55,0.946,0.946,0.946
2569.83,0.9461,0.9461,0.9461
2571.1,0.9449,0.9449,0.9449
2572.38,0.9437,0.9437,0.9437
2573.65,0.9447,0.9447,0.9447
2574.93,0.9455,0.9455,0.9455
2576.21,0.9454,0.9454,0.9454
2577.49,0.9453,0.9453,0.9453
2578.77,0.946,0.946,0.946
2580.05,0.9456,0.9456,0.9456
2581.34,0.9457,0.9457,0.9457
2582.62,0.9459,0.9459,0.9459
2583.91,0.9463,0.9463,0.9463
2585.2,0.9467,0.9467,0.9467
2586.49,0.9473,0.9473,0.9473
2587.78,0.9467,0.9467,0.9467
2589.07,0.9469,0.9469,0.9469
2590.36,0.9469,0.9469,0.9469
2591.66,0.9471,0.9471,0.9471
2592.95,0.9458,0.9458,0.9458
2594.25,0.9469,0.9469,0.9469
2595.55,0.9487,0.9487,0.9487
2596.85,0.9476,0.9476,0.9476
2598.15,0.9462,0.9462,0.9462
2599.45,0.9461,0.9461,0.9461
2600.76,0.9456,0.9456,0.9456
2602.06,0.9458,0.9458,0.9458
2603.37,0.9469,0.9469,0.9469
2604.67,0.9489,0.9489,0.9489
2605.98,0.9477,0.9477,0.9477
2607.29,0.9457,0.9457,0.9457
2608.6,0.9464,0.9464,0.9464
2609.92,0.9482,0.9482,0.9482
2611.23,0.9477,0.9477,0.9477
2612.55,0.9467,0.9467,0.9467
2613.86,0.9459,0.9459,0.9459
2615.18,0.9465,0.9465,0.9465
2616.5,0.9466,0.9466,0.9466
2617.82,0.9468,0.9468,0.9468
2619.14,0.9476,0.9476,0.9476
2620.47,0.949,0.949,0.949
2621.79,0.9501,0.9501,0.9501
2623.12,0.9495,0.9495,0.9495
2624.45,0.9484,0.9484,0.9484
2625.77,0.9486,0.9486,0.9486
2627.1,0.9482,0.9482,0.9482
2628.44,0.9483,0.9483,0.9483
2629.77,0.948,0.948,0.948
2631.1,0.9495,0.9495,0.9495
2632.44,0.9503,0.9503,0.9503
2633.78,0.9494,0.9494,0.9494
2635.11,0.9494,0.9494,0.9494
2636.45,0.9488,0.9488,0.9488
2637.79,0.9488,0.9488,0.9488
2639.14,0.9504,0.9504,0.9504
2640.48,0.9505,0.9505,0.9505
2641.83,0.9501,0.9501,0.9501
2643.17,0.9496,0.9496,0.9496
2644.52,0.9507,0.9507,0.9507
2645.87,0.9508,0.9508,0.9508
2647.22,0.9509,0.9509,0.9509
2648.57,0.9517,0.9517,0.9517
2649.92,0.9516,0.9516,0.9516
2651.28,0.9518,0.9518,0.9518
2652.64,0.952,0.952,0.952
2653.99,0.9523,0.9523,0.9523
2655.35,0.9533,0.9533,0.9533
2656.71,0.9533,0.9533,0.9533
2658.07,0.9538,0.9538,0.9538
2659.44,0.9541,0.9541,0.9541
2660.8,0.9547,0.9547,0.9547
2662.17,0.9544,0.9544,0.9544
2663.53,0.9537,0.9537,0.9537
2664.9,0.954,0.954,0.954
2666.27,0.9554,0.9554,0.9554
2667.64,0.9565,0.9565,0.9565
2669.02,0.9572,0.9572,0.9572
2670.39,0.9574,0.9574,0.9574
2671.77,0.9583,0.9583,0.9583
2673.14,0.959,0.959,0.959
2674.52,0.9601,0.9601,0.9601
2675.9,0.9604,0.9604,0.9604
2677.28,0.9599,0.9599,0.9599
2678.67,0.9595,0.9595,0.9595
2680.05,0.9617,0.9617,0.9617
2681.44,0.9627,0.9627,0.9627
2682.82,0.9617,0.9617,0.9617
2684.21,0.9608,0.9608,0.9608
2685.6,0.9628,0.9628,0.9628
2686.99,0.9649,0.9649,0.9649
2688.39,0.9648,0.9648,0.9648
2689.78,0.9641,0.9641,0.9641
2691.18,0.9655,0.9655,0.9655
2692.57,0.9669,0.9669,0.9669
2693.97,0.9671,0.9671,0.9671
2695.37,0.9678,0.9678,0.9678
2696.77,0.9692,0.9692,0.9692
2698.18,0.9696,0.9696,0.9696
2699.58,0.9693,0.9693,0.9693
2700.99,0.9689,0.9689,0.9689
2702.4,0.9703,0.9703,0.9703
2703.8,0.9703,0.9703,0.9703
2705.22,0.9705,0.9705,0.9705
2706.63,0.9707,0.9707,0.9707
2708.04,0.9714,0.9714,0.9714
2709.45,0.9724,0.9724,0.9724
2710.87,0.9731,0.9731,0.9731
2712.29,0.9739,0.9739,0.9739
2713.71,0.9746,0.9746,0.9746
2715.13,0.975,0.975,0.975
2716.55,0.9754,0.9754,0.9754
2717.97,0.9746,0.9746,0.9746
2719.4,0.9761,0.9761,0.9761
2720.83,0.9769,0.9769,0.9769
2722.25,0.9767,0.9767,0.9767
2723.68,0.9764,0.9764,0.9764
2725.12,0.9767,0.9767,0.9767
2726.55,0.9774,0.9774,0.9774
2727.98,0.9779,0.9779,0.9779
2729.42,0.9776,0.9776,0.9776
2730.86,0.9778,0.9778,0.9778
2732.29,0.9789,0.9789,0.9789
2733.73,0.9798,0.9798,0.9798
2735.18,0.9793,0.9793,0.9793
2736.62,0.979,0.979,0.979
2738.06,0.9788,0.9788,0.9788
2739.51,0.9785,0.9785,0.9785
2740.96,0.978,0.978,0.978
2742.41,0.9788,0.9788,0.9788
2743.86,0.9813,0.9813,0.9813
2745.31,0.9817,0.9817,0.9817
2746.77,0.9805,0.9805,0.9805
2748.22,0.9802,0.9802,0.9802
2749.68,0.9797,0.9797,0.9797
2751.14,0.9812,0.9812,0.9812
2752.6,0.982,0.982,0.982
2754.06,0.9822,0.9822,0.9822
2755.52,0.981,0.981,0.981
2756.99,0.9817,0.9817,0.9817
2758.45,0.9833,0.9833,0.9833
2759.92,0.9831,0.9831,0.9831
2761.39,0.9826,0.9826,0.9826
2762.86,0.9837,0.9837,0.9837
2764.33,0.9836,0.9836,0.9836
2765.81,0.9826,0.9826,0.9826
2767.28,0.9824,0.9824,0.9824
2768.76,0.9823,0.9823,0.9823
2770.24,0.9809,0.9809,0.9809
2771.72,0.981,0.981,0.981
2773.2,0.9823,0.9823,0.9823
2774.69,0.9833,0.9833,0.9833
2776.17,0.9836,0.9836,0.9836
2777.66,0.9825,0.9825,0.9825
2779.15,0.9815,0.9815,0.9815
2780.64,0.982,0.982,0.982
2782.13,0.9825,0.9825,0.9825
2783.62,0.9816,0.9816,0.9816
2785.12,0.9814,0.9814,0.9814
2786.61,0.982,0.982,0.982
2788.11,0.9818,0.9818,0.9818
2789.61,0.9813,0.9813,0.9813
2791.11,0.9809,0.9809,0.9809
2792.62,0.9806,0.9806,0.9806
2794.12,0.9808,0.9808,0.9808
2795.63,0.9812,0.9812,0.9812
2797.14,0.9811,0.9811,0.9811
2798.64,0.9815,0.9815,0.9815
2800.16,0.9812,0.9812,0.9812
2801.67,0.9804,0.9804,0.9804
2803.18,0.9791,0.9791,0.9791
2804.7,0.9785,0.9785,0.9785
2806.22,0.9782,0.9782,0.9782
2807.74,0.9775,0.9775,0.9775
2809.26,0.9779,0.9779,0.9779
2810.78,0.9782,0.9782,0.9782
2812.3,0.9777,0.9777,0.9777
2813.83,0.9774,0.9774,0.9774
2815.36,0.977,0.977,0.977
2816.89,0.9777,0.9777,0.9777
2818.42,0.9769,0.9769,0.9769
2819.95,0.9776,0.9776,0.9776
2821.48,0.978,0.978,0.978
2823.02,0.9766,0.9766,0.9766
2824.56,0.9762,0.9762,0.9762
2826.1,0.9775,0.9775,0.9775
2827.64,0.9783,0.9783,0.9783
2829.18,0.9785,0.9785,0.9785
2830.72,0.977,0.977,0.977
2832.27,0.9771,0.9771,0.9771
2833.82,0.9785,0.9785,0.9785
2835.37,0.9787,0.9787,0.9787
2836.92,0.9783,0.9783,0.9783
2838.47,0.978,0.978,0.978
2840.02,0.9778,0.9778,0.9778
2841.58,0.9777,0.9777,0.9777
2843.14,0.978,0.978,0.978
2844.7,0.9783,0.9783,0.9783
2846.26,0.978,0.978,0.978
2847.82,0.9788,0.9788,0.9788
2849.39,0.9788,0.9788,0.9788
2850.95,0.9785,0.9785,0.9785
2852.52,0.9795,0.9795,0.9795
2854.09,0.9801,0.9801,0.9801
2855.66,0.9801,0.9801,0.9801
2857.24,0.9796,0.9796,0.9796
2858.81,0.9787,0.9787,0.9787
2860.39,0.9791,0.9791,0.9791
2861.97,0.9788,0.9788,0.9788
2863.55,0.9791,0.9791,0.9791
2865.13,0.9799,0.9799,0.9799
2866.71,0.9804,0.9804,0.9804
2868.3,0.9808,0.9808,0.9808
2869.88,0.9808,0.9808,0.9808
2871.47,0.9801,0.9801,0.9801
2873.06,0.9802,0.9802,0.9802
2874.66,0.9795,0.9795,0.9795
2876.25,0.9803,0.9803,0.9803
2877.85,0.9815,0.9815,0.9815
2879.45,0.9817,0.9817,0.9817
2881.04,0.9799,0.9799,0.9799
2882.65,0.9789,0.9789,0.9789
2884.25,0.9793,0.9793,0.9793
2885.85,0.9807,0.9807,0.9807
2887.46,0.9806,0.9806,0.9806
2889.07,0.9796,0.9796,0.9796
2890.68,0.9796,0.9796,0.9796
2892.29,0.98,0.98,0.98
2893.91,0.9797,0.9797,0.9797
2895.52,0.9794,0.9794,0.9794
2897.14,0.979,0.979,0.979
2898.76,0.9795,0.9795,0.9795
2900.38,0.9801,0.9801,0.9801
2902,0.981,0.981,0.981
2903.63,0.9799,0.9799,0.9799
2905.25,0.9779,0.9779,0.9779
2906.88,0.9767,0.9767,0.9767
2908.51,0.9766,0.9766,0.9766
2910.14,0.976,0.976,0.976
2911.78,0.9763,0.9763,0.9763
2913.41,0.9769,0.9769,0.9769
2915.05,0.9767,0.9767,0.9767
2916.69,0.9749,0.9749,0.9749
2918.33,0.9739,0.9739,0.9739
2919.98,0.9727,0.9727,0.9727
2921.62,0.9725,0.9725,0.9725
2923.27,0.972,0.972,0.972
2924.92,0.9714,0.9714,0.9714
2926.57,0.9712,0.9712,0.9712
2928.22,0.971,0.971,0.971
2929.87,0.9709,0.9709,0.9709
2931.53,0.971,0.971,0.971
2933.19,0.9704,0.9704,0.9704
2934.85,0.9705,0.9705,0.9705
2936.51,0.9703,0.9703,0.9703
2938.17,0.9709,0.9709,0.9709
2939.84,0.9716,0.9716,0.9716
2941.51,0.9712,0.9712,0.9712
2943.18,0.9712,0.9712,0.9712
2944.85,0.9723,0.9723,0.9723
2946.52,0.9718,0.9718,0.9718
2948.19,0.9715,0.9715,0.9715
2949.87,0.9716,0.9716,0.9716
2951.55,0.9724,0.9724,0.9724
2953.23,0.9722,0.9722,0.9722
2954.91,0.9721,0.9721,0.9721
2956.6,0.9732,0.9732,0.9732
2958.28,0.9732,0.9732,0.9732
2959.97,0.9724,0.9724,0.9724
2961.66,0.9727,0.9727,0.9727
2963.36,0.9731,0.9731,0.9731
2965.05,0.9739,0.9739,0.9739
2966.75,0.9738,0.9738,0.9738
2968.44,0.9739,0.9739,0.9739
2970.14,0.9733,0.9733,0.9733
2971.85,0.9734,0.9734,0.9734
2973.55,0.9739,0.9739,0.9739
2975.26,0.9738,0.9738,0.9738
2976.96,0.9742,0.9742,0.9742
2978.67,0.9741,0.9741,0.9741
2980.39,0.9731,0.9731,0.9731
2982.1,0.9737,0.9737,0.9737
2983.82,0.9742,0.9742,0.9742
2985.53,0.9746,0.9746,0.9746
2987.25,0.9748,0.9748,0.9748
2988.97,0.9742,0.9742,0.9742
2990.7,0.9738,0.9738,0.9738
2992.42,0.9737,0.9737,0.9737
2994.15,0.9733,0.9733,0.9733
2995.88,0.9738,0.9738,0.9738
2997.61,0.974,0.974,0.974
2999.35,0.974,0.974,0.974
3001.08,0.9738,0.9738,0.9738
3002.82,0.9738,0.9738,0.9738
3004.56,0.9738,0.9738,0.9738
3006.3,0.9746,0.9746,0.9746
3008.04,0.9755,0.9755,0.9755
3009.79,0.976,0.976,0.976
3011.54,0.9753,0.9753,0.9753
3013.29,0.9746,0.9746,0.9746
3015.04,0.9744,0.9744,0.9744
3016.79,0.9753,0.9753,0.9753
3018.55,0.9757,0.9757,0.9757
3020.31,0.9746,0.9746,0.9746
3022.07,0.9747,0.9747,0.9747
3023.83,0.9753,0.9753,0.9753
3025.59,0.9751,0.9751,0.9751
3027.36,0.9752,0.9752,0.9752
3029.13,0.9748,0.9748,0.9748
3030.9,0.9756,0.9756,0.9756
3032.67,0.9769,0.9769,0.9769
3034.44,0.9772,0.9772,0.9772
3036.22,0.9767,0.9767,0.9767
3038,0.9764,0.9764,0.9764
3039.78,0.976,0.976,0.976
3041.56,0.9756,0.9756,0.9756
3043.35,0.976,0.976,0.976
3045.14,0.9759,0.9759,0.9759
3046.92,0.9759,0.9759,0.9759
3048.72,0.9765,0.9765,0.9765
3050.51,0.9759,0.9759,0.9759
3052.3,0.976,0.976,0.976
3054.1,0.9767,0.9767,0.9767
3055.9,0.9772,0.9772,0.9772
3057.7,0.9761,0.9761,0.9761
3059.51,0.9762,0.9762,0.9762
3061.31,0.9766,0.9766,0.9766
3063.12,0.9772,0.9772,0.9772
3064.93,0.9777,0.9777,0.9777
3066.74,0.9778,0.9778,0.9778
3068.56,0.9768,0.9768,0.9768
3070.37,0.9767,0.9767,0.9767
3072.19,0.9769,0.9769,0.9769
3074.01,0.9771,0.9771,0.9771
3075.84,0.9771,0.9771,0.9771
3077.66,0.9765,0.9765,0.9765
3079.49,0.976,0.976,0.976
3081.32,0.9762,0.9762,0.9762
3083.15,0.9766,0.9766,0.9766
3084.99,0.9772,0.9772,0.9772
3086.82,0.9774,0.9774,0.9774
3088.66,0.977,0.977,0.977
3090.5,0.9769,0.9769,0.9769
3092.34,0.9771,0.9771,0.9771
3094.19,0.9771,0.9771,0.9771
3096.04,0.9768,0.9768,0.9768
3097.89,0.9762,0.9762,0.9762
3099.74,0.9762,0.9762,0.9762
3101.59,0.9765,0.9765,0.9765
3103.45,0.9769,0.9769,0.9769
3105.31,0.9764,0.9764,0.9764
3107.17,0.976,0.976,0.976
3109.03,0.9758,0.9758,0.9758
3110.89,0.9761,0.9761,0.9761
3112.76,0.9754,0.9754,0.9754
3114.63,0.9759,0.9759,0.9759
3116.5,0.9767,0.9767,0.9767
3118.38,0.977,0.977,0.977
3120.25,0.9768,0.9768,0.9768
3122.13,0.9762,0.9762,0.9762
3124.01,0.9758,0.9758,0.9758
3125.89,0.9764,0.9764,0.9764
3127.78,0.9768,0.9768,0.9768
3129.67,0.9769,0.9769,0.9769
3131.56,0.9768,0.9768,0.9768
3133.45,0.9769,0.9769,0.9769
3135.34,0.977,0.977,0.977
3137.24,0.9776,0.9776,0.9776
3139.14,0.9771,0.9771,0.9771
3141.04,0.9767,0.9767,0.9767
3142.94,0.976,0.976,0.976
3144.85,0.9754,0.9754,0.9754
3146.76,0.9751,0.9751,0.9751
3148.67,0.9752,0.9752,0.9752
3150.58,0.9755,0.9755,0.9755
3152.5,0.9761,0.9761,0.9761
3154.41,0.976,0.976,0.976
3156.33,0.9758,0.9758,0.9758
3158.25,0.9756,0.9756,0.9756
3160.18,0.9756,0.9756,0.9756
3162.11,0.9756,0.9756,0.9756
3164.04,0.9755,0.9755,0.9755
3165.97,0.9756,0.9756,0.9756
3167.9,0.9759,0.9759,0.9759
3169.84,0.9755,0.9755,0.9755
3171.78,0.9751,0.9751,0.9751
3173.72,0.9747,0.9747,0.9747
3175.66,0.9748,0.9748,0.9748
3177.61,0.9744,0.9744,0.9744
3179.55,0.9745,0.9745,0.9745
3181.5,0.9751,0.9751,0.9751
3183.46,0.9749,0.9749,0.9749
3185.41,0.9743,0.9743,0.9743
3187.37,0.9745,0.9745,0.9745
3189.33,0.9745,0.9745,0.9745
3191.29,0.9745,0.9745,0.9745
3193.26,0.9737,0.9737,0.9737
3195.23,0.9733,0.9733,0.9733
3197.2,0.9735,0.9735,0.9735
3199.17,0.9738,0.9738,0.9738
3201.14,0.9739,0.9739,0.9739
3203.12,0.9739,0.9739,0.9739
3205.1,0.9734,0.9734,0.9734
3207.08,0.9737,0.9737,0.9737
3209.07,0.9735,0.9735,0.9735
3211.05,0.973,0.973,0.973
3213.04,0.9724,0.9724,0.9724
3215.03,0.9719,0.9719,0.9719
3217.03,0.9718,0.9718,0.9718
3219.03,0.9723,0.9723,0.9723
3221.02,0.9729,0.9729,0.9729
3223.03,0.9728,0.9728,0.9728
3225.03,0.9725,0.9725,0.9725
3227.04,0.9725,0.9725,0.9725
3229.05,0.9721,0.9721,0.9721
3231.06,0.9724,0.9724,0.9724
3233.07,0.9721,0.9721,0.9721
3235.09,0.9717,0.9717,0.9717
3237.11,0.9712,0.9712,0.9712
3239.13,0.9714,0.9714,0.9714
3241.15,0.9716,0.9716,0.9716
3243.18,0.9715,0.9715,0.9715
3245.21,0.9709,0.9709,0.9709
3247.24,0.9709,0.9709,0.9709
3249.28,0.9706,0.9706,0.9706
3251.31,0.9703,0.9703,0.9703
3253.35,0.9703,0.9703,0.9703
3255.4,0.9708,0.9708,0.9708
3257.44,0.9701,0.9701,0.9701
3259.49,0.9693,0.9693,0.9693
3261.54,0.9693,0.9693,0.9693
3263.59,0.9701,0.9701,0.9701
3265.65,0.9702,0.9702,0.9702
3267.7,0.9695,0.9695,0.9695
3269.76,0.9695,0.9695,0.9695
3271.83,0.9697,0.9697,0.9697
3273.89,0.9691,0.9691,0.9691
3275.96,0.9694,0.9694,0.9694
3278.03,0.9694,0.9694,0.9694
3280.1,0.9685,0.9685,0.9685
3282.18,0.9679,0.9679,0.9679
3284.26,0.968,0.968,0.968
3286.34,0.968,0.968,0.968
3288.42,0.9684,0.9684,0.9684
3290.51,0.9682,0.9682,0.9682
3292.6,0.9681,0.9681,0.9681
3294.69,0.9677,0.9677,0.9677
3296.78,0.9674,0.9674,0.9674
3298.88,0.9672,0.9672,0.9672
3300.98,0.967,0.967,0.967
3303.08,0.9666,0.9666,0.9666
3305.19,0.9666,0.9666,0.9666
3307.3,0.9662,0.9662,0.9662
3309.41,0.9659,0.9659,0.9659
3311.52,0.9657,0.9657,0.9657
3313.64,0.9658,0.9658,0.9658
3315.75,0.9658,0.9658,0.9658
3317.88,0.9659,0.9659,0.9659
3320,0.9655,0.9655,0.9655
3322.13,0.9651,0.9651,0.9651
3324.26,0.9648,0.9648,0.9648
3326.39,0.9645,0.9645,0.9645
3328.52,0.9642,0.9642,0.9642
3330.66,0.964,0.964,0.964
3332.8,0.9641,0.9641,0.9641
3334.94,0.964,0.964,0.964
3337.09,0.9638,0.9638,0.9638
3339.24,0.9634,0.9634,0.9634
3341.39,0.9628,0.9628,0.9628
3343.54,0.9629,0.9629,0.9629
3345.7,0.9628,0.9628,0.9628
3347.86,0.9626,0.9626,0.9626
3350.02,0.9624,0.9624,0.9624
3352.19,0.9626,0.9626,0.9626
3354.36,0.9621,0.9621,0.9621
3356.53,0.9621,0.9621,0.9621
3358.7,0.9616,0.9616,0.9616
3360.88,0.9608,0.9608,0.9608
3363.06,0.9607,0.9607,0.9607
3365.24,0.9609,0.9609,0.9609
3367.43,0.9609,0.9609,0.9609
3369.61,0.9606,0.9606,0.9606
3371.8,0.9603,0.9603,0.9603
3374,0.9605,0.9605,0.9605
3376.19,0.9598,0.9598,0.9598
3378.39,0.9594,0.9594,0.9594
3380.6,0.9594,0.9594,0.9594
3382.8,0.9592,0.9592,0.9592
3385.01,0.9585,0.9585,0.9585
3387.22,0.9585,0.9585,0.9585
3389.43,0.9585,0.9585,0.9585
3391.65,0.9582,0.9582,0.9582
3393.87,0.9574,0.9574,0.9574
3396.09,0.9576,0.9576,0.9576
3398.32,0.9577,0.9577,0.9577
3400.55,0.9571,0.9571,0.9571
3402.78,0.9567,0.9567,0.9567
3405.01,0.9566,0.9566,0.9566
3407.25,0.9565,0.9565,0.9565
3409.49,0.9562,0.9562,0.9562
3411.73,0.9557,0.9557,0.9557
3413.98,0.9553,0.9553,0.9553
3416.23,0.9546,0.9546,0.9546
3418.48,0.9544,0.9544,0.9544
3420.73,0.9541,0.9541,0.9541
3422.99,0.9542,0.9542,0.9542
3425.25,0.9538,0.9538,0.9538
3427.51,0.953,0.953,0.953
3429.78,0.9528,0.9528,0.9528
3432.05,0.9531,0.9531,0.9531
3434.32,0.9535,0.9535,0.9535
3436.6,0.9537,0.9537,0.9537
3438.88,0.9532,0.9532,0.9532
3441.16,0.9528,0.9528,0.9528
3443.45,0.9518,0.9518,0.9518
3445.73,0.9519,0.9519,0.9519
3448.02,0.9521,0.9521,0.9521
3450.32,0.9525,0.9525,0.9525
3452.61,0.9524,0.9524,0.9524
3454.91,0.9517,0.9517,0.9517
3457.22,0.9512,0.9512,0.9512
3459.52,0.951,0.951,0.951
3461.83,0.9508,0.9508,0.9508
3464.15,0.9509,0.9509,0.9509
3466.46,0.9504,0.9504,0.9504
3468.78,0.9498,0.9498,0.9498
3471.1,0.9493,0.9493,0.9493
3473.43,0.9494,0.9494,0.9494
3475.75,0.949,0.949,0.949
3478.09,0.9484,0.9484,0.9484
3480.42,0.9483,0.9483,0.9483
3482.76,0.9484,0.9484,0.9484
3485.1,0.9483,0.9483,0.9483
3487.44,0.9485,0.9485,0.9485
3489.79,0.9483,0.9483,0.9483
3492.14,0.9479,0.9479,0.9479
3494.49,0.9471,0.9471,0.9471
3496.85,0.9472,0.9472,0.9472
3499.21,0.9468,0.9468,0.9468
3501.57,0.9457,0.9457,0.9457
3503.93,0.9453,0.9453,0.9453
3506.3,0.9452,0.9452,0.9452
3508.68,0.9448,0.9448,0.9448
3511.05,0.9445,0.9445,0.9445
3513.43,0.9444,0.9444,0.9444
3515.81,0.9449,0.9449,0.9449
3518.2,0.9446,0.9446,0.9446
3520.58,0.9444,0.9444,0.9444
3522.98,0.9441,0.9441,0.9441
3525.37,0.9438,0.9438,0.9438
3527.77,0.9436,0.9436,0.9436
3530.17,0.9432,0.9432,0.9432
3532.57,0.9431,0.9431,0.9431
3534.98,0.9431,0.9431,0.9431
3537.39,0.9426,0.9426,0.9426
3539.81,0.9421,0.9421,0.9421
3542.23,0.942,0.942,0.942
3544.65,0.9422,0.9422,0.9422
3547.07,0.9419,0.9419,0.9419
3549.5,0.9413,0.9413,0.9413
3551.93,0.9406,0.9406,0.9406
3554.36,0.9407,0.9407,0.9407
3556.8,0.9409,0.9409,0.9409
3559.24,0.9405,0.9405,0.9405
3561.69,0.9397,0.9397,0.9397
3564.14,0.9395,0.9395,0.9395
3566.59,0.9395,0.9395,0.9395
3569.04,0.9391,0.9391,0.9391
3571.5,0.9387,0.9387,0.9387
3573.96,0.9382,0.9382,0.9382
3576.42,0.9379,0.9379,0.9379
3578.89,0.9377,0.9377,0.9377
3581.36,0.9371,0.9371,0.9371
3583.84,0.9369,0.9369,0.9369
3586.32,0.9368,0.9368,0.9368
3588.8,0.9362,0.9362,0.9362
3591.28,0.9361,0.9361,0.9361
3593.77,0.9358,0.9358,0.9358
3596.26,0.9355,0.9355,0.9355
3598.76,0.9354,0.9354,0.9354
3601.26,0.9347,0.9347,0.9347
3603.76,0.9345,0.9345,0.9345
3606.27,0.9344,0.9344,0.9344
3608.78,0.9337,0.9337,0.9337
3611.29,0.9331,0.9331,0.9331
3613.81,0.9331,0.9331,0.9331
3616.33,0.9324,0.9324,0.9324
3618.85,0.9321,0.9321,0.9321
3621.38,0.9319,0.9319,0.9319
3623.91,0.9311,0.9311,0.9311
3626.44,0.9305,0.9305,0.9305
3628.98,0.9306,0.9306,0.9306
3631.52,0.9305,0.9305,0.9305
3634.06,0.9303,0.9303,0.9303
3636.61,0.9301,0.9301,0.9301
3639.16,0.9296,0.9296,0.9296
3641.72,0.9288,0.9288,0.9288
3644.28,0.9283,0.9283,0.9283
3646.84,0.9285,0.9285,0.9285
3649.41,0.9285,0.9285,0.9285
3651.98,0.9273,0.9273,0.9273
3654.55,0.9268,0.9268,0.9268
3657.13,0.9268,0.9268,0.9268
3659.71,0.9267,0.9267,0.9267
3662.29,0.9262,0.9262,0.9262
3664.88,0.926,0.926,0.926
3667.47,0.9262,0.9262,0.9262
3670.07,0.9259,0.9259,0.9259
3672.67,0.9249,0.9249,0.9249
3675.27,0.9241,0.9241,0.9241
3677.88,0.9237,0.9237,0.9237
3680.49,0.9234,0.9234,0.9234
3683.1,0.9233,0.9233,0.9233
3685.72,0.9235,0.9235,0.9235
3688.34,0.9232,0.9232,0.9232
3690.96,0.9226,0.9226,0.9226
3693.59,0.9222,0.9222,0.9222
3696.23,0.922,0.922,0.922
3698.86,0.9218,0.9218,0.9218
3701.5,0.9219,0.9219,0.9219
3704.15,0.9221,0.9221,0.9221
3706.79,0.9222,0.9222,0.9222
3709.44,0.9217,0.9217,0.9217
3712.1,0.9212,0.9212,0.9212
3714.76,0.9209,0.9209,0.9209
3717.42,0.9206,0.9206,0.9206
3720.09,0.92,0.92,0.92
3722.76,0.9204,0.9204,0.9204
3725.43,0.9208,0.9208,0.9208
3728.11,0.9204,0.9204,0.9204
3730.79,0.9199,0.9199,0.9199
3733.48,0.9202,0.9202,0.9202
3736.17,0.9201,0.9201,0.9201
3738.86,0.9197,0.9197,0.9197
3741.56,0.9186,0.9186,0.9186
3744.26,0.9186,0.9186,0.9186
3746.97,0.9191,0.9191,0.9191
3749.67,0.9188,0.9188,0.9188
3752.39,0.9185,0.9185,0.9185
3755.1,0.9181,0.9181,0.9181
3757.83,0.9181,0.9181,0.9181
3760.55,0.9185,0.9185,0.9185
3763.28,0.9184,0.9184,0.9184
3766.01,0.918,0.918,0.918
3768.75,0.9176,0.9176,0.9176
3771.49,0.9175,0.9175,0.9175
3774.23,0.9175,0.9175,0.9175
3776.98,0.9175,0.9175,0.9175
3779.74,0.9177,0.9177,0.9177
3782.49,0.9179,0.9179,0.9179
3785.25,0.9179,0.9179,0.9179
3788.02,0.9179,0.9179,0.9179
3790.79,0.918,0.918,0.918
3793.56,0.9176,0.9176,0.9176
3796.34,0.9171,0.9171,0.9171
3799.12,0.917,0.917,0.917
3801.9,0.9174,0.9174,0.9174
3804.69,0.9178,0.9178,0.9178
3807.48,0.9173,0.9173,0.9173
3810.28,0.9171,0.9171,0.9171
3813.08,0.9168,0.9168,0.9168
3815.89,0.9168,0.9168,0.9168
3818.7,0.9168,0.9168,0.9168
3821.51,0.9171,0.9171,0.9171
3824.33,0.9173,0.9173,0.9173
3827.15,0.9177,0.9177,0.9177
3829.98,0.9172,0.9172,0.9172
3832.81,0.9167,0.9167,0.9167
3835.64,0.9164,0.9164,0.9164
3838.48,0.9173,0.9173,0.9173
3841.33,0.9178,0.9178,0.9178
3844.17,0.9176,0.9176,0.9176
3847.03,0.9179,0.9179,0.9179
3849.88,0.9177,0.9177,0.9177
3852.74,0.9176,0.9176,0.9176
3855.61,0.9182,0.9182,0.9182
3858.47,0.9189,0.9189,0.9189
3861.35,0.9199,0.9199,0.9199
3864.22,0.9209,0.9209,0.9209
3867.11,0.9224,0.9224,0.9224
3869.99,0.9229,0.9229,0.9229
3872.88,0.9227,0.9227,0.9227
3875.78,0.9219,0.9219,0.9219
3878.67,0.9209,0.9209,0.9209
3881.58,0.9199,0.9199,0.9199
3884.48,0.9196,0.9196,0.9196
3887.4,0.9199,0.9199,0.9199
3890.31,0.9202,0.9202,0.9202
3893.23,0.9204,0.9204,0.9204
3896.16,0.9201,0.9201,0.9201
3899.09,0.9199,0.9199,0.9199
3902.02,0.9203,0.9203,0.9203
3904.96,0.9206,0.9206,0.9206
3907.9,0.9211,0.9211,0.9211
3910.85,0.9213,0.9213,0.9213
3913.8,0.922,0.922,0.922
3916.76,0.9226,0.9226,0.9226
3919.72,0.9226,0.9226,0.9226
3922.68,0.9226,0.9226,0.9226
3925.65,0.9232,0.9232,0.9232
3928.62,0.9233,0.9233,0.9233
3931.6,0.9237,0.9237,0.9237
3934.58,0.9242,0.9242,0.9242
3937.57,0.9251,0.9251,0.9251
3940.56,0.9255,0.9255,0.9255
3943.56,0.9255,0.9255,0.9255
3946.56,0.9256,0.9256,0.9256
3949.57,0.9256,0.9256,0.9256
3952.58,0.926,0.926,0.926
3955.59,0.9274,0.9274,0.9274
3958.61,0.9286,0.9286,0.9286
3961.63,0.9297,0.9297,0.9297
3964.66,0.9304,0.9304,0.9304
3967.7,0.9306,0.9306,0.9306
3970.73,0.931,0.931,0.931
3973.78,0.9312,0.9312,0.9312
3976.82,0.9312,0.9312,0.9312
3979.88,0.9311,0.9311,0.9311
3982.93,0.9308,0.9308,0.9308
3985.99,0.9312,0.9312,0.9312
3989.06,0.9315,0.9315,0.9315
3992.13,0.9317,0.9317,0.9317
3995.21,0.9317,0.9317,0.9317
3998.29,0.9317,0.9317,0.9317
4001.37,0.9317,0.9317,0.9317
4004.46,0.9319,0.9319,0.9319
4007.55,0.9325,0.9325,0.9325
4010.65,0.9333,0.9333,0.9333
4013.76,0.9335,0.9335,0.9335
4016.87,0.9334,0.9334,0.9334
4019.98,0.9336,0.9336,0.9336
4023.1,0.9343,0.9343,0.9343
4026.22,0.935,0.935,0.935
4029.35,0.9354,0.9354,0.9354
4032.48,0.9355,0.9355,0.9355
4035.62,0.9359,0.9359,0.9359
4038.76,0.9362,0.9362,0.9362
4041.91,0.9366,0.9366,0.9366
4045.06,0.9371,0.9371,0.9371
4048.22,0.9375,0.9375,0.9375
4051.38,0.9377,0.9377,0.9377
4054.55,0.9382,0.9382,0.9382
4057.72,0.9387,0.9387,0.9387
4060.9,0.9392,0.9392,0.9392
4064.08,0.9396,0.9396,0.9396
4067.27,0.9398,0.9398,0.9398
4070.46,0.9401,0.9401,0.9401
4073.66,0.9407,0.9407,0.9407
4076.86,0.9413,0.9413,0.9413
4080.07,0.942,0.942,0.942
4083.28,0.9421,0.9421,0.9421
4086.5,0.9422,0.9422,0.9422
4089.72,0.9427,0.9427,0.9427
4092.95,0.9432,0.9432,0.9432
4096.18,0.9437,0.9437,0.9437
4099.42,0.9442,0.9442,0.9442
4102.66,0.945,0.945,0.945
4105.91,0.9453,0.9453,0.9453
4109.16,0.9451,0.9451,0.9451
4112.42,0.9456,0.9456,0.9456
4115.69,0.946,0.946,0.946
4118.96,0.9466,0.9466,0.9466
4122.23,0.9471,0.9471,0.9471
4125.51,0.9474,0.9474,0.9474
4128.79,0.9478,0.9478,0.9478
4132.08,0.948,0.948,0.948
4135.38,0.9482,0.9482,0.9482
4138.68,0.9485,0.9485,0.9485
4141.98,0.9493,0.9493,0.9493
4145.29,0.95,0.95,0.95
4148.61,0.9503,0.9503,0.9503
4151.93,0.9505,0.9505,0.9505
4155.26,0.9505,0.9505,0.9505
4158.59,0.9512,0.9512,0.9512
4161.93,0.9517,0.9517,0.9517
4165.27,0.9519,0.9519,0.9519
4168.62,0.9522,0.9522,0.9522
4171.97,0.9529,0.9529,0.9529
4175.33,0.9535,0.9535,0.9535
4178.69,0.9537,0.9537,0.9537
4182.06,0.9541,0.9541,0.9541
4185.44,0.9549,0.9549,0.9549
4188.82,0.9554,0.9554,0.9554
4192.21,0.9555,0.9555,0.9555
4195.6,0.9556,0.9556,0.9556
4198.99,0.9562,0.9562,0.9562
4202.4,0.9567,0.9567,0.9567
4205.8,0.9569,0.9569,0.9569
4209.22,0.9574,0.9574,0.9574
4212.64,0.9579,0.9579,0.9579
4216.06,0.9581,0.9581,0.9581
4219.49,0.9584,0.9584,0.9584
4222.93,0.9587,0.9587,0.9587
4226.37,0.9594,0.9594,0.9594
4229.82,0.9601,0.9601,0.9601
4233.27,0.9603,0.9603,0.9603
4236.73,0.9607,0.9607,0.9607
4240.19,0.9612,0.9612,0.9612
4243.66,0.9615,0.9615,0.9615
4247.14,0.962,0.962,0.962
4250.62,0.9624,0.9624,0.9624
4254.1,0.9628,0.9628,0.9628
4257.6,0.9632,0.9632,0.9632
4261.09,0.9641,0.9641,0.9641
4264.6,0.9645,0.9645,0.9645
4268.11,0.9647,0.9647,0.9647
4271.62,0.9649,0.9649,0.9649
4275.14,0.9653,0.9653,0.9653
4278.67,0.9657,0.9657,0.9657
4282.2,0.9661,0.9661,0.9661
4285.74,0.9665,0.9665,0.9665
4289.29,0.9667,0.9667,0.9667
4292.84,0.9669,0.9669,0.9669
4296.4,0.9676,0.9676,0.9676
4299.96,0.9683,0.9683,0.9683
4303.53,0.9688,0.9688,0.9688
4307.1,0.9691,0.9691,0.9691
4310.68,0.9692,0.9692,0.9692
4314.27,0.9693,0.9693,0.9693
4317.86,0.9694,0.9694,0.9694
4321.46,0.9698,0.9698,0.9698
4325.06,0.9706,0.9706,0.9706
4328.67,0.9711,0.9711,0.9711
4332.29,0.9711,0.9711,0.9711
4335.91,0.971,0.971,0.971
4339.54,0.9716,0.9716,0.9716
4343.17,0.9721,0.9721,0.9721
4346.81,0.9725,0.9725,0.9725
4350.46,0.9722,0.9722,0.9722
4354.11,0.9721,0.9721,0.9721
4357.77,0.9725,0.9725,0.9725
4361.43,0.9728,0.9728,0.9728
4365.1,0.9727,0.9727,0.9727
4368.78,0.9728,0.9728,0.9728
4372.46,0.9728,0.9728,0.9728
4376.15,0.9732,0.9732,0.9732
4379.85,0.9731,0.9731,0.9731
4383.55,0.9732,0.9732,0.9732
4387.26,0.9734,0.9734,0.9734
4390.97,0.9735,0.9735,0.9735
4394.69,0.9737,0.9737,0.9737
4398.42,0.974,0.974,0.974
4402.16,0.9744,0.9744,0.9744
4405.9,0.9746,0.9746,0.9746
4409.64,0.9745,0.9745,0.9745
4413.39,0.9745,0.9745,0.9745
4417.15,0.9747,0.9747,0.9747
4420.92,0.9747,0.9747,0.9747
4424.69,0.9746,0.9746,0.9746
4428.47,0.9748,0.9748,0.9748
4432.25,0.9749,0.9749,0.9749
4436.04,0.975,0.975,0.975
4439.84,0.9754,0.9754,0.9754
4443.65,0.9759,0.9759,0.9759
4447.46,0.976,0.976,0.976
4451.27,0.976,0.976,0.976
4455.1,0.9755,0.9755,0.9755
4458.93,0.9754,0.9754,0.9754
4462.77,0.9757,0.9757,0.9757
4466.61,0.9757,0.9757,0.9757
4470.46,0.9756,0.9756,0.9756
4474.32,0.9758,0.9758,0.9758
4478.18,0.9757,0.9757,0.9757
4482.05,0.9757,0.9757,0.9757
4485.93,0.976,0.976,0.976
4489.81,0.9759,0.9759,0.9759
4493.7,0.9756,0.9756,0.9756
4497.6,0.9758,0.9758,0.9758
4501.5,0.9757,0.9757,0.9757
4505.41,0.9755,0.9755,0.9755
4509.33,0.9754,0.9754,0.9754
4513.25,0.9752,0.9752,0.9752
4517.18,0.9752,0.9752,0.9752
4521.12,0.9755,0.9755,0.9755
4525.07,0.9754,0.9754,0.9754
4529.02,0.9754,0.9754,0.9754
4532.98,0.9754,0.9754,0.9754
4536.94,0.9753,0.9753,0.9753
4540.92,0.9753,0.9753,0.9753
4544.9,0.9753,0.9753,0.9753
4548.88,0.9751,0.9751,0.9751
4552.88,0.9752,0.9752,0.9752
4556.88,0.9748,0.9748,0.9748
4560.88,0.9745,0.9745,0.9745
4564.9,0.9747,0.9747,0.9747
4568.92,0.9746,0.9746,0.9746
4572.95,0.974,0.974,0.974
4576.98,0.974,0.974,0.974
4581.03,0.9739,0.9739,0.9739
4585.08,0.9736,0.9736,0.9736
4589.13,0.9735,0.9735,0.9735
4593.2,0.9732,0.9732,0.9732
4597.27,0.9729,0.9729,0.9729
4601.35,0.9728,0.9728,0.9728
4605.44,0.9725,0.9725,0.9725
4609.53,0.9728,0.9728,0.9728
4613.63,0.9732,0.9732,0.9732
4617.74,0.9728,0.9728,0.9728
4621.85,0.9724,0.9724,0.9724
4625.97,0.9724,0.9724,0.9724
4630.1,0.9722,0.9722,0.9722
4634.24,0.9725,0.9725,0.9725
4638.39,0.9729,0.9729,0.9729
4642.54,0.9729,0.9729,0.9729
4646.7,0.9729,0.9729,0.9729
4650.87,0.9732,0.9732,0.9732
4655.04,0.9737,0.9737,0.9737
4659.22,0.9733,0.9733,0.9733
4663.41,0.9731,0.9731,0.9731
4667.61,0.9733,0.9733,0.9733
4671.81,0.9736,0.9736,0.9736
4676.03,0.9738,0.9738,0.9738
4680.25,0.9739,0.9739,0.9739
4684.47,0.9737,0.9737,0.9737
4688.71,0.9737,0.9737,0.9737
4692.95,0.9739,0.9739,0.9739
4697.2,0.9738,0.9738,0.9738
4701.46,0.9736,0.9736,0.9736
4705.73,0.9733,0.9733,0.9733
4710,0.9733,0.9733,0.9733
4714.28,0.9733,0.9733,0.9733
4718.57,0.9734,0.9734,0.9734
4722.87,0.9733,0.9733,0.9733
4727.17,0.9731,0.9731,0.9731
4731.49,0.9729,0.9729,0.9729
4735.81,0.9727,0.9727,0.9727
4740.13,0.9726,0.9726,0.9726
4744.47,0.9722,0.9722,0.9722
4748.82,0.9716,0.9716,0.9716
4753.17,0.9708,0.9708,0.9708
4757.53,0.9701,0.9701,0.9701
4761.9,0.9694,0.9694,0.9694
4766.27,0.9687,0.9687,0.9687
4770.66,0.9683,0.9683,0.9683
4775.05,0.9676,0.9676,0.9676
4779.45,0.9669,0.9669,0.9669
4783.86,0.9663,0.9663,0.9663
4788.28,0.966,0.966,0.966
4792.7,0.9658,0.9658,0.9658
4797.13,0.9657,0.9657,0.9657
4801.58,0.965,0.965,0.965
4806.03,0.9644,0.9644,0.9644
4810.48,0.9641,0.9641,0.9641
4814.95,0.9642,0.9642,0.9642
4819.42,0.9641,0.9641,0.9641
4823.91,0.9639,0.9639,0.9639
4828.4,0.9634,0.9634,0.9634
4832.9,0.9631,0.9631,0.9631
4837.4,0.963,0.963,0.963
4841.92,0.9628,0.9628,0.9628
4846.45,0.9626,0.9626,0.9626
4850.98,0.9623,0.9623,0.9623
4855.52,0.962,0.962,0.962
4860.07,0.962,0.962,0.962
4864.63,0.9621,0.9621,0.9621
4869.2,0.9619,0.9619,0.9619
4873.77,0.9618,0.9618,0.9618
4878.36,0.9619,0.9619,0.9619
4882.95,0.9616,0.9616,0.9616
4887.55,0.9614,0.9614,0.9614
4892.16,0.9611,0.9611,0.9611
4896.78,0.9609,0.9609,0.9609
4901.41,0.961,0.961,0.961
4906.05,0.9608,0.9608,0.9608
4910.69,0.9606,0.9606,0.9606
4915.35,0.9603,0.9603,0.9603
4920.01,0.9601,0.9601,0.9601
4924.68,0.96,0.96,0.96
4929.36,0.9601,0.9601,0.9601
4934.05,0.96,0.96,0.96
4938.75,0.96,0.96,0.96
4943.46,0.9602,0.9602,0.9602
4948.18,0.9602,0.9602,0.9602
4952.9,0.96,0.96,0.96
4957.64,0.9598,0.9598,0.9598
4962.38,0.9598,0.9598,0.9598
4967.13,0.9602,0.9602,0.9602
4971.89,0.9604,0.9604,0.9604
4976.67,0.9605,0.9605,0.9605
4981.45,0.9603,0.9603,0.9603
4986.23,0.9597,0.9597,0.9597
4991.03,0.9593,0.9593,0.9593
4995.84,0.9591,0.9591,0.9591
5000.66,0.959,0.959,0.959
5005.49,0.959,0.959,0.959
5010.32,0.959,0.959,0.959
5015.17,0.959,0.959,0.959
5020.02,0.9589,0.9589,0.9589
5024.88,0.9587,0.9587,0.9587
5029.76,0.9584,0.9584,0.9584
5034.64,0.9585,0.9585,0.9585
5039.53,0.9584,0.9584,0.9584
5044.43,0.9582,0.9582,0.9582
5049.35,0.9584,0.9584,0.9584
5054.27,0.9584,0.9584,0.9584
5059.2,0.958,0.958,0.958
5064.14,0.9578,0.9578,0.9578
5069.09,0.9579,0.9579,0.9579
5074.05,0.9581,0.9581,0.9581
5079.02,0.958,0.958,0.958
5084,0.9578,0.9578,0.9578
5088.98,0.9576,0.9576,0.9576
5093.98,0.9575,0.9575,0.9575
5098.99,0.9575,0.9575,0.9575
5104.01,0.9575,0.9575,0.9575
5109.04,0.9574,0.9574,0.9574
5114.08,0.9574,0.9574,0.9574
5119.12,0.9573,0.9573,0.9573
5124.18,0.9571,0.9571,0.9571
5129.25,0.9569,0.9569,0.9569
5134.33,0.9569,0.9569,0.9569
5139.42,0.9568,0.9568,0.9568
5144.51,0.957,0.957,0.957
5149.62,0.957,0.957,0.957
5154.74,0.9568,0.9568,0.9568
5159.87,0.9567,0.9567,0.9567
5165.01,0.9565,0.9565,0.9565
5170.16,0.9563,0.9563,0.9563
5175.32,0.9564,0.9564,0.9564
5180.49,0.9563,0.9563,0.9563
5185.67,0.956,0.956,0.956
5190.86,0.9558,0.9558,0.9558
5196.06,0.9559,0.9559,0.9559
5201.27,0.9562,0.9562,0.9562
5206.49,0.9564,0.9564,0.9564
5211.72,0.9563,0.9563,0.9563
5216.96,0.9562,0.9562,0.9562
5222.22,0.9563,0.9563,0.9563
5227.48,0.9565,0.9565,0.9565
5232.76,0.9565,0.9565,0.9565
5238.04,0.9563,0.9563,0.9563
5243.34,0.9564,0.9564,0.9564
5248.64,0.9567,0.9567,0.9567
5253.96,0.9569,0.9569,0.9569
5259.29,0.9571,0.9571,0.9571
5264.63,0.9573,0.9573,0.9573
5269.98,0.9574,0.9574,0.9574
5275.34,0.9575,0.9575,0.9575
5280.71,0.9576,0.9576,0.9576
5286.09,0.9576,0.9576,0.9576
5291.49,0.9579,0.9579,0.9579
5296.89,0.9581,0.9581,0.9581
5302.31,0.9582,0.9582,0.9582
5307.73,0.9584,0.9584,0.9584
5313.17,0.9586,0.9586,0.9586
5318.62,0.9588,0.9588,0.9588
5324.08,0.9589,0.9589,0.9589
5329.55,0.9589,0.9589,0.9589
5335.03,0.9591,0.9591,0.9591
5340.53,0.9593,0.9593,0.9593
5346.03,0.9592,0.9592,0.9592
5351.55,0.9593,0.9593,0.9593
5357.08,0.9598,0.9598,0.9598
5362.62,0.9598,0.9598,0.9598
5368.17,0.9596,0.9596,0.9596
5373.73,0.9597,0.9597,0.9597
5379.3,0.96,0.96,0.96
5384.89,0.9601,0.9601,0.9601
5390.49,0.96,0.96,0.96
5396.09,0.9599,0.9599,0.9599
5401.71,0.9598,0.9598,0.9598
5407.35,0.9599,0.9599,0.9599
5412.99,0.9602,0.9602,0.9602
5418.65,0.9603,0.9603,0.9603
5424.31,0.9604,0.9604,0.9604
5429.99,0.9607,0.9607,0.9607
5435.68,0.9611,0.9611,0.9611
5441.39,0.9612,0.9612,0.9612
5447.1,0.9614,0.9614,0.9614
5452.83,0.9615,0.9615,0.9615
5458.57,0.9619,0.9619,0.9619
5464.32,0.9622,0.9622,0.9622
5470.08,0.9623,0.9623,0.9623
5475.86,0.9624,0.9624,0.9624
5481.65,0.9626,0.9626,0.9626
5487.45,0.9628,0.9628,0.9628
5493.26,0.9632,0.9632,0.9632
5499.08,0.9638,0.9638,0.9638
5504.92,0.964,0.964,0.964
5510.77,0.9642,0.9642,0.9642
5516.63,0.9646,0.9646,0.9646
5522.51,0.9648,0.9648,0.9648
5528.39,0.9646,0.9646,0.9646
5534.29,0.9649,0.9649,0.9649
5540.21,0.9653,0.9653,0.9653
5546.13,0.9653,0.9653,0.9653
5552.07,0.9657,0.9657,0.9657
5558.02,0.9659,0.9659,0.9659
5563.98,0.966,0.966,0.966
5569.96,0.9661,0.9661,0.9661
5575.95,0.9664,0.9664,0.9664
5581.95,0.9665,0.9665,0.9665
5587.96,0.9664,0.9664,0.9664
5593.99,0.9664,0.9664,0.9664
5600.03,0.9667,0.9667,0.9667
5606.08,0.967,0.967,0.967
5612.15,0.9673,0.9673,0.9673
5618.23,0.9673,0.9673,0.9673
5624.32,0.9673,0.9673,0.9673
5630.43,0.9677,0.9677,0.9677
5636.55,0.9682,0.9682,0.9682
5642.68,0.9685,0.9685,0.9685
5648.83,0.9684,0.9684,0.9684
5654.99,0.968,0.968,0.968
5661.16,0.9684,0.9684,0.9684
5667.35,0.9689,0.9689,0.9689
5673.55,0.9691,0.9691,0.9691
5679.76,0.9691,0.9691,0.9691
5685.99,0.9693,0.9693,0.9693
5692.23,0.9697,0.9697,0.9697
5698.48,0.97,0.97,0.97
5704.75,0.9702,0.9702,0.9702
5711.03,0.9703,0.9703,0.9703
5717.33,0.9706,0.9706,0.9706
5723.64,0.9712,0.9712,0.9712
5729.96,0.9713,0.9713,0.9713
5736.3,0.9713,0.9713,0.9713
5742.65,0.9713,0.9713,0.9713
5749.02,0.9719,0.9719,0.9719
5755.4,0.9723,0.9723,0.9723
5761.79,0.9725,0.9725,0.9725
5768.2,0.973,0.973,0.973
5774.62,0.9735,0.9735,0.9735
5781.06,0.9737,0.9737,0.9737
5787.51,0.9743,0.9743,0.9743
5793.98,0.9744,0.9744,0.9744
5800.46,0.9747,0.9747,0.9747
5806.95,0.9751,0.9751,0.9751
5813.46,0.9756,0.9756,0.9756
5819.98,0.9762,0.9762,0.9762
5826.52,0.9767,0.9767,0.9767
5833.08,0.9767,0.9767,0.9767
5839.64,0.9769,0.9769,0.9769
5846.23,0.9772,0.9772,0.9772
5852.83,0.9779,0.9779,0.9779
5859.44,0.9785,0.9785,0.9785
5866.07,0.9793,0.9793,0.9793
5872.71,0.9799,0.9799,0.9799
5879.37,0.9803,0.9803,0.9803
5886.04,0.9806,0.9806,0.9806
5892.73,0.9812,0.9812,0.9812
5899.43,0.9818,0.9818,0.9818
5906.15,0.9821,0.9821,0.9821
5912.88,0.9822,0.9822,0.9822
5919.63,0.9822,0.9822,0.9822
5926.4,0.9819,0.9819,0.9819
5933.18,0.9818,0.9818,0.9818
5939.97,0.982,0.982,0.982
5946.78,0.982,0.982,0.982
5953.61,0.9817,0.9817,0.9817
5960.45,0.9819,0.9819,0.9819
5967.31,0.9823,0.9823,0.9823
5974.18,0.9823,0.9823,0.9823
5981.07,0.9819,0.9819,0.9819
5987.98,0.9817,0.9817,0.9817
5994.9,0.9819,0.9819,0.9819
6001.84,0.9821,0.9821,0.9821
6008.79,0.9825,0.9825,0.9825
6015.76,0.9825,0.9825,0.9825
6022.75,0.9823,0.9823,0.9823
6029.75,0.9823,0.9823,0.9823
6036.77,0.9826,0.9826,0.9826
6043.81,0.9831,0.9831,0.9831
6050.86,0.9835,0.9835,0.9835
6057.93,0.9834,0.9834,0.9834
6065.01,0.9836,0.9836,0.9836
6072.11,0.9837,0.9837,0.9837
6079.23,0.9833,0.9833,0.9833
6086.36,0.9834,0.9834,0.9834
6093.51,0.9835,0.9835,0.9835
6100.68,0.9828,0.9828,0.9828
6107.87,0.9823,0.9823,0.9823
6115.07,0.9828,0.9828,0.9828
6122.29,0.9825,0.9825,0.9825
6129.52,0.9817,0.9817,0.9817
6136.78,0.9802,0.9802,0.9802
6144.05,0.9784,0.9784,0.9784
6151.34,0.9771,0.9771,0.9771
6158.64,0.9764,0.9764,0.9764
6165.96,0.9763,0.9763,0.9763
6173.3,0.9767,0.9767,0.9767
6180.66,0.9768,0.9768,0.9768
6188.03,0.9772,0.9772,0.9772
6195.43,0.9772,0.9772,0.9772
6202.84,0.9774,0.9774,0.9774
6210.26,0.9774,0.9774,0.9774
6217.71,0.9778,0.9778,0.9778
6225.17,0.9785,0.9785,0.9785
6232.65,0.9789,0.9789,0.9789
6240.15,0.9788,0.9788,0.9788
6247.67,0.9785,0.9785,0.9785
6255.21,0.9781,0.9781,0.9781
6262.76,0.9784,0.9784,0.9784
6270.33,0.9784,0.9784,0.9784
6277.92,0.9782,0.9782,0.9782
6285.53,0.978,0.978,0.978
6293.16,0.9775,0.9775,0.9775
6300.8,0.977,0.977,0.977
6308.47,0.9766,0.9766,0.9766
6316.15,0.9768,0.9768,0.9768
6323.85,0.977,0.977,0.977
6331.57,0.9765,0.9765,0.9765
6339.31,0.976,0.976,0.976
6347.07,0.9759,0.9759,0.9759
6354.85,0.9758,0.9758,0.9758
6362.65,0.976,0.976,0.976
6370.46,0.9762,0.9762,0.9762
6378.3,0.9758,0.9758,0.9758
6386.15,0.9754,0.9754,0.9754
6394.02,0.9752,0.9752,0.9752
6401.92,0.9752,0.9752,0.9752
6409.83,0.9751,0.9751,0.9751
6417.76,0.9753,0.9753,0.9753
6425.71,0.975,0.975,0.975
6433.68,0.9751,0.9751,0.9751
6441.67,0.975,0.975,0.975
6449.69,0.9749,0.9749,0.9749
6457.72,0.9747,0.9747,0.9747
6465.77,0.9746,0.9746,0.9746
6473.84,0.9745,0.9745,0.9745
6481.93,0.9748,0.9748,0.9748
6490.04,0.9747,0.9747,0.9747
6498.17,0.9748,0.9748,0.9748
6506.33,0.9745,0.9745,0.9745
6514.5,0.9746,0.9746,0.9746
6522.69,0.9749,0.9749,0.9749
6530.91,0.9747,0.9747,0.9747
6539.14,0.9746,0.9746,0.9746
6547.4,0.9748,0.9748,0.9748
6555.67,0.9746,0.9746,0.9746
6563.97,0.9747,0.9747,0.9747
6572.29,0.9746,0.9746,0.9746
6580.63,0.9746,0.9746,0.9746
6588.99,0.9745,0.9745,0.9745
6597.37,0.9746,0.9746,0.9746
6605.77,0.9744,0.9744,0.9744
6614.2,0.9742,0.9742,0.9742
6622.65,0.974,0.974,0.974
6631.11,0.9744,0.9744,0.9744
6639.6,0.9745,0.9745,0.9745
6648.11,0.9744,0.9744,0.9744
6656.65,0.9742,0.9742,0.9742
6665.2,0.9741,0.9741,0.9741
6673.78,0.9739,0.9739,0.9739
6682.38,0.9743,0.9743,0.9743
6691,0.9744,0.9744,0.9744
6699.64,0.9743,0.9743,0.9743
6708.31,0.9745,0.9745,0.9745
6717,0.9743,0.9743,0.9743
6725.71,0.9745,0.9745,0.9745
6734.44,0.975,0.975,0.975
6743.2,0.9752,0.9752,0.9752
6751.98,0.9751,0.9751,0.9751
6760.78,0.9746,0.9746,0.9746
6769.61,0.9748,0.9748,0.9748
6778.45,0.9753,0.9753,0.9753
6787.32,0.9758,0.9758,0.9758
6796.22,0.9754,0.9754,0.9754
6805.14,0.9752,0.9752,0.9752
6814.08,0.9754,0.9754,0.9754
6823.04,0.9759,0.9759,0.9759
6832.03,0.9759,0.9759,0.9759
6841.04,0.976,0.976,0.976
6850.08,0.9758,0.9758,0.9758
6859.14,0.9759,0.9759,0.9759
6868.22,0.9762,0.9762,0.9762
6877.33,0.9763,0.9763,0.9763
6886.46,0.9764,0.9764,0.9764
6895.62,0.9771,0.9771,0.9771
6904.8,0.9771,0.9771,0.9771
6914.01,0.9768,0.9768,0.9768
6923.24,0.9772,0.9772,0.9772
6932.49,0.9772,0.9772,0.9772
6941.77,0.9769,0.9769,0.9769
6951.07,0.9769,0.9769,0.9769
6960.4,0.9768,0.9768,0.9768
6969.76,0.9767,0.9767,0.9767
6979.14,0.9767,0.9767,0.9767
6988.54,0.9775,0.9775,0.9775
6997.97,0.9777,0.9777,0.9777
7007.43,0.9774,0.9774,0.9774
7016.91,0.9773,0.9773,0.9773
7026.41,0.9776,0.9776,0.9776
7035.95,0.9775,0.9775,0.9775
7045.51,0.9777,0.9777,0.9777
7055.09,0.9776,0.9776,0.9776
7064.7,0.9773,0.9773,0.9773
7074.34,0.9772,0.9772,0.9772
7084,0.9774,0.9774,0.9774
7093.69,0.9779,0.9779,0.9779
7103.41,0.9783,0.9783,0.9783
7113.15,0.9783,0.9783,0.9783
7122.92,0.9786,0.9786,0.9786
7132.71,0.9784,0.9784,0.9784
7142.54,0.9784,0.9784,0.9784
7152.39,0.9785,0.9785,0.9785
7162.27,0.9789,0.9789,0.9789
7172.17,0.9787,0.9787,0.9787
7182.1,0.9789,0.9789,0.9789
7192.06,0.9791,0.9791,0.9791
7202.05,0.9791,0.9791,0.9791
7212.07,0.9794,0.9794,0.9794
7222.11,0.9795,0.9795,0.9795
7232.18,0.9794,0.9794,0.9794
7242.28,0.9797,0.9797,0.9797
7252.41,0.9797,0.9797,0.9797
7262.57,0.9799,0.9799,0.9799
7272.75,0.9799,0.9799,0.9799
7282.96,0.9801,0.9801,0.9801
7293.21,0.9801,0.9801,0.9801
7303.48,0.9805,0.9805,0.9805
7313.78,0.9806,0.9806,0.9806
7324.1,0.9808,0.9808,0.9808
7334.46,0.9808,0.9808,0.9808
7344.85,0.9807,0.9807,0.9807
7355.27,0.9805,0.9805,0.9805
7365.71,0.9809,0.9809,0.9809
7376.19,0.9812,0.9812,0.9812
7386.7,0.9812,0.9812,0.9812
7397.23,0.9811,0.9811,0.9811
7407.8,0.9814,0.9814,0.9814
7418.39,0.9816,0.9816,0.9816
7429.02,0.9815,0.9815,0.9815
7439.68,0.9811,0.9811,0.9811
7450.37,0.9816,0.9816,0.9816
7461.08,0.9822,0.9822,0.9822
7471.83,0.9824,0.9824,0.9824
7482.61,0.982,0.982,0.982
7493.43,0.982,0.982,0.982
7504.27,0.982,0.982,0.982
7515.14,0.9821,0.9821,0.9821
7526.05,0.9819,0.9819,0.9819
7536.99,0.9816,0.9816,0.9816
7547.96,0.9814,0.9814,0.9814
7558.96,0.9816,0.9816,0.9816
7569.99,0.9818,0.9818,0.9818
7581.06,0.9822,0.9822,0.9822
7592.15,0.9818,0.9818,0.9818
7603.28,0.9815,0.9815,0.9815
7614.45,0.9815,0.9815,0.9815
7625.64,0.9817,0.9817,0.9817
7636.87,0.9816,0.9816,0.9816
7648.14,0.9816,0.9816,0.9816
7659.43,0.9817,0.9817,0.9817
7670.76,0.9818,0.9818,0.9818
7682.12,0.9817,0.9817,0.9817
7693.52,0.9816,0.9816,0.9816
7704.95,0.9818,0.9818,0.9818
7716.41,0.9818,0.9818,0.9818
7727.91,0.9814,0.9814,0.9814
7739.44,0.9815,0.9815,0.9815
7751.01,0.9811,0.9811,0.9811
7762.61,0.9811,0.9811,0.9811
7774.25,0.9812,0.9812,0.9812
7785.92,0.9814,0.9814,0.9814
7797.63,0.9807,0.9807,0.9807
7809.37,0.9801,0.9801,0.9801
7821.15,0.98,0.98,0.98
7832.96,0.9799,0.9799,0.9799
7844.81,0.9797,0.9797,0.9797
7856.69,0.9794,0.9794,0.9794
7868.61,0.9788,0.9788,0.9788
7880.57,0.9785,0.9785,0.9785
7892.56,0.9782,0.9782,0.9782
7904.59,0.9778,0.9778,0.9778
7916.66,0.9771,0.9771,0.9771
7928.76,0.9767,0.9767,0.9767
7940.9,0.9763,0.9763,0.9763
7953.08,0.9759,0.9759,0.9759
7965.29,0.9757,0.9757,0.9757
7977.55,0.9757,0.9757,0.9757
7989.84,0.9748,0.9748,0.9748
8002.17,0.9736,0.9736,0.9736
8014.53,0.9726,0.9726,0.9726
8026.94,0.9722,0.9722,0.9722
8039.38,0.9713,0.9713,0.9713
8051.86,0.9704,0.9704,0.9704
8064.38,0.9692,0.9692,0.9692
8076.94,0.9681,0.9681,0.9681
8089.54,0.9669,0.9669,0.9669
8102.18,0.9659,0.9659,0.9659
8114.86,0.9644,0.9644,0.9644
8127.57,0.9622,0.9622,0.9622
8140.33,0.9602,0.9602,0.9602
8153.13,0.9591,0.9591,0.9591
8165.96,0.957,0.957,0.957
8178.84,0.9542,0.9542,0.9542
8191.76,0.9508,0.9508,0.9508
8204.72,0.9476,0.9476,0.9476
8217.72,0.9441,0.9441,0.9441
8230.76,0.9406,0.9406,0.9406
8243.85,0.9367,0.9367,0.9367
8256.97,0.9331,0.9331,0.9331
8270.14,0.9292,0.9292,0.9292
8283.35,0.9255,0.9255,0.9255
8296.6,0.9213,0.9213,0.9213
8309.89,0.9172,0.9172,0.9172
8323.23,0.9135,0.9135,0.9135
8336.61,0.9109,0.9109,0.9109
8350.03,0.9078,0.9078,0.9078
8363.5,0.9051,0.9051,0.9051
8377.01,0.9013,0.9013,0.9013
8390.56,0.8979,0.8979,0.8979
8404.16,0.8942,0.8942,0.8942
8417.8,0.8905,0.8905,0.8905
8431.48,0.8861,0.8861,0.8861
8445.21,0.8812,0.8812,0.8812
8458.99,0.8757,0.8757,0.8757
8472.81,0.8702,0.8702,0.8702
8486.67,0.8639,0.8639,0.8639
8500.58,0.8577,0.8577,0.8577
8514.54,0.8523,0.8523,0.8523
8528.54,0.8482,0.8482,0.8482
8542.59,0.8453,0.8453,0.8453
8556.68,0.8442,0.8442,0.8442
8570.83,0.844,0.844,0.844
8585.01,0.8451,0.8451,0.8451
8599.25,0.8465,0.8465,0.8465
8613.53,0.8482,0.8482,0.8482
8627.86,0.8493,0.8493,0.8493
8642.24,0.8511,0.8511,0.8511
8656.66,0.8526,0.8526,0.8526
8671.14,0.8543,0.8543,0.8543
8685.66,0.8563,0.8563,0.8563
8700.23,0.8587,0.8587,0.8587
8714.85,0.8609,0.8609,0.8609
8729.52,0.8634,0.8634,0.8634
8744.24,0.8658,0.8658,0.8658
8759.01,0.8692,0.8692,0.8692
8773.83,0.8721,0.8721,0.8721
8788.69,0.8748,0.8748,0.8748
8803.61,0.8783,0.8783,0.8783
8818.58,0.882,0.882,0.882
8833.6,0.8841,0.8841,0.8841
8848.68,0.8877,0.8877,0.8877
8863.8,0.8919,0.8919,0.8919
8878.97,0.8957,0.8957,0.8957
8894.2,0.8989,0.8989,0.8989
8909.48,0.9033,0.9033,0.9033
8924.81,0.9081,0.9081,0.9081
8940.2,0.9129,0.9129,0.9129
8955.64,0.9173,0.9173,0.9173
8971.13,0.9215,0.9215,0.9215
8986.67,0.9247,0.9247,0.9247
9002.27,0.929,0.929,0.929
9017.93,0.9337,0.9337,0.9337
9033.64,0.9382,0.9382,0.9382
9049.4,0.9416,0.9416,0.9416
9065.22,0.9443,0.9443,0.9443
9081.09,0.9459,0.9459,0.9459
9097.02,0.9481,0.9481,0.9481
9113,0.9501,0.9501,0.9501
9129.04,0.9523,0.9523,0.9523
9145.14,0.954,0.954,0.954
9161.3,0.955,0.955,0.955
9177.51,0.9558,0.9558,0.9558
9193.78,0.9581,0.9581,0.9581
9210.11,0.9592,0.9592,0.9592
9226.49,0.9601,0.9601,0.9601
9242.94,0.9611,0.9611,0.9611
9259.44,0.962,0.962,0.962
9276,0.9616,0.9616,0.9616
9292.62,0.9619,0.9619,0.9619
9309.3,0.9625,0.9625,0.9625
9326.04,0.9634,0.9634,0.9634
9342.84,0.9642,0.9642,0.9642
9359.7,0.965,0.965,0.965
9376.63,0.9655,0.9655,0.9655
9393.61,0.9659,0.9659,0.9659
9410.66,0.9652,0.9652,0.9652
9427.76,0.9654,0.9654,0.9654
9444.93,0.9661,0.9661,0.9661
9462.17,0.967,0.967,0.967
9479.46,0.967,0.967,0.967
9496.82,0.9677,0.9677,0.9677
9514.24,0.9679,0.9679,0.9679
9531.73,0.9676,0.9676,0.9676
9549.28,0.9671,0.9671,0.9671
9566.89,0.9679,0.9679,0.9679
9584.58,0.9677,0.9677,0.9677
9602.32,0.9677,0.9677,0.9677
9620.13,0.9685,0.9685,0.9685
9638.01,0.9694,0.9694,0.9694
9655.96,0.9697,0.9697,0.9697
9673.97,0.9695,0.9695,0.9695
9692.05,0.9691,0.9691,0.9691
9710.19,0.9698,0.9698,0.9698
9728.41,0.9701,0.9701,0.9701
9746.69,0.9706,0.9706,0.9706
9765.04,0.9698,0.9698,0.9698
9783.47,0.9703,0.9703,0.9703
9801.96,0.9701,0.9701,0.9701
9820.52,0.9706,0.9706,0.9706
9839.15,0.9718,0.9718,0.9718
9857.85,0.9718,0.9718,0.9718
9876.62,0.9711,0.9711,0.9711
9895.47,0.9716,0.9716,0.9716
9914.39,0.9718,0.9718,0.9718
9933.38,0.972,0.972,0.972
9952.44,0.9717,0.9717,0.9717
9971.58,0.9722,0.9722,0.9722
9990.78,0.9724,0.9724,0.9724
10010.07,0.9729,0.9729,0.9729
10029.43,0.9733,0.9733,0.9733
10048.86,0.9737,0.9737,0.9737
10068.37,0.9735,0.9735,0.9735
10087.95,0.9741,0.9741,0.9741
10107.61,0.9741,0.9741,0.9741
10127.35,0.974,0.974,0.974
10147.17,0.9742,0.9742,0.9742
10167.06,0.9746,0.9746,0.9746
10187.03,0.9746,0.9746,0.9746
10207.08,0.9751,0.9751,0.9751
10227.21,0.9752,0.9752,0.9752
10247.42,0.9757,0.9757,0.9757
10267.71,0.9751,0.9751,0.9751
10288.07,0.9751,0.9751,0.9751
10308.52,0.975,0.975,0.975
10329.06,0.9757,0.9757,0.9757
10349.67,0.9762,0.9762,0.9762
10370.36,0.9761,0.9761,0.9761
10391.14,0.9757,0.9757,0.9757
10412,0.9762,0.9762,0.9762
10432.95,0.9758,0.9758,0.9758
10453.98,0.9758,0.9758,0.9758
10475.1,0.9758,0.9758,0.9758
10496.3,0.9764,0.9764,0.9764
10517.58,0.9765,0.9765,0.9765
10538.96,0.9765,0.9765,0.9765
10560.42,0.9765,0.9765,0.9765
10582,0.9769,0.9769,0.9769
10603.6,0.9771,0.9771,0.9771
10625.3,0.9777,0.9777,0.9777
10647.1,0.9769,0.9769,0.9769
10669,0.9771,0.9771,0.9771
10691,0.9776,0.9776,0.9776
10713.1,0.9775,0.9775,0.9775
10735.3,0.9772,0.9772,0.9772
10757.6,0.9779,0.9779,0.9779
10779.9,0.9781,0.9781,0.9781
10802.4,0.9781,0.9781,0.9781
10824.9,0.9777,0.9777,0.9777
10847.6,0.9777,0.9777,0.9777
10870.3,0.9777,0.9777,0.9777
10893.1,0.9782,0.9782,0.9782
10916.1,0.9787,0.9787,0.9787
10939.1,0.9788,0.9788,0.9788
10962.2,0.9781,0.9781,0.9781
10985.4,0.9783,0.9783,0.9783
11008.7,0.9781,0.9781,0.9781
11032.2,0.9781,0.9781,0.9781
11055.7,0.9784,0.9784,0.9784
11079.3,0.9792,0.9792,0.9792
11103,0.9793,0.9793,0.9793
11126.9,0.9796,0.9796,0.9796
11150.8,0.9794,0.9794,0.9794
11174.8,0.9793,0.9793,0.9793
11198.9,0.9788,0.9788,0.9788
11223.2,0.9788,0.9788,0.9788
11247.5,0.9786,0.9786,0.9786
11271.9,0.9789,0.9789,0.9789
11296.5,0.979,0.979,0.979
11321.2,0.9795,0.9795,0.9795
11345.9,0.9789,0.9789,0.9789
11370.8,0.9796,0.9796,0.9796
11395.8,0.9795,0.9795,0.9795
11420.9,0.9792,0.9792,0.9792
11446.1,0.9789,0.9789,0.9789
11471.4,0.9792,0.9792,0.9792
11496.8,0.9793,0.9793,0.9793
11522.4,0.9795,0.9795,0.9795
11548,0.9794,0.9794,0.9794
11573.8,0.98,0.98,0.98
11599.7,0.9798,0.9798,0.9798
11625.7,0.9798,0.9798,0.9798
11651.8,0.9798,0.9798,0.9798
11678.1,0.9801,0.9801,0.9801
11704.4,0.9799,0.9799,0.9799
11730.9,0.9799,0.9799,0.9799
11757.5,0.98,0.98,0.98
11784.2,0.9804,0.9804,0.9804
11811,0.98,0.98,0.98
11838,0.9807,0.9807,0.9807
11865.1,0.9809,0.9809,0.9809
11892.3,0.9813,0.9813,0.9813
11919.6,0.9807,0.9807,0.9807
11947.1,0.9805,0.9805,0.9805
11974.7,0.9801,0.9801,0.9801
12002.4,0.9808,0.9808,0.9808
12030.2,0.981,0.981,0.981
12058.2,0.9816,0.9816,0.9816
12086.3,0.9816,0.9816,0.9816
12114.5,0.9815,0.9815,0.9815
12142.9,0.9813,0.9813,0.9813
12171.4,0.982,0.982,0.982
12200,0.9821,0.9821,0.9821
12228.8,0.9828,0.9828,0.9828
12257.7,0.9822,0.9822,0.9822
12286.7,0.9819,0.9819,0.9819
12315.9,0.9818,0.9818,0.9818
12345.2,0.9823,0.9823,0.9823
12374.7,0.9821,0.9821,0.9821
12404.3,0.9823,0.9823,0.9823
12434,0.982,0.982,0.982
12463.9,0.9822,0.9822,0.9822
12493.9,0.9817,0.9817,0.9817
12524.1,0.9818,0.9818,0.9818
12554.4,0.9817,0.9817,0.9817
12584.9,0.9824,0.9824,0.9824
12615.5,0.9823,0.9823,0.9823
12646.3,0.9828,0.9828,0.9828
12677.2,0.9831,0.9831,0.9831
12708.2,0.9832,0.9832,0.9832
12739.5,0.9826,0.9826,0.9826
12770.8,0.9824,0.9824,0.9824
12802.4,0.9819,0.9819,0.9819
12834,0.9827,0.9827,0.9827
12865.9,0.9831,0.9831,0.9831
12897.9,0.9836,0.9836,0.9836
12930,0.9832,0.9832,0.9832
12962.3,0.9831,0.9831,0.9831
12994.8,0.9827,0.9827,0.9827
13027.5,0.9837,0.9837,0.9837
13060.3,0.9837,0.9837,0.9837
13093.3,0.9836,0.9836,0.9836
13126.4,0.9837,0.9837,0.9837
13159.7,0.9841,0.9841,0.9841
13193.2,0.9842,0.9842,0.9842
13226.8,0.9847,0.9847,0.9847
13260.6,0.9837,0.9837,0.9837
13294.6,0.9839,0.9839,0.9839
13328.8,0.984,0.984,0.984
13363.2,0.9846,0.9846,0.9846
13397.7,0.984,0.984,0.984
13432.4,0.9842,0.9842,0.9842
13467.2,0.9846,0.9846,0.9846
13502.3,0.9854,0.9854,0.9854
13537.6,0.9855,0.9855,0.9855
13573,0.9859,0.9859,0.9859
13608.6,0.9855,0.9855,0.9855
13644.4,0.9858,0.9858,0.9858
13680.4,0.9854,0.9854,0.9854
13716.6,0.9856,0.9856,0.9856
13753,0.9848,0.9848,0.9848
13789.5,0.9851,0.9851,0.9851
13826.3,0.9849,0.9849,0.9849
13863.3,0.9849,0.9849,0.9849
13900.4,0.9847,0.9847,0.9847
13937.8,0.9859,0.9859,0.9859
13975.3,0.9855,0.9855,0.9855
14013.1,0.9851,0.9851,0.9851
14051.1,0.9839,0.9839,0.9839
14089.2,0.9842,0.9842,0.9842
14127.6,0.9845,0.9845,0.9845
14166.2,0.9855,0.9855,0.9855
14205,0.9834,0.9834,0.9834
14244,0.9825,0.9825,0.9825
14283.2,0.9797,0.9797,0.9797
14322.7,0.9802,0.9802,0.9802
14362.4,0.9777,0.9777,0.9777
14402.2,0.978,0.978,0.978
14442.3,0.9761,0.9761,0.9761
14482.7,0.9729,0.9729,0.9729
14523.2,0.9667,0.9667,0.9667
14564,0.9646,0.9646,0.9646
14605,0.9591,0.9591,0.9591
14646.3,0.9552,0.9552,0.9552
14687.8,0.9522,0.9522,0.9522
14729.5,0.9556,0.9556,0.9556
14771.4,0.9449,0.9449,0.9449
14813.6,0.9408,0.9408,0.9408
14856,0.9412,0.9412,0.9412
14898.7,0.9585,0.9585,0.9585
14941.7,0.9687,0.9687,0.9687
14984.8,0.9777,0.9777,0.9777
15028.3,0.9726,0.9726,0.9726
15071.9,0.9818,0.9818,0.9818
15115.9,0.987,0.987,0.987
15160,0.9898,0.9898,0.9898
